SpectraSuite Data File
++++++++++++++++++++++++++++++++++++
Date: Fri Feb 01 15:51:36 EST 2013
User: group
Dark Spectrum Present: No
Reference Spectrum Present: No
Number of Sampled Component Spectra: 1
Spectrometers: USB2E7196
Integration Time (usec): 35000 (USB2E7196)
Spectra Averaged: 100 (USB2E7196)
Boxcar Smoothing: 10 (USB2E7196)
Correct for Electrical Dark: No (USB2E7196)
Strobe/Lamp Enabled: No (USB2E7196)
Correct for Detector Non-linearity: No (USB2E7196)
Correct for Stray Light: No (USB2E7196)
Number of Pixels in Processed Spectrum: 2048
>>>>>Begin Processed Spectral Data<<<<<
339.09	0.00
339.48	214.95
339.86	216.24
340.24	216.95
340.63	218.57
341.01	221.91
341.39	221.70
341.78	222.99
342.16	224.36
342.54	224.51
342.93	212.98
343.31	223.74
343.69	224.28
344.07	224.74
344.46	225.18
344.84	225.57
345.22	225.79
345.60	226.04
345.99	226.21
346.37	226.32
346.75	226.43
347.13	226.49
347.52	226.57
347.90	226.62
348.28	226.67
348.66	226.73
349.05	226.74
349.43	226.78
349.81	226.83
350.19	226.86
350.57	226.89
350.96	226.94
351.34	227.01
351.72	227.06
352.10	227.15
352.48	227.24
352.87	227.28
353.25	227.36
353.63	227.43
354.01	227.51
354.39	227.59
354.77	227.68
355.15	227.82
355.54	227.86
355.92	227.94
356.30	228.04
356.68	228.19
357.06	228.26
357.44	228.33
357.82	228.39
358.20	228.50
358.58	228.62
358.97	228.70
359.35	228.78
359.73	228.88
360.11	228.92
360.49	228.96
360.87	229.05
361.25	229.11
361.63	229.20
362.01	229.25
362.39	229.29
362.77	229.32
363.15	229.33
363.53	229.38
363.91	229.40
364.29	229.40
364.67	229.31
365.05	229.34
365.43	229.37
365.81	229.40
366.19	229.42
366.57	229.44
366.95	229.45
367.33	229.46
367.71	229.47
368.09	229.53
368.47	229.54
368.85	229.52
369.23	229.52
369.61	229.47
369.99	229.47
370.37	229.47
370.75	229.48
371.13	229.42
371.51	229.37
371.89	229.36
372.27	229.33
372.65	229.32
373.03	229.25
373.41	229.19
373.78	229.11
374.16	228.99
374.54	228.92
374.92	228.85
375.30	228.80
375.68	228.71
376.06	228.61
376.44	228.53
376.82	228.43
377.19	228.34
377.57	228.25
377.95	228.14
378.33	228.04
378.71	227.95
379.09	227.90
379.47	227.85
379.84	227.73
380.22	227.64
380.60	227.53
380.98	227.48
381.36	227.38
381.73	227.32
382.11	227.25
382.49	227.14
382.87	227.03
383.25	226.95
383.62	226.99
384.00	226.92
384.38	226.86
384.76	226.86
385.13	226.83
385.51	226.76
385.89	226.72
386.27	226.68
386.64	226.62
387.02	226.54
387.40	226.48
387.78	226.43
388.15	226.39
388.53	226.37
388.91	226.32
389.29	226.31
389.66	226.32
390.04	226.29
390.42	226.29
390.79	226.31
391.17	226.31
391.55	226.18
391.92	226.14
392.30	226.14
392.68	226.11
393.05	226.10
393.43	226.12
393.81	226.11
394.18	226.10
394.56	226.14
394.94	226.17
395.31	226.17
395.69	226.24
396.06	226.27
396.44	226.30
396.82	226.34
397.19	226.40
397.57	226.42
397.95	226.48
398.32	226.50
398.70	226.57
399.07	226.61
399.45	226.70
399.82	226.80
400.20	226.84
400.58	226.95
400.95	226.99
401.33	227.09
401.70	227.24
402.08	227.34
402.45	227.42
402.83	227.55
403.20	227.70
403.58	227.83
403.95	227.97
404.33	228.09
404.71	228.22
405.08	228.42
405.46	228.53
405.83	228.69
406.21	228.89
406.58	229.07
406.96	229.25
407.33	229.42
407.70	229.56
408.08	229.87
408.45	230.07
408.83	230.30
409.20	230.47
409.58	230.66
409.95	230.92
410.33	231.20
410.70	231.47
411.08	231.71
411.45	232.00
411.82	232.31
412.20	232.67
412.57	233.11
412.95	233.40
413.32	233.81
413.69	234.20
414.07	234.60
414.44	235.03
414.82	235.50
415.19	236.02
415.56	236.59
415.94	237.12
416.31	237.77
416.68	238.40
417.06	239.14
417.43	239.82
417.81	240.61
418.18	241.37
418.55	242.20
418.93	243.09
419.30	243.95
419.67	244.87
420.04	245.81
420.42	246.77
420.79	247.93
421.16	249.07
421.54	250.25
421.91	251.45
422.28	252.74
422.66	254.07
423.03	255.38
423.40	256.71
423.77	258.11
424.15	259.49
424.52	260.98
424.89	262.62
425.26	264.16
425.64	265.62
426.01	267.17
426.38	268.79
426.75	270.46
427.13	272.23
427.50	274.02
427.87	275.91
428.24	277.77
428.61	279.51
428.99	281.45
429.36	283.55
429.73	285.62
430.10	287.62
430.47	289.67
430.85	291.80
431.22	294.03
431.59	296.40
431.96	298.68
432.33	301.15
432.70	303.49
433.08	306.29
433.45	308.89
433.82	311.54
434.19	314.44
434.56	317.23
434.93	319.86
435.30	322.51
435.68	325.40
436.05	328.23
436.42	331.08
436.79	333.63
437.16	336.34
437.53	339.19
437.90	341.99
438.27	344.78
438.64	347.57
439.01	350.13
439.38	352.35
439.75	354.51
440.13	356.98
440.50	359.33
440.87	361.19
441.24	363.18
441.61	365.32
441.98	366.84
442.35	368.67
442.72	370.53
443.09	372.33
443.46	373.35
443.83	373.93
444.20	374.42
444.57	375.20
444.94	375.48
445.31	375.79
445.68	376.17
446.05	376.18
446.42	375.81
446.79	375.43
447.16	374.96
447.53	374.61
447.90	373.49
448.27	372.32
448.64	370.73
449.01	369.54
449.37	367.59
449.74	365.64
450.11	363.38
450.48	360.92
450.85	358.36
451.22	356.21
451.59	354.22
451.96	352.22
452.33	349.64
452.70	347.32
453.07	344.54
453.43	341.60
453.80	338.90
454.17	336.22
454.54	333.69
454.91	331.02
455.28	328.33
455.65	325.83
456.02	323.35
456.38	321.22
456.75	318.58
457.12	316.30
457.49	314.10
457.86	311.92
458.23	310.06
458.59	308.03
458.96	305.94
459.33	304.07
459.70	302.21
460.07	300.72
460.43	298.96
460.80	297.30
461.17	295.88
461.54	294.34
461.91	292.94
462.27	291.48
462.64	290.21
463.01	288.90
463.38	287.60
463.74	286.27
464.11	285.09
464.48	284.09
464.85	282.98
465.21	282.07
465.58	281.15
465.95	280.10
466.32	279.16
466.68	278.24
467.05	277.34
467.42	276.48
467.78	275.56
468.15	274.68
468.52	274.02
468.88	273.17
469.25	272.42
469.62	271.75
469.98	271.08
470.35	270.49
470.72	269.90
471.08	269.26
471.45	268.72
471.82	268.18
472.18	267.57
472.55	267.18
472.92	266.72
473.28	266.29
473.65	265.79
474.02	265.37
474.38	265.02
474.75	264.67
475.11	264.30
475.48	264.07
475.85	263.85
476.21	263.63
476.58	263.45
476.94	263.28
477.31	263.14
477.67	262.97
478.04	262.81
478.41	262.74
478.77	262.79
479.14	262.73
479.50	262.75
479.87	262.82
480.23	262.86
480.60	262.92
480.96	263.02
481.33	263.24
481.69	263.47
482.06	263.67
482.42	263.92
482.79	264.21
483.15	264.50
483.52	264.91
483.88	265.27
484.25	265.69
484.61	266.13
484.98	266.58
485.34	267.20
485.71	267.82
486.07	268.45
486.44	269.00
486.80	269.70
487.17	270.42
487.53	271.26
487.90	272.12
488.26	273.07
488.62	274.04
488.99	275.00
489.35	276.00
489.72	277.13
490.08	278.29
490.44	279.54
490.81	280.87
491.17	282.23
491.54	283.67
491.90	285.22
492.26	286.87
492.63	288.61
492.99	290.37
493.36	292.28
493.72	294.35
494.08	296.47
494.45	298.73
494.81	301.06
495.17	303.47
495.54	306.03
495.90	308.72
496.26	311.49
496.63	314.48
496.99	317.60
497.35	320.89
497.72	324.28
498.08	327.77
498.44	331.44
498.80	335.36
499.17	339.44
499.53	343.54
499.89	347.94
500.26	352.44
500.62	357.10
500.98	362.03
501.34	367.06
501.71	372.40
502.07	377.84
502.43	383.49
502.79	389.33
503.16	395.43
503.52	401.70
503.88	408.16
504.24	414.81
504.60	421.72
504.97	428.83
505.33	436.16
505.69	443.93
506.05	451.71
506.41	459.56
506.78	467.71
507.14	476.22
507.50	484.89
507.86	493.98
508.22	503.16
508.59	512.45
508.95	522.05
509.31	531.80
509.67	541.89
510.03	552.19
510.39	562.67
510.75	573.53
511.12	584.51
511.48	595.77
511.84	607.24
512.20	618.75
512.56	630.68
512.92	642.85
513.28	655.12
513.64	667.61
514.00	680.36
514.37	693.34
514.73	706.34
515.09	719.37
515.45	732.64
515.81	746.21
516.17	760.11
516.53	774.21
516.89	788.43
517.25	802.58
517.61	817.02
517.97	831.57
518.33	845.84
518.69	860.58
519.05	875.56
519.41	890.66
519.77	906.20
520.13	921.65
520.49	937.09
520.85	952.54
521.21	968.34
521.57	984.56
521.93	1000.16
522.29	1016.58
522.65	1032.81
523.01	1048.96
523.37	1064.96
523.73	1081.20
524.09	1097.26
524.45	1113.54
524.81	1130.11
525.17	1146.99
525.53	1163.90
525.89	1180.81
526.25	1197.62
526.61	1214.01
526.97	1230.72
527.33	1247.20
527.68	1263.84
528.04	1280.36
528.40	1296.91
528.76	1313.83
529.12	1330.56
529.48	1347.60
529.84	1363.60
530.20	1380.26
530.56	1397.30
530.91	1414.67
531.27	1431.44
531.63	1447.94
531.99	1464.47
532.35	1480.43
532.71	1496.29
533.07	1512.36
533.42	1528.21
533.78	1544.22
534.14	1560.53
534.50	1575.92
534.86	1591.71
535.21	1606.85
535.57	1622.62
535.93	1638.07
536.29	1652.80
536.65	1667.71
537.00	1682.33
537.36	1697.63
537.72	1712.11
538.08	1726.54
538.44	1740.37
538.79	1754.14
539.15	1767.75
539.51	1781.46
539.87	1795.94
540.22	1809.51
540.58	1823.47
540.94	1836.89
541.29	1849.72
541.65	1862.33
542.01	1875.45
542.37	1887.81
542.72	1900.22
543.08	1911.92
543.44	1924.40
543.79	1935.69
544.15	1946.69
544.51	1958.29
544.87	1969.20
545.22	1980.06
545.58	1990.18
545.94	1999.92
546.29	2009.83
546.65	2019.73
547.01	2029.01
547.36	2037.73
547.72	2046.24
548.07	2054.02
548.43	2062.07
548.79	2070.16
549.14	2077.71
549.50	2085.05
549.86	2092.73
550.21	2100.02
550.57	2107.34
550.92	2113.93
551.28	2121.02
551.64	2128.10
551.99	2134.52
552.35	2140.70
552.70	2146.88
553.06	2152.90
553.41	2159.18
553.77	2165.26
554.13	2171.38
554.48	2177.54
554.84	2182.88
555.19	2188.36
555.55	2193.42
555.90	2197.99
556.26	2202.77
556.61	2207.41
556.97	2211.77
557.32	2215.81
557.68	2219.89
558.03	2224.18
558.39	2227.87
558.74	2232.52
559.10	2236.36
559.45	2240.07
559.81	2244.39
560.16	2248.09
560.52	2251.52
560.87	2255.03
561.23	2257.57
561.58	2260.42
561.94	2262.97
562.29	2265.31
562.64	2267.78
563.00	2270.38
563.35	2273.97
563.71	2277.19
564.06	2280.59
564.42	2283.40
564.77	2286.01
565.12	2288.34
565.48	2290.21
565.83	2292.21
566.19	2293.47
566.54	2294.45
566.89	2295.68
567.25	2296.24
567.60	2297.73
567.96	2299.22
568.31	2300.16
568.66	2301.28
569.02	2301.89
569.37	2302.17
569.72	2303.04
570.08	2303.13
570.43	2303.23
570.78	2302.55
571.14	2300.97
571.49	2299.66
571.84	2299.22
572.20	2298.07
572.55	2296.98
572.90	2295.38
573.26	2293.88
573.61	2292.13
573.96	2290.29
574.31	2287.31
574.67	2284.30
575.02	2280.57
575.37	2277.07
575.72	2273.10
576.08	2269.98
576.43	2266.59
576.78	2262.95
577.13	2259.91
577.49	2256.87
577.84	2253.31
578.19	2249.61
578.54	2245.98
578.90	2241.58
579.25	2236.09
579.60	2230.98
579.95	2225.93
580.30	2221.01
580.66	2215.80
581.01	2210.86
581.36	2205.86
581.71	2201.68
582.06	2197.24
582.42	2192.77
582.77	2187.63
583.12	2183.16
583.47	2178.15
583.82	2173.19
584.17	2167.92
584.53	2162.30
584.88	2156.60
585.23	2150.75
585.58	2145.21
585.93	2139.73
586.28	2134.98
586.63	2129.93
586.98	2124.98
587.34	2120.43
587.69	2115.51
588.04	2110.19
588.39	2104.50
588.74	2098.06
589.09	2091.79
589.44	2084.89
589.79	2078.90
590.14	2073.41
590.49	2066.75
590.84	2060.49
591.19	2054.38
591.54	2047.95
591.89	2040.58
592.25	2033.79
592.60	2026.72
592.95	2019.21
593.30	2011.96
593.65	2004.37
594.00	1997.34
594.35	1990.18
594.70	1982.09
595.05	1974.81
595.40	1967.47
595.75	1959.99
596.10	1953.72
596.45	1947.07
596.80	1941.03
597.15	1934.41
597.50	1927.14
597.85	1920.79
598.19	1914.02
598.54	1906.93
598.89	1900.21
599.24	1894.31
599.59	1887.67
599.94	1881.40
600.29	1875.01
600.64	1868.28
600.99	1860.79
601.34	1854.09
601.69	1847.06
602.04	1840.12
602.39	1832.80
602.74	1826.06
603.08	1819.34
603.43	1812.62
603.78	1805.36
604.13	1798.11
604.48	1790.75
604.83	1783.89
605.18	1776.83
605.53	1768.96
605.87	1761.03
606.22	1753.81
606.57	1745.86
606.92	1738.61
607.27	1731.41
607.62	1724.44
607.96	1717.19
608.31	1710.71
608.66	1702.85
609.01	1695.23
609.36	1687.59
609.70	1679.56
610.05	1671.60
610.40	1663.91
610.75	1655.66
611.10	1647.85
611.44	1639.51
611.79	1631.47
612.14	1622.84
612.49	1613.66
612.83	1605.37
613.18	1597.26
613.53	1589.16
613.88	1580.66
614.22	1572.35
614.57	1563.85
614.92	1555.87
615.27	1548.35
615.61	1539.84
615.96	1531.99
616.31	1524.43
616.65	1517.05
617.00	1509.46
617.35	1501.67
617.70	1493.24
618.04	1484.72
618.39	1476.58
618.74	1468.86
619.08	1460.71
619.43	1453.06
619.78	1446.17
620.12	1438.77
620.47	1431.21
620.82	1423.01
621.16	1415.59
621.51	1407.92
621.85	1400.38
622.20	1391.79
622.55	1383.38
622.89	1375.60
623.24	1367.92
623.59	1360.50
623.93	1353.14
624.28	1345.96
624.62	1338.46
624.97	1331.33
625.32	1324.67
625.66	1317.57
626.01	1310.46
626.35	1302.98
626.70	1295.27
627.04	1287.61
627.39	1279.94
627.73	1272.47
628.08	1265.64
628.43	1258.34
628.77	1251.03
629.12	1243.33
629.46	1236.25
629.81	1228.94
630.15	1221.70
630.50	1214.26
630.84	1206.08
631.19	1198.08
631.53	1190.54
631.88	1182.95
632.22	1175.31
632.57	1167.88
632.91	1160.38
633.26	1153.04
633.60	1145.62
633.95	1138.53
634.29	1131.53
634.64	1124.90
634.98	1117.60
635.32	1110.41
635.67	1103.78
636.01	1097.15
636.36	1090.40
636.70	1083.85
637.05	1077.18
637.39	1070.72
637.73	1064.19
638.08	1058.31
638.42	1052.32
638.77	1046.00
639.11	1039.37
639.45	1033.02
639.80	1026.37
640.14	1019.95
640.49	1013.35
640.83	1007.04
641.17	1000.84
641.52	994.39
641.86	987.82
642.20	981.87
642.55	975.62
642.89	969.12
643.23	962.57
643.58	956.77
643.92	950.53
644.26	944.51
644.61	938.51
644.95	932.56
645.29	925.87
645.64	919.10
645.98	912.75
646.32	906.94
646.66	900.94
647.01	895.17
647.35	889.51
647.69	883.63
648.04	878.12
648.38	872.26
648.72	866.30
649.06	860.36
649.41	854.46
649.75	848.44
650.09	842.51
650.43	836.70
650.78	830.58
651.12	824.66
651.46	818.89
651.80	813.08
652.14	807.64
652.49	802.34
652.83	797.21
653.17	791.41
653.51	785.67
653.85	780.26
654.20	774.57
654.54	768.57
654.88	762.83
655.22	756.85
655.56	751.23
655.90	745.80
656.25	740.43
656.59	735.14
656.93	730.07
657.27	724.88
657.61	719.46
657.95	714.32
658.29	709.20
658.64	703.96
658.98	698.72
659.32	693.28
659.66	688.00
660.00	682.64
660.34	677.73
660.68	672.84
661.02	667.75
661.36	663.05
661.70	658.50
662.05	654.18
662.39	649.87
662.73	645.40
663.07	640.99
663.41	636.53
663.75	632.04
664.09	627.40
664.43	623.03
664.77	618.88
665.11	614.62
665.45	610.53
665.79	606.46
666.13	602.28
666.47	598.21
666.81	594.07
667.15	590.04
667.49	586.12
667.83	582.31
668.17	578.42
668.51	574.34
668.85	570.31
669.19	566.48
669.53	562.66
669.87	558.75
670.21	555.08
670.55	551.51
670.89	548.10
671.23	544.72
671.57	541.21
671.91	537.69
672.25	534.17
672.58	530.69
672.92	527.27
673.26	524.09
673.60	520.90
673.94	517.81
674.28	514.84
674.62	511.88
674.96	508.75
675.30	505.80
675.64	502.94
675.97	500.13
676.31	497.21
676.65	494.29
676.99	491.58
677.33	488.60
677.67	485.79
678.01	482.72
678.34	479.73
678.68	476.91
679.02	474.07
679.36	471.36
679.70	468.65
680.04	465.89
680.37	463.08
680.71	460.26
681.05	457.66
681.39	454.95
681.73	452.31
682.06	449.83
682.40	447.30
682.74	444.76
683.08	442.28
683.42	439.67
683.75	437.17
684.09	434.60
684.43	432.23
684.77	429.74
685.10	427.43
685.44	425.12
685.78	422.79
686.12	420.54
686.45	418.24
686.79	415.90
687.13	413.75
687.46	411.53
687.80	409.44
688.14	407.21
688.48	405.16
688.81	402.94
689.15	400.76
689.49	398.60
689.82	396.51
690.16	394.41
690.50	392.52
690.83	390.62
691.17	388.65
691.51	386.73
691.84	384.95
692.18	383.02
692.52	381.02
692.85	379.17
693.19	377.33
693.52	375.48
693.86	373.67
694.20	371.85
694.53	370.08
694.87	368.27
695.21	366.51
695.54	364.70
695.88	362.98
696.21	361.30
696.55	359.65
696.88	357.97
697.22	356.31
697.56	354.67
697.89	353.01
698.23	351.43
698.56	349.83
698.90	348.22
699.23	346.55
699.57	345.02
699.90	343.42
700.24	341.82
700.58	340.28
700.91	338.82
701.25	337.35
701.58	335.99
701.92	334.63
702.25	333.22
702.59	331.91
702.92	330.58
703.26	329.24
703.59	327.94
703.93	326.76
704.26	325.53
704.60	324.21
704.93	322.93
705.26	321.69
705.60	320.50
705.93	319.30
706.27	318.27
706.60	317.20
706.94	316.12
707.27	315.01
707.61	313.93
707.94	312.87
708.27	311.81
708.61	310.72
708.94	309.65
709.28	308.69
709.61	307.66
709.94	306.74
710.28	305.69
710.61	304.70
710.95	303.60
711.28	302.69
711.61	301.73
711.95	300.81
712.28	299.83
712.61	298.83
712.95	297.94
713.28	297.05
713.61	296.13
713.95	295.22
714.28	294.38
714.61	293.53
714.95	292.67
715.28	291.81
715.61	290.93
715.95	290.09
716.28	289.20
716.61	288.39
716.95	287.52
717.28	286.75
717.61	286.00
717.94	285.25
718.28	284.44
718.61	283.72
718.94	282.99
719.27	282.32
719.61	281.68
719.94	280.98
720.27	280.28
720.60	279.66
720.94	279.06
721.27	278.47
721.60	277.89
721.93	277.32
722.27	276.80
722.60	276.25
722.93	275.66
723.26	275.16
723.59	274.59
723.93	274.05
724.26	273.55
724.59	272.98
724.92	272.46
725.25	271.98
725.59	271.45
725.92	270.95
726.25	270.47
726.58	269.93
726.91	269.40
727.24	268.93
727.57	268.46
727.91	267.92
728.24	267.44
728.57	266.97
728.90	266.53
729.23	266.02
729.56	265.59
729.89	265.14
730.22	264.64
730.55	264.18
730.89	263.73
731.22	263.26
731.55	262.86
731.88	262.45
732.21	262.00
732.54	261.58
732.87	261.17
733.20	260.80
733.53	260.45
733.86	260.09
734.19	259.70
734.52	259.33
734.85	259.05
735.18	258.65
735.51	258.29
735.84	257.89
736.17	257.58
736.50	257.17
736.83	256.94
737.16	256.62
737.49	256.30
737.82	255.96
738.15	255.63
738.48	255.26
738.81	254.92
739.14	254.57
739.47	254.27
739.80	253.98
740.13	253.65
740.46	253.34
740.79	253.06
741.12	252.73
741.45	252.43
741.78	252.10
742.11	251.82
742.44	251.48
742.77	251.16
743.10	250.80
743.43	250.51
743.75	250.09
744.08	249.94
744.41	249.66
744.74	249.41
745.07	249.14
745.40	248.92
745.73	248.68
746.06	248.44
746.39	248.20
746.71	247.94
747.04	247.68
747.37	247.41
747.70	247.15
748.03	246.92
748.36	246.67
748.68	246.44
749.01	246.18
749.34	245.95
749.67	245.73
750.00	245.51
750.33	245.38
750.65	245.20
750.98	244.86
751.31	244.62
751.64	244.40
751.97	244.22
752.29	244.00
752.62	243.74
752.95	243.54
753.28	243.29
753.60	243.04
753.93	242.83
754.26	242.63
754.59	242.41
754.91	242.21
755.24	242.01
755.57	241.79
755.90	241.59
756.22	241.40
756.55	241.21
756.88	241.04
757.20	240.76
757.53	240.54
757.86	240.36
758.19	240.20
758.51	240.03
758.84	239.82
759.17	239.62
759.49	239.45
759.82	239.33
760.15	239.18
760.47	239.03
760.80	238.87
761.13	238.71
761.45	238.55
761.78	238.42
762.11	238.25
762.43	238.06
762.76	237.92
763.08	237.77
763.41	237.65
763.74	237.49
764.06	237.36
764.39	237.25
764.71	237.12
765.04	236.97
765.37	236.84
765.69	236.72
766.02	236.59
766.34	236.47
766.67	236.30
767.00	236.20
767.32	236.13
767.65	236.09
767.97	235.99
768.30	235.87
768.62	235.72
768.95	235.64
769.27	235.58
769.60	235.51
769.92	235.41
770.25	235.32
770.57	235.20
770.90	235.07
771.22	234.94
771.55	234.82
771.87	234.72
772.20	234.63
772.52	234.64
772.85	234.67
773.17	234.58
773.50	234.48
773.82	234.38
774.15	234.26
774.47	234.07
774.80	233.97
775.12	233.89
775.45	233.80
775.77	233.68
776.09	233.58
776.42	233.48
776.74	233.44
777.07	233.39
777.39	233.34
777.72	233.29
778.04	233.27
778.36	233.22
778.69	233.18
779.01	233.14
779.33	232.98
779.66	232.80
779.98	232.75
780.31	232.70
780.63	232.69
780.95	232.64
781.28	232.62
781.60	232.56
781.92	232.50
782.25	232.46
782.57	232.40
782.89	232.36
783.22	232.32
783.54	232.24
783.86	232.14
784.19	232.08
784.51	232.06
784.83	231.98
785.16	231.88
785.48	231.82
785.80	231.73
786.12	231.68
786.45	231.66
786.77	231.59
787.09	231.54
787.42	231.45
787.74	231.41
788.06	231.34
788.38	231.29
788.71	231.22
789.03	231.19
789.35	231.21
789.67	231.13
789.99	231.06
790.32	231.02
790.64	231.00
790.96	231.03
791.28	230.96
791.61	230.94
791.93	230.93
792.25	230.88
792.57	230.92
792.89	230.87
793.21	230.80
793.54	230.76
793.86	230.73
794.18	230.70
794.50	230.63
794.82	230.60
795.14	230.58
795.47	230.54
795.79	230.50
796.11	230.40
796.43	230.40
796.75	230.36
797.07	230.30
797.39	230.28
797.71	230.17
798.04	230.12
798.36	230.07
798.68	230.02
799.00	230.02
799.32	229.92
799.64	229.87
799.96	229.83
800.28	229.81
800.60	229.75
800.92	229.74
801.24	229.70
801.56	229.65
801.89	229.61
802.21	229.59
802.53	229.55
802.85	229.55
803.17	229.54
803.49	229.51
803.81	229.49
804.13	229.41
804.45	229.41
804.77	229.39
805.09	229.37
805.41	229.32
805.73	229.27
806.05	229.20
806.37	229.22
806.69	229.21
807.01	229.21
807.33	229.22
807.65	229.11
807.97	229.14
808.28	229.17
808.60	229.15
808.92	229.13
809.24	229.12
809.56	229.06
809.88	229.00
810.20	229.01
810.52	229.02
810.84	229.01
811.16	228.93
811.48	228.90
811.80	228.94
812.12	228.94
812.43	228.93
812.75	228.92
813.07	228.89
813.39	228.87
813.71	228.82
814.03	228.78
814.35	228.77
814.67	228.70
814.98	228.64
815.30	228.59
815.62	228.58
815.94	228.53
816.26	228.56
816.58	228.54
816.89	228.52
817.21	228.46
817.53	228.44
817.85	228.44
818.17	228.43
818.48	228.36
818.80	228.33
819.12	228.29
819.44	228.33
819.76	228.32
820.07	228.31
820.39	228.27
820.71	228.26
821.03	228.24
821.34	228.23
821.66	228.21
821.98	228.24
822.30	228.24
822.61	228.30
822.93	228.30
823.25	228.26
823.57	228.23
823.88	228.25
824.20	228.22
824.52	228.24
824.83	228.23
825.15	228.22
825.47	228.23
825.79	228.24
826.10	228.21
826.42	228.17
826.74	228.16
827.05	228.15
827.37	228.12
827.69	228.12
828.00	228.13
828.32	228.14
828.64	228.11
828.95	228.16
829.27	228.12
829.58	228.08
829.90	228.11
830.22	228.12
830.53	228.09
830.85	228.08
831.17	228.07
831.48	228.05
831.80	228.06
832.11	228.04
832.43	228.01
832.75	227.99
833.06	228.05
833.38	228.03
833.69	228.06
834.01	228.10
834.32	228.11
834.64	228.08
834.96	228.08
835.27	228.07
835.59	228.00
835.90	227.96
836.22	227.94
836.53	227.92
836.85	227.91
837.16	227.97
837.48	228.00
837.79	227.97
838.11	227.96
838.42	227.93
838.74	227.95
839.05	227.94
839.37	227.92
839.68	227.84
840.00	227.80
840.31	227.78
840.63	227.74
840.94	227.70
841.26	227.68
841.57	227.63
841.88	227.63
842.20	227.60
842.51	227.61
842.83	227.61
843.14	227.69
843.46	227.67
843.77	227.63
844.08	227.57
844.40	227.58
844.71	227.59
845.03	227.59
845.34	227.56
845.65	227.57
845.97	227.56
846.28	227.55
846.60	227.55
846.91	227.53
847.22	227.51
847.54	227.52
847.85	227.53
848.16	227.55
848.48	227.52
848.79	227.54
849.10	227.55
849.42	227.54
849.73	227.44
850.04	227.41
850.36	227.38
850.67	227.41
850.98	227.37
851.30	227.35
851.61	227.34
851.92	227.30
852.23	227.31
852.55	227.27
852.86	227.29
853.17	227.31
853.49	227.32
853.80	227.32
854.11	227.33
854.42	227.33
854.74	227.30
855.05	227.29
855.36	227.26
855.67	227.24
855.99	227.25
856.30	227.39
856.61	227.41
856.92	227.38
857.23	227.35
857.55	227.37
857.86	227.37
858.17	227.39
858.48	227.41
858.79	227.39
859.11	227.42
859.42	227.41
859.73	227.42
860.04	227.41
860.35	227.42
860.66	227.40
860.98	227.41
861.29	227.41
861.60	227.42
861.91	227.45
862.22	227.43
862.53	227.40
862.84	227.26
863.16	227.31
863.47	227.32
863.78	227.35
864.09	227.34
864.40	227.36
864.71	227.37
865.02	227.40
865.33	227.42
865.64	227.37
865.95	227.38
866.27	227.43
866.58	227.43
866.89	227.44
867.20	227.44
867.51	227.42
867.82	227.43
868.13	227.44
868.44	227.45
868.75	227.47
869.06	227.50
869.37	227.53
869.68	227.47
869.99	227.47
870.30	227.47
870.61	227.47
870.92	227.45
871.23	227.43
871.54	227.43
871.85	227.43
872.16	227.48
872.47	227.46
872.78	227.40
873.09	227.39
873.40	227.36
873.71	227.37
874.02	227.35
874.33	227.34
874.64	227.34
874.95	227.33
875.26	227.30
875.56	227.28
875.87	227.24
876.18	227.24
876.49	227.34
876.80	227.35
877.11	227.33
877.42	227.34
877.73	227.36
878.04	227.36
878.35	227.33
878.66	227.32
878.96	227.29
879.27	227.32
879.58	227.33
879.89	227.36
880.20	227.40
880.51	227.41
880.82	227.41
881.12	227.39
881.43	227.37
881.74	227.34
882.05	227.30
882.36	227.30
882.67	227.31
882.97	227.23
883.28	227.20
883.59	227.20
883.90	227.17
884.21	227.14
884.51	227.10
884.82	227.08
885.13	227.09
885.44	227.09
885.74	227.04
886.05	227.03
886.36	226.99
886.67	226.90
886.98	226.93
887.28	226.93
887.59	226.92
887.90	226.92
888.20	226.92
888.51	226.94
888.82	226.94
889.13	226.94
889.43	226.99
889.74	226.98
890.05	226.95
890.35	226.92
890.66	226.90
890.97	226.91
891.28	226.89
891.58	226.88
891.89	226.87
892.20	226.87
892.50	226.84
892.81	226.83
893.12	226.87
893.42	226.81
893.73	226.81
894.04	226.85
894.34	226.87
894.65	226.90
894.95	226.87
895.26	226.87
895.57	226.92
895.87	226.82
896.18	226.83
896.48	226.85
896.79	226.88
897.10	226.91
897.40	226.88
897.71	226.90
898.01	226.87
898.32	226.91
898.63	226.93
898.93	226.91
899.24	226.93
899.54	226.91
899.85	226.94
900.15	226.93
900.46	226.89
900.76	226.90
901.07	226.87
901.38	226.90
901.68	226.93
901.99	226.87
902.29	226.89
902.60	226.89
902.90	226.92
903.21	226.93
903.51	226.90
903.82	226.94
904.12	226.96
904.43	227.00
904.73	226.97
905.03	226.97
905.34	227.10
905.64	227.10
905.95	227.13
906.25	227.13
906.56	227.16
906.86	227.16
907.17	227.13
907.47	227.14
907.77	227.14
908.08	227.14
908.38	227.18
908.69	227.19
908.99	227.21
909.30	227.20
909.60	227.21
909.90	227.23
910.21	227.23
910.51	227.21
910.81	227.21
911.12	227.23
911.42	227.22
911.73	227.14
912.03	227.13
912.33	227.13
912.64	227.13
912.94	227.11
913.24	227.10
913.55	227.08
913.85	227.07
914.15	227.07
914.46	227.07
914.76	227.04
915.06	227.00
915.37	227.00
915.67	226.98
915.97	226.97
916.27	226.93
916.58	226.89
916.88	226.86
917.18	226.83
917.49	226.92
917.79	226.92
918.09	226.90
918.39	226.94
918.70	226.93
919.00	226.91
919.30	226.96
919.60	226.92
919.91	226.91
920.21	226.91
920.51	226.89
920.81	226.87
921.12	226.87
921.42	226.87
921.72	226.85
922.02	226.85
922.32	226.85
922.63	226.88
922.93	226.95
923.23	226.96
923.53	226.99
923.83	226.89
924.13	226.88
924.44	226.89
924.74	226.89
925.04	226.88
925.34	226.90
925.64	226.84
925.94	226.86
926.24	226.90
926.55	226.92
926.85	226.94
927.15	226.97
927.45	226.98
927.75	226.97
928.05	226.97
928.35	226.98
928.65	227.00
928.95	227.00
929.26	226.94
929.56	226.96
929.86	226.95
930.16	226.96
930.46	226.97
930.76	226.96
931.06	226.92
931.36	226.92
931.66	226.96
931.96	226.97
932.26	227.01
932.56	227.00
932.86	226.97
933.16	226.96
933.46	226.93
933.76	226.92
934.06	226.98
934.36	226.99
934.66	226.99
934.96	226.96
935.26	226.96
935.56	226.98
935.86	226.95
936.16	226.91
936.46	226.91
936.76	226.89
937.06	226.89
937.36	226.94
937.66	226.95
937.96	226.94
938.26	226.93
938.56	226.94
938.86	226.91
939.16	226.96
939.46	226.97
939.76	226.98
940.06	226.97
940.35	226.95
940.65	226.96
940.95	226.94
941.25	226.90
941.55	226.92
941.85	226.88
942.15	226.93
942.45	226.98
942.75	226.99
943.04	227.03
943.34	227.06
943.64	226.98
943.94	226.95
944.24	226.93
944.54	226.93
944.84	226.88
945.13	226.89
945.43	226.85
945.73	226.85
946.03	226.83
946.33	226.84
946.62	226.83
946.92	226.82
947.22	226.83
947.52	226.87
947.82	226.90
948.11	226.92
948.41	226.88
948.71	226.84
949.01	226.80
949.31	226.76
949.60	226.74
949.90	226.77
950.20	226.80
950.50	226.77
950.79	226.75
951.09	226.79
951.39	226.80
951.69	226.78
951.98	226.81
952.28	226.80
952.58	226.78
952.87	226.77
953.17	226.79
953.47	226.78
953.76	226.77
954.06	226.73
954.36	226.69
954.66	226.72
954.95	226.77
955.25	226.81
955.55	226.84
955.84	226.82
956.14	226.81
956.44	226.80
956.73	226.80
957.03	226.83
957.32	226.83
957.62	226.82
957.92	226.86
958.21	226.82
958.51	226.92
958.81	226.94
959.10	226.93
959.40	226.93
959.69	226.92
959.99	226.93
960.29	226.92
960.58	226.95
960.88	226.95
961.17	226.95
961.47	226.93
961.76	226.88
962.06	226.92
962.36	226.92
962.65	226.93
962.95	226.93
963.24	226.90
963.54	226.90
963.83	226.88
964.13	226.88
964.42	226.87
964.72	226.78
965.01	226.75
965.31	226.77
965.60	226.74
965.90	226.79
966.19	226.77
966.49	226.80
966.78	226.79
967.08	226.78
967.37	226.77
967.67	226.74
967.96	226.77
968.26	226.74
968.55	226.74
968.85	226.73
969.14	226.75
969.43	226.77
969.73	226.76
970.02	226.78
970.32	226.80
970.61	226.79
970.91	226.77
971.20	226.78
971.49	226.78
971.79	226.81
972.08	226.74
972.38	226.72
972.67	226.72
972.96	226.75
973.26	226.75
973.55	226.77
973.85	226.80
974.14	226.77
974.43	226.77
974.73	226.78
975.02	226.76
975.31	226.77
975.61	226.76
975.90	226.74
976.19	226.73
976.49	226.72
976.78	226.77
977.07	226.79
977.37	226.81
977.66	226.82
977.95	226.80
978.24	226.84
978.54	226.88
978.83	226.86
979.12	226.83
979.42	226.80
979.71	226.78
980.00	226.76
980.29	226.78
980.59	226.76
980.88	226.76
981.17	226.77
981.46	226.73
981.76	226.73
982.05	226.75
982.34	226.79
982.63	226.77
982.93	226.77
983.22	226.78
983.51	226.76
983.80	226.76
984.09	226.77
984.39	226.74
984.68	226.73
984.97	226.75
985.26	226.79
985.55	226.80
985.85	226.77
986.14	226.82
986.43	226.84
986.72	226.82
987.01	226.79
987.30	226.76
987.59	226.76
987.89	226.76
988.18	226.73
988.47	226.69
988.76	226.68
989.05	226.66
989.34	226.65
989.63	226.67
989.92	226.64
990.22	226.63
990.51	226.62
990.80	226.60
991.09	226.60
991.38	226.55
991.67	226.55
991.96	226.53
992.25	226.52
992.54	226.48
992.83	226.48
993.12	226.49
993.41	226.52
993.70	226.57
993.99	226.55
994.28	226.57
994.58	226.56
994.87	226.51
995.16	226.51
995.45	226.47
995.74	226.43
996.03	226.46
996.32	226.47
996.61	226.51
996.90	226.50
997.19	226.47
997.48	226.50
997.77	226.50
998.06	226.53
998.34	226.51
998.63	226.52
998.92	226.57
999.21	226.58
999.50	226.59
999.79	226.53
1000.08	226.56
1000.37	226.54
1000.66	226.57
1000.95	226.62
1001.24	226.64
1001.53	226.68
1001.82	226.67
1002.11	226.66
1002.40	226.66
1002.68	226.66
1002.97	226.75
1003.26	226.75
1003.55	226.72
1003.84	226.74
1004.13	226.76
1004.42	226.79
1004.71	226.83
1004.99	226.81
1005.28	226.86
1005.57	226.85
1005.86	226.85
1006.15	226.87
1006.44	226.88
1006.72	226.90
1007.01	226.90
1007.30	226.91
1007.59	226.88
1007.88	226.88
1008.17	226.88
1008.45	226.88
1008.74	226.85
1009.03	226.77
1009.32	226.79
1009.60	226.81
1009.89	226.81
1010.18	226.78
1010.47	226.74
1010.76	226.72
1011.04	226.69
1011.33	226.64
1011.62	226.65
1011.91	226.65
1012.19	226.66
1012.48	226.63
1012.77	226.61
1013.05	226.64
1013.34	226.60
1013.63	226.62
1013.92	226.61
1014.20	226.59
1014.49	226.56
1014.78	226.58
1015.06	226.56
1015.35	226.54
1015.64	226.53
1015.92	226.52
1016.21	226.53
1016.50	226.53
1016.78	226.53
1017.07	226.52
1017.36	226.52
1017.64	226.49
1017.93	226.49
1018.22	226.47
1018.50	226.46
1018.79	226.44
1019.08	226.41
1019.36	226.41
1019.65	226.40
1019.93	226.42
1020.22	226.44
1020.51	226.49
1020.79	226.44
1021.08	226.74
1021.36	225.86
1021.65	226.20
1021.94	226.63
1022.22	226.43
1022.51	226.38
1022.79	226.66
1023.08	226.52
1023.36	227.46
1023.65	225.93
>>>>>End Processed Spectral Data<<<<<
