SpectraSuite Data File
++++++++++++++++++++++++++++++++++++
Date: Fri Feb 01 16:37:04 EST 2013
User: group
Dark Spectrum Present: No
Reference Spectrum Present: No
Number of Sampled Component Spectra: 1
Spectrometers: USB2E7196
Integration Time (usec): 35000 (USB2E7196)
Spectra Averaged: 100 (USB2E7196)
Boxcar Smoothing: 10 (USB2E7196)
Correct for Electrical Dark: No (USB2E7196)
Strobe/Lamp Enabled: No (USB2E7196)
Correct for Detector Non-linearity: No (USB2E7196)
Correct for Stray Light: No (USB2E7196)
Number of Pixels in Processed Spectrum: 2048
>>>>>Begin Processed Spectral Data<<<<<
339.09	0.00
339.48	213.74
339.86	214.82
340.24	216.87
340.63	217.93
341.01	221.10
341.39	220.96
341.78	222.06
342.16	223.71
342.54	223.89
342.93	212.34
343.31	223.07
343.69	223.64
344.07	224.14
344.46	224.54
344.84	224.93
345.22	225.18
345.60	225.41
345.99	225.59
346.37	225.69
346.75	225.79
347.13	225.85
347.52	225.94
347.90	226.02
348.28	226.04
348.66	226.07
349.05	226.09
349.43	226.14
349.81	226.19
350.19	226.23
350.57	226.31
350.96	226.37
351.34	226.45
351.72	226.50
352.10	226.59
352.48	226.70
352.87	226.77
353.25	226.79
353.63	226.85
354.01	226.95
354.39	227.02
354.77	227.08
355.15	227.20
355.54	227.24
355.92	227.27
356.30	227.41
356.68	227.53
357.06	227.60
357.44	227.59
357.82	227.64
358.20	227.71
358.58	227.78
358.97	227.82
359.35	227.92
359.73	227.99
360.11	228.00
360.49	228.04
360.87	228.06
361.25	228.13
361.63	228.22
362.01	228.23
362.39	228.26
362.77	228.29
363.15	228.27
363.53	228.26
363.91	228.27
364.29	228.24
364.67	228.18
365.05	228.21
365.43	228.27
365.81	228.29
366.19	228.32
366.57	228.33
366.95	228.33
367.33	228.26
367.71	228.22
368.09	228.28
368.47	228.25
368.85	228.25
369.23	228.24
369.61	228.18
369.99	228.16
370.37	228.17
370.75	228.19
371.13	228.18
371.51	228.13
371.89	228.13
372.27	228.08
372.65	228.01
373.03	227.95
373.41	227.84
373.78	227.76
374.16	227.62
374.54	227.55
374.92	227.50
375.30	227.45
375.68	227.40
376.06	227.33
376.44	227.28
376.82	227.19
377.19	227.12
377.57	227.06
377.95	226.99
378.33	226.90
378.71	226.78
379.09	226.72
379.47	226.70
379.84	226.57
380.22	226.52
380.60	226.44
380.98	226.36
381.36	226.32
381.73	226.25
382.11	226.26
382.49	226.21
382.87	226.10
383.25	226.03
383.62	226.07
384.00	225.99
384.38	225.92
384.76	225.90
385.13	225.88
385.51	225.81
385.89	225.73
386.27	225.68
386.64	225.70
387.02	225.65
387.40	225.58
387.78	225.58
388.15	225.52
388.53	225.50
388.91	225.49
389.29	225.45
389.66	225.43
390.04	225.35
390.42	225.34
390.79	225.32
391.17	225.33
391.55	225.19
391.92	225.18
392.30	225.19
392.68	225.15
393.05	225.15
393.43	225.17
393.81	225.23
394.18	225.22
394.56	225.21
394.94	225.24
395.31	225.29
395.69	225.35
396.06	225.37
396.44	225.40
396.82	225.41
397.19	225.50
397.57	225.54
397.95	225.59
398.32	225.63
398.70	225.70
399.07	225.80
399.45	225.86
399.82	225.92
400.20	225.99
400.58	226.05
400.95	226.08
401.33	226.16
401.70	226.28
402.08	226.40
402.45	226.49
402.83	226.60
403.20	226.71
403.58	226.81
403.95	226.96
404.33	227.06
404.71	227.18
405.08	227.38
405.46	227.53
405.83	227.70
406.21	227.83
406.58	227.99
406.96	228.14
407.33	228.30
407.70	228.49
408.08	228.73
408.45	228.96
408.83	229.18
409.20	229.39
409.58	229.54
409.95	229.78
410.33	230.03
410.70	230.27
411.08	230.50
411.45	230.79
411.82	231.06
412.20	231.44
412.57	231.83
412.95	232.05
413.32	232.41
413.69	232.81
414.07	233.23
414.44	233.70
414.82	234.16
415.19	234.74
415.56	235.29
415.94	235.83
416.31	236.43
416.68	237.09
417.06	237.80
417.43	238.52
417.81	239.28
418.18	240.05
418.55	240.89
418.93	241.77
419.30	242.65
419.67	243.60
420.04	244.53
420.42	245.55
420.79	246.78
421.16	247.96
421.54	249.12
421.91	250.36
422.28	251.67
422.66	253.00
423.03	254.28
423.40	255.60
423.77	257.04
424.15	258.49
424.52	259.98
424.89	261.60
425.26	263.12
425.64	264.56
426.01	266.12
426.38	267.77
426.75	269.46
427.13	271.16
427.50	272.97
427.87	274.84
428.24	276.68
428.61	278.42
428.99	280.33
429.36	282.41
429.73	284.44
430.10	286.39
430.47	288.45
430.85	290.58
431.22	292.82
431.59	295.16
431.96	297.37
432.33	299.81
432.70	302.17
433.08	304.98
433.45	307.60
433.82	310.19
434.19	313.07
434.56	315.85
434.93	318.51
435.30	321.07
435.68	323.94
436.05	326.77
436.42	329.50
436.79	332.01
437.16	334.71
437.53	337.58
437.90	340.35
438.27	343.05
438.64	345.85
439.01	348.40
439.38	350.61
439.75	352.79
440.13	355.25
440.50	357.53
440.87	359.35
441.24	361.28
441.61	363.46
441.98	364.91
442.35	366.75
442.72	368.57
443.09	370.38
443.46	371.38
443.83	371.97
444.20	372.51
444.57	373.31
444.94	373.58
445.31	373.90
445.68	374.27
446.05	374.38
446.42	374.00
446.79	373.58
447.16	373.14
447.53	372.83
447.90	371.69
448.27	370.58
448.64	369.02
449.01	367.86
449.37	365.88
449.74	364.05
450.11	361.77
450.48	359.27
450.85	356.79
451.22	354.65
451.59	352.62
451.96	350.67
452.33	348.09
452.70	345.78
453.07	342.90
453.43	340.02
453.80	337.26
454.17	334.57
454.54	332.04
454.91	329.31
455.28	326.62
455.65	324.12
456.02	321.67
456.38	319.52
456.75	316.93
457.12	314.70
457.49	312.45
457.86	310.28
458.23	308.48
458.59	306.44
458.96	304.36
459.33	302.53
459.70	300.75
460.07	299.22
460.43	297.48
460.80	295.91
461.17	294.51
461.54	292.99
461.91	291.58
462.27	290.17
462.64	288.95
463.01	287.61
463.38	286.33
463.74	284.97
464.11	283.81
464.48	282.73
464.85	281.59
465.21	280.76
465.58	279.88
465.95	278.79
466.32	277.89
466.68	276.99
467.05	276.07
467.42	275.16
467.78	274.29
468.15	273.44
468.52	272.80
468.88	271.94
469.25	271.19
469.62	270.59
469.98	269.92
470.35	269.30
470.72	268.71
471.08	268.10
471.45	267.58
471.82	267.07
472.18	266.52
472.55	266.09
472.92	265.56
473.28	265.08
473.65	264.64
474.02	264.21
474.38	263.85
474.75	263.57
475.11	263.23
475.48	262.99
475.85	262.80
476.21	262.53
476.58	262.34
476.94	262.24
477.31	262.06
477.67	261.93
478.04	261.83
478.41	261.79
478.77	261.85
479.14	261.81
479.50	261.80
479.87	261.89
480.23	262.05
480.60	262.10
480.96	262.20
481.33	262.43
481.69	262.60
482.06	262.81
482.42	263.02
482.79	263.27
483.15	263.56
483.52	263.91
483.88	264.29
484.25	264.68
484.61	265.08
484.98	265.55
485.34	266.07
485.71	266.66
486.07	267.26
486.44	267.81
486.80	268.52
487.17	269.27
487.53	270.10
487.90	270.91
488.26	271.90
488.62	272.88
488.99	273.81
489.35	274.85
489.72	275.98
490.08	277.17
490.44	278.43
490.81	279.76
491.17	281.13
491.54	282.59
491.90	284.13
492.26	285.80
492.63	287.52
492.99	289.31
493.36	291.19
493.72	293.21
494.08	295.32
494.45	297.59
494.81	299.94
495.17	302.38
495.54	304.99
495.90	307.64
496.26	310.45
496.63	313.46
496.99	316.59
497.35	319.86
497.72	323.27
498.08	326.79
498.44	330.41
498.80	334.37
499.17	338.42
499.53	342.62
499.89	346.96
500.26	351.46
500.62	356.11
500.98	361.07
501.34	366.17
501.71	371.49
502.07	376.89
502.43	382.54
502.79	388.35
503.16	394.44
503.52	400.72
503.88	407.17
504.24	413.79
504.60	420.70
504.97	427.82
505.33	435.22
505.69	442.92
506.05	450.79
506.41	458.63
506.78	466.82
507.14	475.23
507.50	484.00
507.86	493.06
508.22	502.25
508.59	511.51
508.95	521.08
509.31	530.87
509.67	540.95
510.03	551.22
510.39	561.80
510.75	572.51
511.12	583.45
511.48	594.69
511.84	606.14
512.20	617.62
512.56	629.56
512.92	641.60
513.28	654.03
513.64	666.43
514.00	679.10
514.37	692.00
514.73	705.05
515.09	717.99
515.45	731.23
515.81	744.84
516.17	758.71
516.53	772.82
516.89	786.99
517.25	801.13
517.61	815.56
517.97	829.92
518.33	844.33
518.69	859.06
519.05	874.01
519.41	889.16
519.77	904.65
520.13	920.06
520.49	935.45
520.85	950.76
521.21	966.37
521.57	982.52
521.93	998.20
522.29	1014.51
522.65	1030.82
523.01	1046.94
523.37	1062.90
523.73	1079.04
524.09	1095.11
524.45	1111.26
524.81	1127.97
525.17	1144.55
525.53	1161.36
525.89	1178.20
526.25	1194.99
526.61	1211.25
526.97	1227.84
527.33	1244.24
527.68	1260.68
528.04	1277.07
528.40	1293.46
528.76	1310.45
529.12	1327.02
529.48	1343.83
529.84	1359.75
530.20	1376.13
530.56	1393.03
530.91	1410.24
531.27	1426.89
531.63	1443.19
531.99	1459.77
532.35	1475.47
532.71	1491.25
533.07	1507.42
533.42	1523.22
533.78	1539.07
534.14	1555.22
534.50	1570.38
534.86	1586.06
535.21	1601.09
535.57	1616.76
535.93	1632.06
536.29	1646.70
536.65	1661.47
537.00	1675.99
537.36	1691.14
537.72	1705.52
538.08	1719.72
538.44	1733.37
538.79	1746.99
539.15	1760.26
539.51	1773.68
539.87	1787.88
540.22	1801.46
540.58	1814.92
540.94	1827.75
541.29	1840.30
541.65	1852.66
542.01	1865.67
542.37	1877.79
542.72	1890.09
543.08	1901.71
543.44	1913.99
543.79	1925.11
544.15	1936.06
544.51	1947.56
544.87	1958.38
545.22	1969.14
545.58	1979.27
545.94	1988.93
546.29	1998.76
546.65	2008.65
547.01	2017.95
547.36	2026.59
547.72	2035.09
548.07	2043.06
548.43	2051.40
548.79	2059.45
549.14	2067.18
549.50	2074.51
549.86	2082.17
550.21	2089.42
550.57	2096.69
550.92	2103.32
551.28	2110.43
551.64	2117.45
551.99	2123.93
552.35	2130.10
552.70	2136.12
553.06	2142.19
553.41	2148.54
553.77	2154.70
554.13	2160.78
554.48	2166.87
554.84	2172.39
555.19	2177.53
555.55	2182.73
555.90	2187.21
556.26	2192.28
556.61	2196.89
556.97	2201.30
557.32	2205.47
557.68	2209.61
558.03	2213.82
558.39	2217.30
558.74	2221.92
559.10	2225.87
559.45	2229.39
559.81	2233.63
560.16	2237.57
560.52	2240.83
560.87	2244.29
561.23	2246.72
561.58	2249.55
561.94	2252.10
562.29	2254.27
562.64	2257.16
563.00	2259.64
563.35	2263.20
563.71	2266.25
564.06	2269.42
564.42	2272.33
564.77	2275.00
565.12	2277.51
565.48	2279.51
565.83	2281.60
566.19	2282.92
566.54	2283.62
566.89	2285.01
567.25	2285.76
567.60	2287.08
567.96	2288.77
568.31	2289.60
568.66	2290.87
569.02	2291.72
569.37	2292.05
569.72	2293.15
570.08	2293.30
570.43	2293.33
570.78	2292.82
571.14	2291.26
571.49	2290.12
571.84	2289.78
572.20	2288.63
572.55	2287.53
572.90	2285.85
573.26	2284.56
573.61	2282.68
573.96	2281.31
574.31	2278.42
574.67	2275.41
575.02	2271.73
575.37	2268.37
575.72	2264.76
576.08	2261.40
576.43	2257.91
576.78	2254.49
577.13	2251.12
577.49	2247.96
577.84	2244.61
578.19	2240.77
578.54	2237.34
578.90	2233.15
579.25	2227.64
579.60	2222.81
579.95	2217.88
580.30	2213.05
580.66	2207.93
581.01	2203.09
581.36	2198.12
581.71	2194.08
582.06	2189.87
582.42	2185.62
582.77	2180.43
583.12	2176.00
583.47	2171.54
583.82	2166.81
584.17	2161.57
584.53	2156.30
584.88	2150.70
585.23	2145.10
585.58	2139.86
585.93	2134.29
586.28	2129.37
586.63	2124.37
586.98	2119.32
587.34	2114.65
587.69	2109.67
588.04	2104.64
588.39	2099.17
588.74	2092.61
589.09	2086.57
589.44	2079.62
589.79	2073.56
590.14	2067.96
590.49	2061.25
590.84	2054.76
591.19	2048.76
591.54	2042.30
591.89	2035.12
592.25	2028.70
592.60	2021.54
592.95	2013.94
593.30	2006.66
593.65	1999.27
594.00	1992.29
594.35	1985.09
594.70	1977.00
595.05	1970.22
595.40	1962.89
595.75	1955.45
596.10	1949.51
596.45	1942.76
596.80	1936.87
597.15	1930.35
597.50	1923.58
597.85	1917.25
598.19	1910.72
598.54	1903.90
598.89	1897.37
599.24	1891.63
599.59	1885.15
599.94	1879.02
600.29	1872.85
600.64	1866.33
600.99	1859.08
601.34	1852.42
601.69	1845.42
602.04	1838.67
602.39	1831.28
602.74	1824.51
603.08	1817.89
603.43	1811.11
603.78	1803.86
604.13	1796.48
604.48	1789.36
604.83	1782.31
605.18	1775.53
605.53	1767.62
605.87	1759.57
606.22	1752.25
606.57	1744.14
606.92	1736.37
607.27	1729.09
607.62	1722.29
607.96	1715.20
608.31	1708.67
608.66	1701.01
609.01	1693.63
609.36	1686.17
609.70	1678.01
610.05	1670.06
610.40	1662.37
610.75	1654.14
611.10	1646.44
611.44	1638.03
611.79	1629.86
612.14	1621.22
612.49	1611.95
612.83	1603.49
613.18	1595.38
613.53	1587.31
613.88	1578.80
614.22	1570.72
614.57	1562.08
614.92	1553.96
615.27	1546.51
615.61	1538.14
615.96	1530.08
616.31	1522.46
616.65	1515.13
617.00	1507.73
617.35	1499.92
617.70	1491.69
618.04	1483.19
618.39	1474.96
618.74	1467.47
619.08	1459.20
619.43	1451.70
619.78	1444.86
620.12	1437.80
620.47	1430.31
620.82	1422.18
621.16	1414.72
621.51	1406.97
621.85	1399.39
622.20	1390.88
622.55	1382.42
622.89	1374.60
623.24	1367.02
623.59	1359.45
623.93	1351.92
624.28	1344.56
624.62	1337.14
624.97	1329.86
625.32	1323.04
625.66	1316.01
626.01	1308.86
626.35	1301.66
626.70	1293.91
627.04	1286.20
627.39	1278.39
627.73	1270.89
628.08	1263.97
628.43	1256.82
628.77	1249.60
629.12	1242.10
629.46	1234.99
629.81	1227.46
630.15	1220.22
630.50	1212.86
630.84	1204.77
631.19	1196.68
631.53	1189.25
631.88	1181.66
632.22	1174.04
632.57	1166.68
632.91	1159.15
633.26	1151.76
633.60	1144.29
633.95	1137.09
634.29	1129.95
634.64	1123.22
634.98	1115.97
635.32	1108.90
635.67	1102.23
636.01	1095.59
636.36	1088.85
636.70	1082.28
637.05	1075.83
637.39	1069.43
637.73	1062.98
638.08	1057.12
638.42	1051.32
638.77	1044.93
639.11	1038.41
639.45	1032.09
639.80	1025.44
640.14	1019.13
640.49	1012.59
640.83	1006.31
641.17	1000.23
641.52	993.91
641.86	987.40
642.20	981.43
642.55	975.00
642.89	968.56
643.23	961.99
643.58	956.12
643.92	950.02
644.26	944.06
644.61	937.94
644.95	931.91
645.29	925.38
645.64	918.66
645.98	912.27
646.32	906.37
646.66	900.39
647.01	894.67
647.35	888.96
647.69	883.15
648.04	877.56
648.38	871.69
648.72	865.84
649.06	859.85
649.41	853.94
649.75	848.12
650.09	842.20
650.43	836.46
650.78	830.34
651.12	824.33
651.46	818.52
651.80	812.88
652.14	807.47
652.49	802.07
652.83	796.86
653.17	791.23
653.51	785.55
653.85	780.01
654.20	774.45
654.54	768.37
654.88	762.54
655.22	756.67
655.56	751.00
655.90	745.38
656.25	740.18
656.59	734.94
656.93	729.77
657.27	724.61
657.61	719.19
657.95	714.11
658.29	709.03
658.64	703.72
658.98	698.29
659.32	692.79
659.66	687.59
660.00	682.32
660.34	677.31
660.68	672.32
661.02	667.34
661.36	662.57
661.70	658.10
662.05	653.82
662.39	649.53
662.73	645.06
663.07	640.73
663.41	636.27
663.75	631.70
664.09	627.21
664.43	622.78
664.77	618.62
665.11	614.40
665.45	610.17
665.79	606.10
666.13	601.99
666.47	597.81
666.81	593.71
667.15	589.55
667.49	585.70
667.83	581.91
668.17	577.98
668.51	573.92
668.85	569.87
669.19	565.96
669.53	562.08
669.87	558.23
670.21	554.58
670.55	550.95
670.89	547.52
671.23	544.03
671.57	540.50
671.91	536.97
672.25	533.42
672.58	529.97
672.92	526.62
673.26	523.43
673.60	520.36
673.94	517.18
674.28	514.17
674.62	511.20
674.96	508.11
675.30	505.21
675.64	502.33
675.97	499.56
676.31	496.68
676.65	493.73
676.99	491.01
677.33	488.10
677.67	485.28
678.01	482.26
678.34	479.29
678.68	476.47
679.02	473.70
679.36	470.96
679.70	468.21
680.04	465.39
680.37	462.57
680.71	459.76
681.05	457.18
681.39	454.53
681.73	451.87
682.06	449.40
682.40	446.83
682.74	444.28
683.08	441.70
683.42	439.14
683.75	436.68
684.09	434.12
684.43	431.66
684.77	429.22
685.10	426.88
685.44	424.57
685.78	422.22
686.12	419.93
686.45	417.66
686.79	415.40
687.13	413.21
687.46	411.05
687.80	408.90
688.14	406.65
688.48	404.62
688.81	402.39
689.15	400.17
689.49	398.00
689.82	395.89
690.16	393.79
690.50	391.81
690.83	389.88
691.17	387.84
691.51	385.96
691.84	384.09
692.18	382.19
692.52	380.25
692.85	378.33
693.19	376.50
693.52	374.65
693.86	372.79
694.20	371.05
694.53	369.22
694.87	367.37
695.21	365.58
695.54	363.72
695.88	362.02
696.21	360.31
696.55	358.67
696.88	357.01
697.22	355.35
697.56	353.74
697.89	352.09
698.23	350.58
698.56	348.96
698.90	347.42
699.23	345.75
699.57	344.20
699.90	342.63
700.24	341.06
700.58	339.55
700.91	338.10
701.25	336.62
701.58	335.29
701.92	333.92
702.25	332.53
702.59	331.15
702.92	329.82
703.26	328.48
703.59	327.17
703.93	325.99
704.26	324.74
704.60	323.45
704.93	322.17
705.26	320.88
705.60	319.64
705.93	318.42
706.27	317.39
706.60	316.30
706.94	315.23
707.27	314.08
707.61	312.99
707.94	311.93
708.27	310.85
708.61	309.72
708.94	308.71
709.28	307.75
709.61	306.80
709.94	305.81
710.28	304.79
710.61	303.82
710.95	302.69
711.28	301.80
711.61	300.82
711.95	299.94
712.28	299.00
712.61	298.04
712.95	297.11
713.28	296.21
713.61	295.30
713.95	294.43
714.28	293.58
714.61	292.72
714.95	291.90
715.28	291.03
715.61	290.19
715.95	289.33
716.28	288.43
716.61	287.57
716.95	286.76
717.28	286.00
717.61	285.24
717.94	284.55
718.28	283.74
718.61	283.02
718.94	282.32
719.27	281.68
719.61	281.02
719.94	280.38
720.27	279.61
720.60	278.96
720.94	278.32
721.27	277.72
721.60	277.16
721.93	276.58
722.27	276.03
722.60	275.50
722.93	274.98
723.26	274.47
723.59	273.93
723.93	273.37
724.26	272.87
724.59	272.30
724.92	271.74
725.25	271.26
725.59	270.73
725.92	270.22
726.25	269.69
726.58	269.20
726.91	268.69
727.24	268.26
727.57	267.81
727.91	267.29
728.24	266.84
728.57	266.33
728.90	265.85
729.23	265.36
729.56	264.90
729.89	264.42
730.22	263.96
730.55	263.52
730.89	263.08
731.22	262.64
731.55	262.21
731.88	261.80
732.21	261.33
732.54	260.94
732.87	260.52
733.20	260.10
733.53	259.73
733.86	259.36
734.19	258.96
734.52	258.58
734.85	258.30
735.18	257.87
735.51	257.51
735.84	257.12
736.17	256.78
736.50	256.37
736.83	256.12
737.16	255.73
737.49	255.37
737.82	255.01
738.15	254.68
738.48	254.33
738.81	253.99
739.14	253.64
739.47	253.31
739.80	252.97
740.13	252.68
740.46	252.36
740.79	252.06
741.12	251.76
741.45	251.41
741.78	251.07
742.11	250.82
742.44	250.49
742.77	250.22
743.10	249.89
743.43	249.61
743.75	249.25
744.08	249.12
744.41	248.86
744.74	248.61
745.07	248.31
745.40	248.10
745.73	247.91
746.06	247.68
746.39	247.38
746.71	247.14
747.04	246.88
747.37	246.61
747.70	246.34
748.03	246.10
748.36	245.88
748.68	245.62
749.01	245.37
749.34	245.15
749.67	244.92
750.00	244.72
750.33	244.56
750.65	244.33
750.98	244.00
751.31	243.79
751.64	243.56
751.97	243.40
752.29	243.13
752.62	242.82
752.95	242.62
753.28	242.42
753.60	242.20
753.93	242.02
754.26	241.82
754.59	241.60
754.91	241.39
755.24	241.20
755.57	241.03
755.90	240.83
756.22	240.62
756.55	240.44
756.88	240.21
757.20	239.98
757.53	239.78
757.86	239.62
758.19	239.43
758.51	239.28
758.84	239.05
759.17	238.86
759.49	238.75
759.82	238.62
760.15	238.46
760.47	238.29
760.80	238.12
761.13	238.00
761.45	237.85
761.78	237.71
762.11	237.56
762.43	237.42
762.76	237.27
763.08	237.18
763.41	237.02
763.74	236.91
764.06	236.75
764.39	236.62
764.71	236.49
765.04	236.37
765.37	236.26
765.69	236.11
766.02	236.04
766.34	235.87
766.67	235.73
767.00	235.67
767.32	235.61
767.65	235.54
767.97	235.43
768.30	235.34
768.62	235.24
768.95	235.12
769.27	234.95
769.60	234.86
769.92	234.70
770.25	234.60
770.57	234.51
770.90	234.39
771.22	234.29
771.55	234.19
771.87	234.09
772.20	233.98
772.52	233.99
772.85	234.02
773.17	233.91
773.50	233.79
773.82	233.68
774.15	233.56
774.47	233.43
774.80	233.32
775.12	233.22
775.45	233.11
775.77	233.04
776.09	232.97
776.42	232.89
776.74	232.88
777.07	232.76
777.39	232.67
777.72	232.59
778.04	232.52
778.36	232.46
778.69	232.39
779.01	232.31
779.33	232.13
779.66	231.90
779.98	231.85
780.31	231.78
780.63	231.70
780.95	231.65
781.28	231.53
781.60	231.46
781.92	231.40
782.25	231.33
782.57	231.26
782.89	231.19
783.22	231.13
783.54	231.03
783.86	231.00
784.19	230.93
784.51	230.92
784.83	230.88
785.16	230.77
785.48	230.73
785.80	230.67
786.12	230.65
786.45	230.60
786.77	230.58
787.09	230.54
787.42	230.49
787.74	230.44
788.06	230.42
788.38	230.38
788.71	230.33
789.03	230.28
789.35	230.27
789.67	230.23
789.99	230.19
790.32	230.12
790.64	230.08
790.96	230.13
791.28	230.05
791.61	229.94
791.93	229.94
792.25	229.87
792.57	229.88
792.89	229.78
793.21	229.77
793.54	229.73
793.86	229.69
794.18	229.64
794.50	229.57
794.82	229.54
795.14	229.53
795.47	229.51
795.79	229.50
796.11	229.39
796.43	229.36
796.75	229.29
797.07	229.28
797.39	229.23
797.71	229.12
798.04	229.09
798.36	229.09
798.68	229.05
799.00	229.04
799.32	229.00
799.64	229.03
799.96	229.01
800.28	228.96
800.60	228.87
800.92	228.87
801.24	228.82
801.56	228.79
801.89	228.73
802.21	228.70
802.53	228.63
802.85	228.69
803.17	228.68
803.49	228.65
803.81	228.61
804.13	228.62
804.45	228.60
804.77	228.58
805.09	228.58
805.41	228.57
805.73	228.51
806.05	228.47
806.37	228.43
806.69	228.41
807.01	228.41
807.33	228.40
807.65	228.39
807.97	228.47
808.28	228.44
808.60	228.42
808.92	228.39
809.24	228.44
809.56	228.35
809.88	228.30
810.20	228.29
810.52	228.31
810.84	228.27
811.16	228.24
811.48	228.22
811.80	228.22
812.12	228.16
812.43	228.16
812.75	228.16
813.07	228.13
813.39	228.10
813.71	228.08
814.03	228.07
814.35	228.04
814.67	227.97
814.98	227.93
815.30	227.90
815.62	227.85
815.94	227.78
816.26	227.86
816.58	227.86
816.89	227.82
817.21	227.76
817.53	227.76
817.85	227.74
818.17	227.73
818.48	227.69
818.80	227.73
819.12	227.70
819.44	227.67
819.76	227.65
820.07	227.67
820.39	227.63
820.71	227.63
821.03	227.59
821.34	227.60
821.66	227.60
821.98	227.61
822.30	227.61
822.61	227.67
822.93	227.58
823.25	227.57
823.57	227.58
823.88	227.61
824.20	227.60
824.52	227.59
824.83	227.55
825.15	227.50
825.47	227.45
825.79	227.45
826.10	227.41
826.42	227.38
826.74	227.34
827.05	227.30
827.37	227.29
827.69	227.24
828.00	227.17
828.32	227.15
828.64	227.11
828.95	227.12
829.27	227.07
829.58	227.08
829.90	227.07
830.22	227.05
830.53	226.97
830.85	226.95
831.17	226.89
831.48	226.89
831.80	226.88
832.11	226.88
832.43	226.84
832.75	226.82
833.06	226.87
833.38	226.82
833.69	226.82
834.01	226.83
834.32	226.84
834.64	226.84
834.96	226.80
835.27	226.80
835.59	226.74
835.90	226.67
836.22	226.66
836.53	226.62
836.85	226.62
837.16	226.72
837.48	226.67
837.79	226.73
838.11	226.70
838.42	226.71
838.74	226.72
839.05	226.69
839.37	226.69
839.68	226.63
840.00	226.61
840.31	226.61
840.63	226.59
840.94	226.58
841.26	226.58
841.57	226.58
841.88	226.58
842.20	226.57
842.51	226.57
842.83	226.55
843.14	226.64
843.46	226.60
843.77	226.57
844.08	226.57
844.40	226.53
844.71	226.52
845.03	226.53
845.34	226.50
845.65	226.52
845.97	226.52
846.28	226.54
846.60	226.56
846.91	226.56
847.22	226.57
847.54	226.61
847.85	226.61
848.16	226.57
848.48	226.56
848.79	226.62
849.10	226.63
849.42	226.66
849.73	226.58
850.04	226.59
850.36	226.55
850.67	226.60
850.98	226.58
851.30	226.61
851.61	226.60
851.92	226.60
852.23	226.64
852.55	226.67
852.86	226.68
853.17	226.67
853.49	226.70
853.80	226.68
854.11	226.70
854.42	226.73
854.74	226.75
855.05	226.77
855.36	226.73
855.67	226.74
855.99	226.74
856.30	226.83
856.61	226.82
856.92	226.85
857.23	226.85
857.55	226.85
857.86	226.84
858.17	226.86
858.48	226.84
858.79	226.82
859.11	226.83
859.42	226.82
859.73	226.79
860.04	226.76
860.35	226.77
860.66	226.69
860.98	226.67
861.29	226.68
861.60	226.66
861.91	226.69
862.22	226.70
862.53	226.67
862.84	226.58
863.16	226.61
863.47	226.58
863.78	226.54
864.09	226.49
864.40	226.48
864.71	226.49
865.02	226.51
865.33	226.48
865.64	226.43
865.95	226.43
866.27	226.51
866.58	226.49
866.89	226.49
867.20	226.52
867.51	226.48
867.82	226.46
868.13	226.46
868.44	226.44
868.75	226.41
869.06	226.39
869.37	226.37
869.68	226.31
869.99	226.32
870.30	226.31
870.61	226.33
870.92	226.32
871.23	226.27
871.54	226.27
871.85	226.27
872.16	226.32
872.47	226.26
872.78	226.19
873.09	226.19
873.40	226.15
873.71	226.13
874.02	226.11
874.33	226.10
874.64	226.06
874.95	226.03
875.26	226.03
875.56	226.06
875.87	226.05
876.18	226.06
876.49	226.14
876.80	226.14
877.11	226.12
877.42	226.12
877.73	226.13
878.04	226.10
878.35	226.12
878.66	226.08
878.96	226.10
879.27	226.07
879.58	226.08
879.89	226.08
880.20	226.13
880.51	226.18
880.82	226.18
881.12	226.19
881.43	226.18
881.74	226.17
882.05	226.12
882.36	226.16
882.67	226.17
882.97	226.06
883.28	226.07
883.59	226.13
883.90	226.16
884.21	226.15
884.51	226.15
884.82	226.13
885.13	226.12
885.44	226.12
885.74	226.13
886.05	226.14
886.36	226.18
886.67	226.13
886.98	226.17
887.28	226.20
887.59	226.24
887.90	226.25
888.20	226.25
888.51	226.32
888.82	226.28
889.13	226.29
889.43	226.35
889.74	226.33
890.05	226.28
890.35	226.22
890.66	226.20
890.97	226.22
891.28	226.21
891.58	226.21
891.89	226.20
892.20	226.19
892.50	226.17
892.81	226.13
893.12	226.14
893.42	226.09
893.73	226.08
894.04	226.06
894.34	226.05
894.65	226.02
894.95	225.97
895.26	225.98
895.57	226.01
895.87	225.92
896.18	225.93
896.48	225.96
896.79	225.98
897.10	226.02
897.40	226.03
897.71	226.01
898.01	226.01
898.32	226.01
898.63	226.01
898.93	226.03
899.24	226.03
899.54	226.01
899.85	226.02
900.15	225.98
900.46	225.98
900.76	225.99
901.07	225.99
901.38	226.00
901.68	226.01
901.99	225.94
902.29	225.93
902.60	225.91
902.90	225.87
903.21	225.87
903.51	225.82
903.82	225.82
904.12	225.83
904.43	225.82
904.73	225.81
905.03	225.82
905.34	225.90
905.64	225.90
905.95	225.90
906.25	225.89
906.56	225.93
906.86	225.92
907.17	225.91
907.47	225.91
907.77	225.89
908.08	225.85
908.38	225.85
908.69	225.87
908.99	225.88
909.30	225.89
909.60	225.87
909.90	225.87
910.21	225.81
910.51	225.78
910.81	225.77
911.12	225.76
911.42	225.76
911.73	225.61
912.03	225.60
912.33	225.61
912.64	225.57
912.94	225.52
913.24	225.50
913.55	225.48
913.85	225.48
914.15	225.47
914.46	225.50
914.76	225.52
915.06	225.50
915.37	225.47
915.67	225.48
915.97	225.49
916.27	225.50
916.58	225.50
916.88	225.53
917.18	225.52
917.49	225.62
917.79	225.64
918.09	225.71
918.39	225.75
918.70	225.76
919.00	225.79
919.30	225.82
919.60	225.81
919.91	225.79
920.21	225.81
920.51	225.82
920.81	225.81
921.12	225.85
921.42	225.88
921.72	225.91
922.02	225.88
922.32	225.90
922.63	225.89
922.93	225.98
923.23	226.01
923.53	226.04
923.83	225.98
924.13	225.95
924.44	225.96
924.74	225.94
925.04	225.98
925.34	225.98
925.64	225.97
925.94	225.98
926.24	226.08
926.55	226.07
926.85	226.10
927.15	226.12
927.45	226.11
927.75	226.11
928.05	226.10
928.35	226.12
928.65	226.15
928.95	226.17
929.26	226.11
929.56	226.11
929.86	226.11
930.16	226.11
930.46	226.11
930.76	226.11
931.06	226.10
931.36	226.07
931.66	226.09
931.96	226.12
932.26	226.12
932.56	226.06
932.86	226.07
933.16	226.05
933.46	226.04
933.76	225.99
934.06	226.01
934.36	226.04
934.66	226.01
934.96	226.00
935.26	225.99
935.56	225.99
935.86	226.00
936.16	225.99
936.46	225.99
936.76	225.98
937.06	225.96
937.36	225.94
937.66	225.92
937.96	225.91
938.26	225.87
938.56	225.87
938.86	225.87
939.16	225.87
939.46	225.87
939.76	225.82
940.06	225.87
940.35	225.83
940.65	225.80
940.95	225.82
941.25	225.82
941.55	225.80
941.85	225.77
942.15	225.76
942.45	225.79
942.75	225.77
943.04	225.79
943.34	225.78
943.64	225.81
943.94	225.79
944.24	225.77
944.54	225.78
944.84	225.77
945.13	225.74
945.43	225.75
945.73	225.74
946.03	225.77
946.33	225.74
946.62	225.77
946.92	225.74
947.22	225.74
947.52	225.72
947.82	225.75
948.11	225.75
948.41	225.72
948.71	225.66
949.01	225.67
949.31	225.62
949.60	225.61
949.90	225.59
950.20	225.59
950.50	225.58
950.79	225.59
951.09	225.63
951.39	225.63
951.69	225.60
951.98	225.64
952.28	225.62
952.58	225.64
952.87	225.62
953.17	225.63
953.47	225.63
953.76	225.63
954.06	225.61
954.36	225.63
954.66	225.66
954.95	225.70
955.25	225.69
955.55	225.72
955.84	225.74
956.14	225.78
956.44	225.80
956.73	225.79
957.03	225.80
957.32	225.77
957.62	225.77
957.92	225.79
958.21	225.80
958.51	225.92
958.81	225.92
959.10	225.93
959.40	225.99
959.69	225.98
959.99	226.03
960.29	226.04
960.58	226.02
960.88	226.06
961.17	226.08
961.47	226.12
961.76	226.10
962.06	226.09
962.36	226.06
962.65	226.09
962.95	226.12
963.24	226.09
963.54	226.12
963.83	226.12
964.13	226.13
964.42	226.07
964.72	226.01
965.01	226.02
965.31	226.04
965.60	226.02
965.90	226.10
966.19	226.03
966.49	226.07
966.78	226.09
967.08	226.06
967.37	226.06
967.67	226.06
967.96	226.11
968.26	226.11
968.55	226.13
968.85	226.10
969.14	226.10
969.43	226.13
969.73	226.11
970.02	226.12
970.32	226.11
970.61	226.11
970.91	226.07
971.20	226.06
971.49	226.01
971.79	226.01
972.08	225.94
972.38	225.98
972.67	225.93
972.96	225.91
973.26	225.89
973.55	225.88
973.85	225.85
974.14	225.82
974.43	225.83
974.73	225.82
975.02	225.81
975.31	225.79
975.61	225.76
975.90	225.76
976.19	225.78
976.49	225.77
976.78	225.76
977.07	225.78
977.37	225.75
977.66	225.76
977.95	225.71
978.24	225.71
978.54	225.72
978.83	225.73
979.12	225.70
979.42	225.71
979.71	225.71
980.00	225.69
980.29	225.69
980.59	225.67
980.88	225.71
981.17	225.72
981.46	225.70
981.76	225.71
982.05	225.74
982.34	225.71
982.63	225.70
982.93	225.74
983.22	225.75
983.51	225.76
983.80	225.77
984.09	225.80
984.39	225.80
984.68	225.79
984.97	225.80
985.26	225.81
985.55	225.76
985.85	225.76
986.14	225.78
986.43	225.79
986.72	225.77
987.01	225.72
987.30	225.72
987.59	225.74
987.89	225.73
988.18	225.72
988.47	225.72
988.76	225.71
989.05	225.67
989.34	225.69
989.63	225.72
989.92	225.70
990.22	225.68
990.51	225.69
990.80	225.65
991.09	225.65
991.38	225.68
991.67	225.72
991.96	225.69
992.25	225.70
992.54	225.66
992.83	225.66
993.12	225.67
993.41	225.68
993.70	225.70
993.99	225.74
994.28	225.72
994.58	225.74
994.87	225.76
995.16	225.79
995.45	225.73
995.74	225.69
996.03	225.70
996.32	225.72
996.61	225.70
996.90	225.70
997.19	225.70
997.48	225.70
997.77	225.69
998.06	225.72
998.34	225.70
998.63	225.70
998.92	225.72
999.21	225.72
999.50	225.72
999.79	225.70
1000.08	225.66
1000.37	225.68
1000.66	225.65
1000.95	225.66
1001.24	225.63
1001.53	225.66
1001.82	225.65
1002.11	225.62
1002.40	225.64
1002.68	225.69
1002.97	225.76
1003.26	225.77
1003.55	225.77
1003.84	225.77
1004.13	225.79
1004.42	225.79
1004.71	225.82
1004.99	225.81
1005.28	225.84
1005.57	225.83
1005.86	225.80
1006.15	225.79
1006.44	225.78
1006.72	225.77
1007.01	225.74
1007.30	225.75
1007.59	225.72
1007.88	225.75
1008.17	225.75
1008.45	225.74
1008.74	225.66
1009.03	225.60
1009.32	225.60
1009.60	225.57
1009.89	225.56
1010.18	225.51
1010.47	225.50
1010.76	225.48
1011.04	225.46
1011.33	225.49
1011.62	225.48
1011.91	225.51
1012.19	225.52
1012.48	225.52
1012.77	225.56
1013.05	225.61
1013.34	225.61
1013.63	225.60
1013.92	225.61
1014.20	225.60
1014.49	225.58
1014.78	225.61
1015.06	225.58
1015.35	225.57
1015.64	225.62
1015.92	225.64
1016.21	225.64
1016.50	225.64
1016.78	225.67
1017.07	225.72
1017.36	225.67
1017.64	225.66
1017.93	225.68
1018.22	225.70
1018.50	225.67
1018.79	225.64
1019.08	225.62
1019.36	225.63
1019.65	225.66
1019.93	225.67
1020.22	225.72
1020.51	225.78
1020.79	225.77
1021.08	226.02
1021.36	225.08
1021.65	225.67
1021.94	225.86
1022.22	225.63
1022.51	225.69
1022.79	226.26
1023.08	225.97
1023.36	226.83
1023.65	225.29
>>>>>End Processed Spectral Data<<<<<
