SpectraSuite Data File
++++++++++++++++++++++++++++++++++++
Date: Fri Feb 01 14:51:49 EST 2013
User: group
Dark Spectrum Present: No
Reference Spectrum Present: No
Number of Sampled Component Spectra: 1
Spectrometers: USB2E7196
Integration Time (usec): 35000 (USB2E7196)
Spectra Averaged: 100 (USB2E7196)
Boxcar Smoothing: 10 (USB2E7196)
Correct for Electrical Dark: No (USB2E7196)
Strobe/Lamp Enabled: No (USB2E7196)
Correct for Detector Non-linearity: No (USB2E7196)
Correct for Stray Light: No (USB2E7196)
Number of Pixels in Processed Spectrum: 2048
>>>>>Begin Processed Spectral Data<<<<<
339.09	0.00
339.48	215.94
339.86	217.10
340.24	218.87
340.63	219.74
341.01	222.54
341.39	223.18
341.78	224.03
342.16	224.96
342.54	225.72
342.93	213.90
343.31	224.72
343.69	225.25
344.07	225.72
344.46	226.12
344.84	226.51
345.22	226.71
345.60	226.90
345.99	227.06
346.37	227.17
346.75	227.27
347.13	227.31
347.52	227.35
347.90	227.40
348.28	227.44
348.66	227.49
349.05	227.50
349.43	227.54
349.81	227.58
350.19	227.63
350.57	227.69
350.96	227.76
351.34	227.81
351.72	227.86
352.10	227.94
352.48	228.00
352.87	228.04
353.25	228.11
353.63	228.17
354.01	228.25
354.39	228.34
354.77	228.41
355.15	228.52
355.54	228.58
355.92	228.66
356.30	228.72
356.68	228.84
357.06	228.89
357.44	228.94
357.82	228.99
358.20	229.05
358.58	229.13
358.97	229.22
359.35	229.33
359.73	229.44
360.11	229.49
360.49	229.53
360.87	229.57
361.25	229.64
361.63	229.74
362.01	229.77
362.39	229.77
362.77	229.81
363.15	229.83
363.53	229.87
363.91	229.90
364.29	229.92
364.67	229.84
365.05	229.86
365.43	229.86
365.81	229.88
366.19	229.91
366.57	229.96
366.95	229.91
367.33	229.83
367.71	229.78
368.09	229.82
368.47	229.80
368.85	229.77
369.23	229.75
369.61	229.68
369.99	229.69
370.37	229.66
370.75	229.66
371.13	229.61
371.51	229.55
371.89	229.48
372.27	229.44
372.65	229.39
373.03	229.36
373.41	229.31
373.78	229.25
374.16	229.12
374.54	228.99
374.92	228.91
375.30	228.85
375.68	228.77
376.06	228.66
376.44	228.60
376.82	228.56
377.19	228.50
377.57	228.43
377.95	228.32
378.33	228.26
378.71	228.13
379.09	228.05
379.47	227.98
379.84	227.88
380.22	227.79
380.60	227.67
380.98	227.55
381.36	227.45
381.73	227.37
382.11	227.32
382.49	227.27
382.87	227.18
383.25	227.12
383.62	227.18
384.00	227.11
384.38	227.05
384.76	227.00
385.13	226.97
385.51	226.92
385.89	226.84
386.27	226.80
386.64	226.74
387.02	226.68
387.40	226.60
387.78	226.58
388.15	226.56
388.53	226.53
388.91	226.51
389.29	226.49
389.66	226.50
390.04	226.48
390.42	226.47
390.79	226.47
391.17	226.46
391.55	226.32
391.92	226.30
392.30	226.31
392.68	226.27
393.05	226.27
393.43	226.25
393.81	226.25
394.18	226.25
394.56	226.30
394.94	226.36
395.31	226.41
395.69	226.48
396.06	226.53
396.44	226.60
396.82	226.65
397.19	226.76
397.57	226.78
397.95	226.85
398.32	226.88
398.70	226.97
399.07	227.04
399.45	227.14
399.82	227.24
400.20	227.29
400.58	227.39
400.95	227.44
401.33	227.60
401.70	227.79
402.08	227.92
402.45	228.00
402.83	228.14
403.20	228.25
403.58	228.37
403.95	228.50
404.33	228.63
404.71	228.79
405.08	228.99
405.46	229.16
405.83	229.31
406.21	229.50
406.58	229.68
406.96	229.85
407.33	230.04
407.70	230.24
408.08	230.53
408.45	230.77
408.83	231.04
409.20	231.25
409.58	231.43
409.95	231.69
410.33	232.03
410.70	232.30
411.08	232.66
411.45	232.99
411.82	233.31
412.20	233.72
412.57	234.13
412.95	234.41
413.32	234.83
413.69	235.24
414.07	235.67
414.44	236.14
414.82	236.67
415.19	237.23
415.56	237.78
415.94	238.31
416.31	238.94
416.68	239.55
417.06	240.26
417.43	240.96
417.81	241.73
418.18	242.48
418.55	243.33
418.93	244.14
419.30	244.99
419.67	245.94
420.04	246.88
420.42	247.86
420.79	249.07
421.16	250.21
421.54	251.41
421.91	252.65
422.28	253.85
422.66	255.17
423.03	256.44
423.40	257.78
423.77	259.19
424.15	260.63
424.52	262.09
424.89	263.69
425.26	265.19
425.64	266.61
426.01	268.20
426.38	269.85
426.75	271.51
427.13	273.20
427.50	274.97
427.87	276.85
428.24	278.73
428.61	280.42
428.99	282.35
429.36	284.40
429.73	286.43
430.10	288.50
430.47	290.56
430.85	292.70
431.22	294.93
431.59	297.30
431.96	299.58
432.33	302.08
432.70	304.44
433.08	307.28
433.45	309.93
433.82	312.51
434.19	315.41
434.56	318.19
434.93	320.85
435.30	323.47
435.68	326.34
436.05	329.12
436.42	331.92
436.79	334.42
437.16	337.17
437.53	340.05
437.90	342.83
438.27	345.58
438.64	348.37
439.01	350.96
439.38	353.18
439.75	355.31
440.13	357.77
440.50	360.12
440.87	361.93
441.24	363.88
441.61	366.02
441.98	367.50
442.35	369.32
442.72	371.19
443.09	372.95
443.46	373.96
443.83	374.54
444.20	375.03
444.57	375.88
444.94	376.14
445.31	376.46
445.68	376.80
446.05	376.87
446.42	376.50
446.79	376.10
447.16	375.67
447.53	375.36
447.90	374.18
448.27	373.04
448.64	371.50
449.01	370.33
449.37	368.37
449.74	366.40
450.11	364.17
450.48	361.73
450.85	359.24
451.22	357.07
451.59	355.09
451.96	353.16
452.33	350.57
452.70	348.25
453.07	345.38
453.43	342.53
453.80	339.76
454.17	337.12
454.54	334.54
454.91	331.81
455.28	329.12
455.65	326.68
456.02	324.24
456.38	322.12
456.75	319.49
457.12	317.29
457.49	315.07
457.86	312.92
458.23	311.07
458.59	309.05
458.96	307.00
459.33	305.12
459.70	303.28
460.07	301.79
460.43	300.04
460.80	298.44
461.17	296.95
461.54	295.46
461.91	294.01
462.27	292.56
462.64	291.31
463.01	289.97
463.38	288.69
463.74	287.28
464.11	286.09
464.48	285.05
464.85	283.95
465.21	283.09
465.58	282.17
465.95	281.05
466.32	280.13
466.68	279.20
467.05	278.33
467.42	277.43
467.78	276.48
468.15	275.60
468.52	274.92
468.88	274.08
469.25	273.30
469.62	272.68
469.98	272.02
470.35	271.35
470.72	270.72
471.08	270.04
471.45	269.50
471.82	268.93
472.18	268.31
472.55	267.82
472.92	267.32
473.28	266.82
473.65	266.38
474.02	265.94
474.38	265.59
474.75	265.23
475.11	264.85
475.48	264.56
475.85	264.34
476.21	264.08
476.58	263.89
476.94	263.73
477.31	263.52
477.67	263.33
478.04	263.19
478.41	263.11
478.77	263.14
479.14	263.06
479.50	263.05
479.87	263.10
480.23	263.19
480.60	263.22
480.96	263.28
481.33	263.46
481.69	263.61
482.06	263.76
482.42	263.92
482.79	264.13
483.15	264.42
483.52	264.75
483.88	265.09
484.25	265.47
484.61	265.89
484.98	266.33
485.34	266.93
485.71	267.51
486.07	268.11
486.44	268.63
486.80	269.36
487.17	270.05
487.53	270.86
487.90	271.67
488.26	272.59
488.62	273.59
488.99	274.57
489.35	275.63
489.72	276.74
490.08	277.96
490.44	279.20
490.81	280.52
491.17	281.84
491.54	283.34
491.90	284.85
492.26	286.48
492.63	288.22
492.99	289.98
493.36	291.89
493.72	293.89
494.08	295.99
494.45	298.22
494.81	300.58
495.17	303.01
495.54	305.58
495.90	308.23
496.26	311.02
496.63	313.93
496.99	317.00
497.35	320.20
497.72	323.58
498.08	327.10
498.44	330.77
498.80	334.70
499.17	338.68
499.53	342.80
499.89	347.13
500.26	351.60
500.62	356.22
500.98	361.11
501.34	366.21
501.71	371.50
502.07	376.93
502.43	382.55
502.79	388.30
503.16	394.37
503.52	400.66
503.88	406.94
504.24	413.53
504.60	420.39
504.97	427.53
505.33	434.81
505.69	442.48
506.05	450.18
506.41	457.97
506.78	466.12
507.14	474.55
507.50	483.22
507.86	492.13
508.22	501.26
508.59	510.44
508.95	519.98
509.31	529.78
509.67	539.81
510.03	549.99
510.39	560.55
510.75	571.28
511.12	582.10
511.48	593.42
511.84	604.82
512.20	616.27
512.56	628.11
512.92	640.32
513.28	652.58
513.64	665.11
514.00	677.76
514.37	690.59
514.73	703.62
515.09	716.60
515.45	729.95
515.81	743.54
516.17	757.45
516.53	771.54
516.89	785.70
517.25	799.84
517.61	814.31
517.97	828.72
518.33	843.20
518.69	857.96
519.05	872.95
519.41	888.17
519.77	903.73
520.13	919.22
520.49	934.58
520.85	949.98
521.21	965.67
521.57	982.03
521.93	997.88
522.29	1014.31
522.65	1030.62
523.01	1046.84
523.37	1062.96
523.73	1079.30
524.09	1095.51
524.45	1111.79
524.81	1128.45
525.17	1145.42
525.53	1162.43
525.89	1179.29
526.25	1196.20
526.61	1212.73
526.97	1229.53
527.33	1246.10
527.68	1262.76
528.04	1279.36
528.40	1296.15
528.76	1313.26
529.12	1329.86
529.48	1346.81
529.84	1362.88
530.20	1379.56
530.56	1396.67
530.91	1414.06
531.27	1430.88
531.63	1447.34
531.99	1463.95
532.35	1480.03
532.71	1495.78
533.07	1512.04
533.42	1528.12
533.78	1544.22
534.14	1560.40
534.50	1575.68
534.86	1591.72
535.21	1606.98
535.57	1622.95
535.93	1638.42
536.29	1653.31
536.65	1668.56
537.00	1683.46
537.36	1698.86
537.72	1713.43
538.08	1727.83
538.44	1741.77
538.79	1755.62
539.15	1769.36
539.51	1783.34
539.87	1797.90
540.22	1811.78
540.58	1825.64
540.94	1839.02
541.29	1852.07
541.65	1865.03
542.01	1878.50
542.37	1890.74
542.72	1903.33
543.08	1915.20
543.44	1927.56
543.79	1938.76
544.15	1949.68
544.51	1961.21
544.87	1972.10
545.22	1983.05
545.58	1993.31
545.94	2003.05
546.29	2013.06
546.65	2023.00
547.01	2032.20
547.36	2040.79
547.72	2049.30
548.07	2057.13
548.43	2065.22
548.79	2073.11
549.14	2080.58
549.50	2087.95
549.86	2095.66
550.21	2102.89
550.57	2109.90
550.92	2116.63
551.28	2123.89
551.64	2130.85
551.99	2137.29
552.35	2143.54
552.70	2149.53
553.06	2155.47
553.41	2161.83
553.77	2167.76
554.13	2173.75
554.48	2179.70
554.84	2185.06
555.19	2190.26
555.55	2195.41
555.90	2199.81
556.26	2204.67
556.61	2209.10
556.97	2213.09
557.32	2217.14
557.68	2221.14
558.03	2225.49
558.39	2229.10
558.74	2233.37
559.10	2237.11
559.45	2240.66
559.81	2244.82
560.16	2248.40
560.52	2251.54
560.87	2254.86
561.23	2257.38
561.58	2260.22
561.94	2262.80
562.29	2265.13
562.64	2267.70
563.00	2270.25
563.35	2273.69
563.71	2276.59
564.06	2279.76
564.42	2282.55
564.77	2284.78
565.12	2286.84
565.48	2288.43
565.83	2290.02
566.19	2291.16
566.54	2292.16
566.89	2293.16
567.25	2293.52
567.60	2294.80
567.96	2296.29
568.31	2296.88
568.66	2297.73
569.02	2297.98
569.37	2297.97
569.72	2298.41
570.08	2298.21
570.43	2297.79
570.78	2296.71
571.14	2295.05
571.49	2293.55
571.84	2292.92
572.20	2291.52
572.55	2290.17
572.90	2288.41
573.26	2286.78
573.61	2284.93
573.96	2282.80
574.31	2279.67
574.67	2276.42
575.02	2272.62
575.37	2268.99
575.72	2264.96
576.08	2261.49
576.43	2258.01
576.78	2254.25
577.13	2250.95
577.49	2247.78
577.84	2244.18
578.19	2240.45
578.54	2236.51
578.90	2232.01
579.25	2226.36
579.60	2221.28
579.95	2216.23
580.30	2211.02
580.66	2205.69
581.01	2200.57
581.36	2195.44
581.71	2190.99
582.06	2186.34
582.42	2181.66
582.77	2176.27
583.12	2171.43
583.47	2166.46
583.82	2161.20
584.17	2155.79
584.53	2150.15
584.88	2144.34
585.23	2138.42
585.58	2132.79
585.93	2127.23
586.28	2122.51
586.63	2117.25
586.98	2112.12
587.34	2107.28
587.69	2102.24
588.04	2096.78
588.39	2090.88
588.74	2084.20
589.09	2077.92
589.44	2071.13
589.79	2065.08
590.14	2059.30
590.49	2052.76
590.84	2046.09
591.19	2039.97
591.54	2033.30
591.89	2025.76
592.25	2018.77
592.60	2011.55
592.95	2003.75
593.30	1996.34
593.65	1988.48
594.00	1981.34
594.35	1973.93
594.70	1965.72
595.05	1958.46
595.40	1951.27
595.75	1943.74
596.10	1937.42
596.45	1930.52
596.80	1924.05
597.15	1917.14
597.50	1909.90
597.85	1903.34
598.19	1896.79
598.54	1889.62
598.89	1882.94
599.24	1877.01
599.59	1870.29
599.94	1863.85
600.29	1857.57
600.64	1850.96
600.99	1843.42
601.34	1836.55
601.69	1829.64
602.04	1822.69
602.39	1815.20
602.74	1808.26
603.08	1801.56
603.43	1794.80
603.78	1787.60
604.13	1780.44
604.48	1773.08
604.83	1766.28
605.18	1759.22
605.53	1751.24
605.87	1743.33
606.22	1736.10
606.57	1728.15
606.92	1720.79
607.27	1713.67
607.62	1706.73
607.96	1699.40
608.31	1692.76
608.66	1685.11
609.01	1677.47
609.36	1670.08
609.70	1662.20
610.05	1654.25
610.40	1646.69
610.75	1638.54
611.10	1630.92
611.44	1622.66
611.79	1614.92
612.14	1606.37
612.49	1597.34
612.83	1589.10
613.18	1581.01
613.53	1573.07
613.88	1564.78
614.22	1556.63
614.57	1548.19
614.92	1540.21
615.27	1532.76
615.61	1524.59
615.96	1516.76
616.31	1509.24
616.65	1501.97
617.00	1494.46
617.35	1486.70
617.70	1478.38
618.04	1469.85
618.39	1461.70
618.74	1454.22
619.08	1446.08
619.43	1438.63
619.78	1431.81
620.12	1424.66
620.47	1417.24
620.82	1409.20
621.16	1401.81
621.51	1394.27
621.85	1386.79
622.20	1378.50
622.55	1370.29
622.89	1362.57
623.24	1355.09
623.59	1347.92
623.93	1340.39
624.28	1333.30
624.62	1326.02
624.97	1318.95
625.32	1312.34
625.66	1305.34
626.01	1298.20
626.35	1290.72
626.70	1283.00
627.04	1275.37
627.39	1267.78
627.73	1260.51
628.08	1253.50
628.43	1246.11
628.77	1238.84
629.12	1231.25
629.46	1224.15
629.81	1216.91
630.15	1209.80
630.50	1202.37
630.84	1194.23
631.19	1186.42
631.53	1179.00
631.88	1171.55
632.22	1163.94
632.57	1156.74
632.91	1149.39
633.26	1142.13
633.60	1134.89
633.95	1127.88
634.29	1120.98
634.64	1114.31
634.98	1107.03
635.32	1100.10
635.67	1093.86
636.01	1087.43
636.36	1080.80
636.70	1074.40
637.05	1067.83
637.39	1061.44
637.73	1055.16
638.08	1049.29
638.42	1043.45
638.77	1037.06
639.11	1030.51
639.45	1024.33
639.80	1017.75
640.14	1011.43
640.49	1005.02
640.83	998.89
641.17	992.74
641.52	986.43
641.86	980.11
642.20	974.41
642.55	968.16
642.89	961.64
643.23	955.10
643.58	949.37
643.92	943.22
644.26	937.20
644.61	931.20
644.95	925.16
645.29	918.66
645.64	911.97
645.98	905.78
646.32	900.08
646.66	894.04
647.01	888.36
647.35	882.68
647.69	876.83
648.04	871.28
648.38	865.58
648.72	859.70
649.06	853.70
649.41	847.77
649.75	841.78
650.09	835.89
650.43	830.14
650.78	824.04
651.12	818.13
651.46	812.44
651.80	806.75
652.14	801.45
652.49	796.19
652.83	791.01
653.17	785.27
653.51	779.47
653.85	774.13
654.20	768.45
654.54	762.52
654.88	756.82
655.22	750.98
655.56	745.40
655.90	739.93
656.25	734.73
656.59	729.44
656.93	724.43
657.27	719.29
657.61	713.92
657.95	708.78
658.29	703.67
658.64	698.54
658.98	693.33
659.32	687.85
659.66	682.66
660.00	677.47
660.34	672.59
660.68	667.76
661.02	662.78
661.36	658.20
661.70	653.75
662.05	649.45
662.39	645.20
662.73	640.69
663.07	636.39
663.41	632.00
663.75	627.54
664.09	623.06
664.43	618.78
664.77	614.68
665.11	610.54
665.45	606.53
665.79	602.49
666.13	598.40
666.47	594.40
666.81	590.28
667.15	586.21
667.49	582.40
667.83	578.58
668.17	574.75
668.51	570.70
668.85	566.74
669.19	562.93
669.53	559.11
669.87	555.36
670.21	551.72
670.55	548.14
670.89	544.74
671.23	541.35
671.57	537.83
671.91	534.43
672.25	531.04
672.58	527.54
672.92	524.20
673.26	521.10
673.60	518.01
673.94	514.93
674.28	512.05
674.62	509.13
674.96	506.12
675.30	503.17
675.64	500.29
675.97	497.58
676.31	494.80
676.65	491.91
676.99	489.23
677.33	486.41
677.67	483.61
678.01	480.64
678.34	477.71
678.68	474.92
679.02	472.10
679.36	469.33
679.70	466.67
680.04	463.90
680.37	461.07
680.71	458.33
681.05	455.77
681.39	453.12
681.73	450.50
682.06	448.02
682.40	445.50
682.74	443.03
683.08	440.52
683.42	438.01
683.75	435.61
684.09	433.05
684.43	430.57
684.77	428.21
685.10	425.90
685.44	423.63
685.78	421.34
686.12	419.12
686.45	416.90
686.79	414.61
687.13	412.50
687.46	410.36
687.80	408.23
688.14	406.07
688.48	404.02
688.81	401.84
689.15	399.71
689.49	397.65
689.82	395.60
690.16	393.56
690.50	391.59
690.83	389.58
691.17	387.69
691.51	385.85
691.84	383.95
692.18	382.04
692.52	379.99
692.85	378.11
693.19	376.23
693.52	374.40
693.86	372.64
694.20	370.83
694.53	369.02
694.87	367.23
695.21	365.42
695.54	363.65
695.88	361.92
696.21	360.24
696.55	358.58
696.88	356.86
697.22	355.16
697.56	353.57
697.89	351.97
698.23	350.32
698.56	348.66
698.90	347.07
699.23	345.47
699.57	344.00
699.90	342.47
700.24	340.98
700.58	339.48
700.91	337.99
701.25	336.57
701.58	335.26
701.92	333.90
702.25	332.54
702.59	331.15
702.92	329.86
703.26	328.55
703.59	327.31
703.93	326.18
704.26	324.99
704.60	323.71
704.93	322.46
705.26	321.27
705.60	320.13
705.93	319.01
706.27	317.98
706.60	316.96
706.94	315.91
707.27	314.77
707.61	313.69
707.94	312.68
708.27	311.63
708.61	310.54
708.94	309.52
709.28	308.57
709.61	307.63
709.94	306.66
710.28	305.66
710.61	304.70
710.95	303.65
711.28	302.76
711.61	301.82
711.95	300.94
712.28	299.96
712.61	298.97
712.95	298.07
713.28	297.18
713.61	296.25
713.95	295.39
714.28	294.59
714.61	293.74
714.95	292.88
715.28	292.04
715.61	291.19
715.95	290.33
716.28	289.47
716.61	288.68
716.95	287.89
717.28	287.14
717.61	286.35
717.94	285.59
718.28	284.79
718.61	284.10
718.94	283.43
719.27	282.80
719.61	282.18
719.94	281.51
720.27	280.83
720.60	280.20
720.94	279.59
721.27	278.99
721.60	278.44
721.93	277.87
722.27	277.35
722.60	276.80
722.93	276.27
723.26	275.75
723.59	275.19
723.93	274.65
724.26	274.12
724.59	273.55
724.92	273.04
725.25	272.53
725.59	272.00
725.92	271.48
726.25	271.00
726.58	270.54
726.91	270.07
727.24	269.63
727.57	269.20
727.91	268.67
728.24	268.22
728.57	267.72
728.90	267.27
729.23	266.80
729.56	266.36
729.89	265.88
730.22	265.41
730.55	264.93
730.89	264.51
731.22	264.05
731.55	263.67
731.88	263.27
732.21	262.85
732.54	262.40
732.87	261.94
733.20	261.51
733.53	261.13
733.86	260.70
734.19	260.24
734.52	259.83
734.85	259.52
735.18	259.10
735.51	258.73
735.84	258.36
736.17	257.98
736.50	257.58
736.83	257.33
737.16	257.00
737.49	256.65
737.82	256.26
738.15	255.96
738.48	255.59
738.81	255.22
739.14	254.91
739.47	254.61
739.80	254.32
740.13	254.03
740.46	253.67
740.79	253.36
741.12	253.07
741.45	252.77
741.78	252.40
742.11	252.12
742.44	251.77
742.77	251.51
743.10	251.20
743.43	250.90
743.75	250.55
744.08	250.43
744.41	250.13
744.74	249.86
745.07	249.55
745.40	249.31
745.73	249.07
746.06	248.79
746.39	248.53
746.71	248.25
747.04	247.98
747.37	247.72
747.70	247.48
748.03	247.23
748.36	246.99
748.68	246.77
749.01	246.52
749.34	246.35
749.67	246.06
750.00	245.83
750.33	245.68
750.65	245.43
750.98	245.09
751.31	244.88
751.64	244.73
751.97	244.56
752.29	244.35
752.62	244.12
752.95	243.94
753.28	243.71
753.60	243.52
753.93	243.38
754.26	243.22
754.59	243.04
754.91	242.87
755.24	242.72
755.57	242.51
755.90	242.36
756.22	242.18
756.55	242.04
756.88	241.87
757.20	241.65
757.53	241.48
757.86	241.32
758.19	241.20
758.51	241.02
758.84	240.86
759.17	240.71
759.49	240.59
759.82	240.45
760.15	240.33
760.47	240.22
760.80	240.07
761.13	239.91
761.45	239.77
761.78	239.59
762.11	239.41
762.43	239.30
762.76	239.14
763.08	239.01
763.41	238.87
763.74	238.73
764.06	238.59
764.39	238.47
764.71	238.34
765.04	238.21
765.37	238.09
765.69	237.91
766.02	237.79
766.34	237.66
766.67	237.49
767.00	237.39
767.32	237.29
767.65	237.22
767.97	237.10
768.30	236.98
768.62	236.90
768.95	236.79
769.27	236.68
769.60	236.59
769.92	236.42
770.25	236.29
770.57	236.15
770.90	236.07
771.22	235.95
771.55	235.85
771.87	235.74
772.20	235.66
772.52	235.65
772.85	235.65
773.17	235.53
773.50	235.42
773.82	235.33
774.15	235.20
774.47	235.05
774.80	234.98
775.12	234.87
775.45	234.77
775.77	234.69
776.09	234.63
776.42	234.54
776.74	234.55
777.07	234.47
777.39	234.43
777.72	234.32
778.04	234.27
778.36	234.17
778.69	234.08
779.01	234.00
779.33	233.86
779.66	233.69
779.98	233.62
780.31	233.56
780.63	233.51
780.95	233.46
781.28	233.37
781.60	233.28
781.92	233.22
782.25	233.16
782.57	233.10
782.89	233.01
783.22	232.94
783.54	232.84
783.86	232.80
784.19	232.73
784.51	232.71
784.83	232.62
785.16	232.56
785.48	232.53
785.80	232.45
786.12	232.41
786.45	232.34
786.77	232.31
787.09	232.29
787.42	232.19
787.74	232.14
788.06	232.10
788.38	232.06
788.71	232.04
789.03	232.01
789.35	231.95
789.67	231.92
789.99	231.89
790.32	231.85
790.64	231.83
790.96	231.87
791.28	231.80
791.61	231.76
791.93	231.74
792.25	231.68
792.57	231.74
792.89	231.68
793.21	231.66
793.54	231.61
793.86	231.57
794.18	231.57
794.50	231.47
794.82	231.45
795.14	231.45
795.47	231.40
795.79	231.37
796.11	231.35
796.43	231.32
796.75	231.27
797.07	231.23
797.39	231.19
797.71	231.10
798.04	231.06
798.36	231.04
798.68	231.01
799.00	231.00
799.32	230.93
799.64	230.92
799.96	230.90
800.28	230.88
800.60	230.83
800.92	230.80
801.24	230.79
801.56	230.80
801.89	230.73
802.21	230.69
802.53	230.64
802.85	230.64
803.17	230.67
803.49	230.64
803.81	230.58
804.13	230.56
804.45	230.53
804.77	230.49
805.09	230.47
805.41	230.42
805.73	230.38
806.05	230.33
806.37	230.29
806.69	230.26
807.01	230.29
807.33	230.30
807.65	230.26
807.97	230.28
808.28	230.23
808.60	230.24
808.92	230.22
809.24	230.27
809.56	230.21
809.88	230.15
810.20	230.10
810.52	230.11
810.84	230.07
811.16	230.03
811.48	230.03
811.80	230.07
812.12	230.05
812.43	230.06
812.75	230.04
813.07	230.00
813.39	229.99
813.71	229.91
814.03	229.81
814.35	229.81
814.67	229.77
814.98	229.75
815.30	229.73
815.62	229.69
815.94	229.61
816.26	229.64
816.58	229.57
816.89	229.57
817.21	229.56
817.53	229.52
817.85	229.49
818.17	229.48
818.48	229.38
818.80	229.39
819.12	229.37
819.44	229.33
819.76	229.30
820.07	229.28
820.39	229.27
820.71	229.26
821.03	229.22
821.34	229.18
821.66	229.14
821.98	229.11
822.30	229.07
822.61	229.06
822.93	228.98
823.25	228.98
823.57	228.98
823.88	228.96
824.20	228.96
824.52	228.94
824.83	228.91
825.15	228.89
825.47	228.85
825.79	228.80
826.10	228.78
826.42	228.77
826.74	228.76
827.05	228.75
827.37	228.80
827.69	228.77
828.00	228.81
828.32	228.80
828.64	228.79
828.95	228.86
829.27	228.85
829.58	228.89
829.90	228.88
830.22	228.86
830.53	228.84
830.85	228.82
831.17	228.81
831.48	228.80
831.80	228.82
832.11	228.84
832.43	228.83
832.75	228.81
833.06	228.87
833.38	228.81
833.69	228.79
834.01	228.73
834.32	228.72
834.64	228.66
834.96	228.66
835.27	228.63
835.59	228.57
835.90	228.55
836.22	228.53
836.53	228.51
836.85	228.47
837.16	228.55
837.48	228.55
837.79	228.55
838.11	228.56
838.42	228.53
838.74	228.52
839.05	228.48
839.37	228.51
839.68	228.44
840.00	228.44
840.31	228.46
840.63	228.46
840.94	228.47
841.26	228.44
841.57	228.39
841.88	228.40
842.20	228.40
842.51	228.38
842.83	228.33
843.14	228.41
843.46	228.40
843.77	228.33
844.08	228.31
844.40	228.26
844.71	228.25
845.03	228.24
845.34	228.21
845.65	228.22
845.97	228.20
846.28	228.21
846.60	228.19
846.91	228.19
847.22	228.19
847.54	228.18
847.85	228.19
848.16	228.18
848.48	228.15
848.79	228.16
849.10	228.19
849.42	228.17
849.73	228.07
850.04	228.06
850.36	227.99
850.67	227.99
850.98	227.98
851.30	227.98
851.61	227.99
851.92	228.00
852.23	228.01
852.55	228.02
852.86	227.99
853.17	228.01
853.49	228.01
853.80	228.05
854.11	228.05
854.42	228.03
854.74	228.02
855.05	228.04
855.36	227.99
855.67	227.94
855.99	227.97
856.30	228.07
856.61	228.09
856.92	228.14
857.23	228.13
857.55	228.15
857.86	228.11
858.17	228.11
858.48	228.09
858.79	228.10
859.11	228.07
859.42	228.07
859.73	228.04
860.04	228.02
860.35	227.94
860.66	227.93
860.98	227.96
861.29	227.97
861.60	227.97
861.91	227.99
862.22	228.01
862.53	228.00
862.84	227.88
863.16	227.87
863.47	227.82
863.78	227.81
864.09	227.80
864.40	227.84
864.71	227.81
865.02	227.84
865.33	227.78
865.64	227.78
865.95	227.80
866.27	227.87
866.58	227.85
866.89	227.85
867.20	227.86
867.51	227.86
867.82	227.88
868.13	227.92
868.44	227.91
868.75	227.93
869.06	227.95
869.37	227.97
869.68	227.97
869.99	227.99
870.30	228.01
870.61	227.97
870.92	227.93
871.23	227.91
871.54	227.94
871.85	228.01
872.16	228.03
872.47	228.02
872.78	227.97
873.09	228.01
873.40	228.02
873.71	228.02
874.02	228.01
874.33	227.98
874.64	227.92
874.95	227.92
875.26	227.87
875.56	227.86
875.87	227.85
876.18	227.82
876.49	227.94
876.80	227.91
877.11	227.97
877.42	227.97
877.73	227.99
878.04	227.95
878.35	227.90
878.66	227.90
878.96	227.85
879.27	227.85
879.58	227.81
879.89	227.82
880.20	227.85
880.51	227.83
880.82	227.83
881.12	227.84
881.43	227.83
881.74	227.83
882.05	227.81
882.36	227.83
882.67	227.85
882.97	227.71
883.28	227.72
883.59	227.72
883.90	227.73
884.21	227.73
884.51	227.72
884.82	227.70
885.13	227.68
885.44	227.68
885.74	227.69
886.05	227.68
886.36	227.64
886.67	227.58
886.98	227.64
887.28	227.63
887.59	227.66
887.90	227.66
888.20	227.63
888.51	227.65
888.82	227.63
889.13	227.64
889.43	227.71
889.74	227.70
890.05	227.65
890.35	227.62
890.66	227.63
890.97	227.62
891.28	227.60
891.58	227.61
891.89	227.58
892.20	227.55
892.50	227.55
892.81	227.56
893.12	227.59
893.42	227.52
893.73	227.54
894.04	227.53
894.34	227.49
894.65	227.50
894.95	227.49
895.26	227.52
895.57	227.56
895.87	227.50
896.18	227.51
896.48	227.53
896.79	227.56
897.10	227.56
897.40	227.58
897.71	227.62
898.01	227.63
898.32	227.66
898.63	227.67
898.93	227.67
899.24	227.68
899.54	227.63
899.85	227.65
900.15	227.64
900.46	227.64
900.76	227.67
901.07	227.66
901.38	227.65
901.68	227.65
901.99	227.62
902.29	227.63
902.60	227.61
902.90	227.61
903.21	227.60
903.51	227.59
903.82	227.59
904.12	227.61
904.43	227.61
904.73	227.64
905.03	227.68
905.34	227.77
905.64	227.75
905.95	227.76
906.25	227.78
906.56	227.78
906.86	227.78
907.17	227.79
907.47	227.81
907.77	227.81
908.08	227.77
908.38	227.76
908.69	227.73
908.99	227.74
909.30	227.76
909.60	227.74
909.90	227.74
910.21	227.70
910.51	227.66
910.81	227.68
911.12	227.67
911.42	227.65
911.73	227.55
912.03	227.58
912.33	227.61
912.64	227.58
912.94	227.59
913.24	227.56
913.55	227.53
913.85	227.50
914.15	227.52
914.46	227.54
914.76	227.51
915.06	227.50
915.37	227.50
915.67	227.49
915.97	227.53
916.27	227.53
916.58	227.55
916.88	227.55
917.18	227.52
917.49	227.58
917.79	227.57
918.09	227.61
918.39	227.59
918.70	227.59
919.00	227.59
919.30	227.64
919.60	227.64
919.91	227.64
920.21	227.68
920.51	227.66
920.81	227.65
921.12	227.69
921.42	227.68
921.72	227.67
922.02	227.65
922.32	227.63
922.63	227.60
922.93	227.65
923.23	227.63
923.53	227.64
923.83	227.57
924.13	227.53
924.44	227.52
924.74	227.57
925.04	227.60
925.34	227.62
925.64	227.55
925.94	227.54
926.24	227.60
926.55	227.60
926.85	227.62
927.15	227.63
927.45	227.62
927.75	227.67
928.05	227.69
928.35	227.70
928.65	227.70
928.95	227.71
929.26	227.70
929.56	227.71
929.86	227.70
930.16	227.69
930.46	227.72
930.76	227.72
931.06	227.64
931.36	227.61
931.66	227.61
931.96	227.60
932.26	227.61
932.56	227.56
932.86	227.54
933.16	227.53
933.46	227.51
933.76	227.47
934.06	227.45
934.36	227.51
934.66	227.51
934.96	227.52
935.26	227.54
935.56	227.54
935.86	227.51
936.16	227.53
936.46	227.54
936.76	227.54
937.06	227.52
937.36	227.55
937.66	227.56
937.96	227.52
938.26	227.49
938.56	227.48
938.86	227.48
939.16	227.52
939.46	227.52
939.76	227.55
940.06	227.58
940.35	227.59
940.65	227.48
940.95	227.49
941.25	227.45
941.55	227.42
941.85	227.42
942.15	227.44
942.45	227.44
942.75	227.42
943.04	227.43
943.34	227.44
943.64	227.42
943.94	227.39
944.24	227.43
944.54	227.41
944.84	227.41
945.13	227.39
945.43	227.37
945.73	227.35
946.03	227.34
946.33	227.33
946.62	227.30
946.92	227.33
947.22	227.33
947.52	227.32
947.82	227.35
948.11	227.34
948.41	227.34
948.71	227.34
949.01	227.37
949.31	227.36
949.60	227.36
949.90	227.37
950.20	227.39
950.50	227.38
950.79	227.41
951.09	227.42
951.39	227.44
951.69	227.44
951.98	227.47
952.28	227.49
952.58	227.47
952.87	227.49
953.17	227.49
953.47	227.50
953.76	227.53
954.06	227.51
954.36	227.50
954.66	227.48
954.95	227.50
955.25	227.50
955.55	227.51
955.84	227.48
956.14	227.52
956.44	227.51
956.73	227.50
957.03	227.53
957.32	227.54
957.62	227.51
957.92	227.50
958.21	227.51
958.51	227.61
958.81	227.62
959.10	227.62
959.40	227.66
959.69	227.65
959.99	227.64
960.29	227.64
960.58	227.63
960.88	227.69
961.17	227.65
961.47	227.68
961.76	227.67
962.06	227.70
962.36	227.69
962.65	227.71
962.95	227.76
963.24	227.73
963.54	227.75
963.83	227.77
964.13	227.76
964.42	227.74
964.72	227.67
965.01	227.66
965.31	227.66
965.60	227.63
965.90	227.69
966.19	227.66
966.49	227.67
966.78	227.68
967.08	227.64
967.37	227.64
967.67	227.60
967.96	227.61
968.26	227.58
968.55	227.56
968.85	227.52
969.14	227.47
969.43	227.47
969.73	227.44
970.02	227.43
970.32	227.44
970.61	227.42
970.91	227.37
971.20	227.35
971.49	227.33
971.79	227.33
972.08	227.25
972.38	227.28
972.67	227.27
972.96	227.29
973.26	227.27
973.55	227.27
973.85	227.27
974.14	227.26
974.43	227.30
974.73	227.26
975.02	227.30
975.31	227.31
975.61	227.28
975.90	227.26
976.19	227.26
976.49	227.28
976.78	227.29
977.07	227.30
977.37	227.30
977.66	227.31
977.95	227.28
978.24	227.31
978.54	227.30
978.83	227.31
979.12	227.29
979.42	227.30
979.71	227.30
980.00	227.30
980.29	227.31
980.59	227.27
980.88	227.30
981.17	227.25
981.46	227.24
981.76	227.23
982.05	227.26
982.34	227.26
982.63	227.25
982.93	227.27
983.22	227.27
983.51	227.28
983.80	227.29
984.09	227.32
984.39	227.28
984.68	227.26
984.97	227.26
985.26	227.25
985.55	227.28
985.85	227.25
986.14	227.27
986.43	227.29
986.72	227.28
987.01	227.26
987.30	227.26
987.59	227.27
987.89	227.30
988.18	227.26
988.47	227.26
988.76	227.24
989.05	227.20
989.34	227.19
989.63	227.22
989.92	227.23
990.22	227.22
990.51	227.22
990.80	227.26
991.09	227.26
991.38	227.28
991.67	227.25
991.96	227.25
992.25	227.21
992.54	227.21
992.83	227.25
993.12	227.27
993.41	227.30
993.70	227.34
993.99	227.34
994.28	227.39
994.58	227.40
994.87	227.40
995.16	227.40
995.45	227.43
995.74	227.38
996.03	227.39
996.32	227.38
996.61	227.43
996.90	227.42
997.19	227.41
997.48	227.41
997.77	227.40
998.06	227.41
998.34	227.40
998.63	227.38
998.92	227.35
999.21	227.36
999.50	227.37
999.79	227.34
1000.08	227.36
1000.37	227.36
1000.66	227.35
1000.95	227.39
1001.24	227.41
1001.53	227.41
1001.82	227.40
1002.11	227.38
1002.40	227.41
1002.68	227.39
1002.97	227.45
1003.26	227.47
1003.55	227.43
1003.84	227.45
1004.13	227.51
1004.42	227.53
1004.71	227.53
1004.99	227.55
1005.28	227.59
1005.57	227.58
1005.86	227.55
1006.15	227.52
1006.44	227.49
1006.72	227.47
1007.01	227.44
1007.30	227.46
1007.59	227.47
1007.88	227.48
1008.17	227.49
1008.45	227.45
1008.74	227.42
1009.03	227.37
1009.32	227.35
1009.60	227.37
1009.89	227.36
1010.18	227.28
1010.47	227.28
1010.76	227.28
1011.04	227.27
1011.33	227.30
1011.62	227.31
1011.91	227.29
1012.19	227.30
1012.48	227.30
1012.77	227.33
1013.05	227.38
1013.34	227.35
1013.63	227.32
1013.92	227.30
1014.20	227.29
1014.49	227.32
1014.78	227.31
1015.06	227.29
1015.35	227.29
1015.64	227.29
1015.92	227.33
1016.21	227.38
1016.50	227.36
1016.78	227.38
1017.07	227.41
1017.36	227.30
1017.64	227.31
1017.93	227.33
1018.22	227.33
1018.50	227.35
1018.79	227.32
1019.08	227.25
1019.36	227.26
1019.65	227.25
1019.93	227.33
1020.22	227.36
1020.51	227.39
1020.79	227.40
1021.08	227.16
1021.36	227.61
1021.65	226.76
1021.94	227.01
1022.22	227.32
1022.51	227.01
1022.79	228.34
1023.08	227.83
1023.36	228.11
1023.65	227.12
>>>>>End Processed Spectral Data<<<<<
