SpectraSuite Data File
++++++++++++++++++++++++++++++++++++
Date: Fri Feb 01 15:56:49 EST 2013
User: group
Dark Spectrum Present: No
Reference Spectrum Present: No
Number of Sampled Component Spectra: 1
Spectrometers: USB2E7196
Integration Time (usec): 35000 (USB2E7196)
Spectra Averaged: 100 (USB2E7196)
Boxcar Smoothing: 10 (USB2E7196)
Correct for Electrical Dark: No (USB2E7196)
Strobe/Lamp Enabled: No (USB2E7196)
Correct for Detector Non-linearity: No (USB2E7196)
Correct for Stray Light: No (USB2E7196)
Number of Pixels in Processed Spectrum: 2048
>>>>>Begin Processed Spectral Data<<<<<
339.09	0.00
339.48	214.80
339.86	215.97
340.24	217.28
340.63	218.78
341.01	221.62
341.39	221.20
341.78	222.63
342.16	224.47
342.54	224.22
342.93	213.14
343.31	223.91
343.69	224.44
344.07	224.90
344.46	225.34
344.84	225.72
345.22	225.95
345.60	226.20
345.99	226.44
346.37	226.54
346.75	226.66
347.13	226.69
347.52	226.72
347.90	226.79
348.28	226.78
348.66	226.83
349.05	226.84
349.43	226.86
349.81	226.87
350.19	226.92
350.57	226.97
350.96	227.01
351.34	227.10
351.72	227.18
352.10	227.29
352.48	227.36
352.87	227.43
353.25	227.48
353.63	227.56
354.01	227.61
354.39	227.72
354.77	227.79
355.15	227.93
355.54	228.03
355.92	228.07
356.30	228.19
356.68	228.33
357.06	228.42
357.44	228.49
357.82	228.58
358.20	228.64
358.58	228.72
358.97	228.81
359.35	228.88
359.73	228.97
360.11	229.03
360.49	229.11
360.87	229.18
361.25	229.27
361.63	229.36
362.01	229.38
362.39	229.38
362.77	229.44
363.15	229.45
363.53	229.49
363.91	229.50
364.29	229.51
364.67	229.42
365.05	229.41
365.43	229.42
365.81	229.41
366.19	229.47
366.57	229.47
366.95	229.45
367.33	229.40
367.71	229.38
368.09	229.37
368.47	229.32
368.85	229.27
369.23	229.24
369.61	229.17
369.99	229.18
370.37	229.16
370.75	229.14
371.13	229.07
371.51	228.99
371.89	228.93
372.27	228.91
372.65	228.87
373.03	228.81
373.41	228.75
373.78	228.69
374.16	228.58
374.54	228.49
374.92	228.46
375.30	228.43
375.68	228.36
376.06	228.30
376.44	228.26
376.82	228.20
377.19	228.17
377.57	228.10
377.95	227.98
378.33	227.88
378.71	227.76
379.09	227.70
379.47	227.65
379.84	227.56
380.22	227.45
380.60	227.36
380.98	227.28
381.36	227.19
381.73	227.14
382.11	227.06
382.49	226.98
382.87	226.87
383.25	226.76
383.62	226.81
384.00	226.69
384.38	226.60
384.76	226.53
385.13	226.49
385.51	226.42
385.89	226.38
386.27	226.32
386.64	226.29
387.02	226.22
387.40	226.12
387.78	226.12
388.15	226.11
388.53	226.08
388.91	226.06
389.29	226.04
389.66	226.01
390.04	226.00
390.42	225.99
390.79	226.01
391.17	226.03
391.55	225.90
391.92	225.90
392.30	225.90
392.68	225.90
393.05	225.85
393.43	225.88
393.81	225.90
394.18	225.92
394.56	225.93
394.94	225.99
395.31	226.03
395.69	226.08
396.06	226.13
396.44	226.17
396.82	226.18
397.19	226.29
397.57	226.33
397.95	226.37
398.32	226.41
398.70	226.46
399.07	226.51
399.45	226.59
399.82	226.67
400.20	226.74
400.58	226.84
400.95	226.93
401.33	226.99
401.70	227.13
402.08	227.25
402.45	227.36
402.83	227.44
403.20	227.58
403.58	227.68
403.95	227.80
404.33	227.93
404.71	228.08
405.08	228.26
405.46	228.40
405.83	228.59
406.21	228.75
406.58	228.94
406.96	229.12
407.33	229.31
407.70	229.50
408.08	229.79
408.45	230.01
408.83	230.27
409.20	230.50
409.58	230.68
409.95	230.94
410.33	231.22
410.70	231.51
411.08	231.79
411.45	232.09
411.82	232.38
412.20	232.75
412.57	233.17
412.95	233.44
413.32	233.87
413.69	234.27
414.07	234.70
414.44	235.15
414.82	235.65
415.19	236.16
415.56	236.74
415.94	237.31
416.31	237.93
416.68	238.56
417.06	239.29
417.43	239.99
417.81	240.77
418.18	241.56
418.55	242.39
418.93	243.29
419.30	244.21
419.67	245.15
420.04	246.04
420.42	247.02
420.79	248.20
421.16	249.33
421.54	250.53
421.91	251.74
422.28	252.97
422.66	254.31
423.03	255.61
423.40	256.95
423.77	258.32
424.15	259.74
424.52	261.20
424.89	262.83
425.26	264.37
425.64	265.83
426.01	267.41
426.38	269.06
426.75	270.70
427.13	272.42
427.50	274.21
427.87	276.09
428.24	277.98
428.61	279.72
428.99	281.67
429.36	283.72
429.73	285.79
430.10	287.82
430.47	289.89
430.85	292.01
431.22	294.22
431.59	296.56
431.96	298.78
432.33	301.24
432.70	303.59
433.08	306.38
433.45	309.02
433.82	311.65
434.19	314.56
434.56	317.38
434.93	320.03
435.30	322.65
435.68	325.57
436.05	328.38
436.42	331.16
436.79	333.63
437.16	336.36
437.53	339.13
437.90	341.92
438.27	344.58
438.64	347.38
439.01	349.95
439.38	352.20
439.75	354.39
440.13	356.91
440.50	359.20
440.87	361.02
441.24	362.94
441.61	365.03
441.98	366.48
442.35	368.27
442.72	370.11
443.09	371.93
443.46	372.92
443.83	373.50
444.20	373.99
444.57	374.86
444.94	375.13
445.31	375.53
445.68	375.86
446.05	375.93
446.42	375.56
446.79	375.15
447.16	374.70
447.53	374.37
447.90	373.20
448.27	372.08
448.64	370.53
449.01	369.38
449.37	367.44
449.74	365.60
450.11	363.36
450.48	360.88
450.85	358.34
451.22	356.21
451.59	354.22
451.96	352.29
452.33	349.64
452.70	347.30
453.07	344.47
453.43	341.61
453.80	338.85
454.17	336.20
454.54	333.67
454.91	330.95
455.28	328.23
455.65	325.75
456.02	323.31
456.38	321.14
456.75	318.53
457.12	316.31
457.49	314.05
457.86	311.93
458.23	310.04
458.59	308.04
458.96	305.99
459.33	304.11
459.70	302.27
460.07	300.82
460.43	299.08
460.80	297.50
461.17	296.07
461.54	294.62
461.91	293.19
462.27	291.74
462.64	290.51
463.01	289.20
463.38	287.92
463.74	286.58
464.11	285.48
464.48	284.40
464.85	283.26
465.21	282.39
465.58	281.40
465.95	280.37
466.32	279.42
466.68	278.46
467.05	277.57
467.42	276.67
467.78	275.69
468.15	274.84
468.52	274.13
468.88	273.28
469.25	272.49
469.62	271.88
469.98	271.23
470.35	270.58
470.72	269.96
471.08	269.31
471.45	268.73
471.82	268.14
472.18	267.55
472.55	267.15
472.92	266.62
473.28	266.20
473.65	265.73
474.02	265.27
474.38	264.98
474.75	264.64
475.11	264.31
475.48	264.09
475.85	263.83
476.21	263.59
476.58	263.41
476.94	263.29
477.31	263.12
477.67	262.99
478.04	262.88
478.41	262.84
478.77	262.87
479.14	262.83
479.50	262.82
479.87	262.92
480.23	262.97
480.60	263.08
480.96	263.14
481.33	263.36
481.69	263.57
482.06	263.75
482.42	263.97
482.79	264.22
483.15	264.52
483.52	264.89
483.88	265.25
484.25	265.63
484.61	266.00
484.98	266.43
485.34	266.96
485.71	267.55
486.07	268.16
486.44	268.71
486.80	269.42
487.17	270.17
487.53	270.95
487.90	271.81
488.26	272.71
488.62	273.72
488.99	274.65
489.35	275.71
489.72	276.80
490.08	277.96
490.44	279.20
490.81	280.51
491.17	281.90
491.54	283.41
491.90	284.88
492.26	286.57
492.63	288.30
492.99	290.07
493.36	291.99
493.72	294.03
494.08	296.12
494.45	298.39
494.81	300.76
495.17	303.21
495.54	305.79
495.90	308.47
496.26	311.27
496.63	314.28
496.99	317.40
497.35	320.71
497.72	324.13
498.08	327.67
498.44	331.35
498.80	335.24
499.17	339.23
499.53	343.45
499.89	347.78
500.26	352.32
500.62	357.02
500.98	362.03
501.34	367.13
501.71	372.49
502.07	377.94
502.43	383.59
502.79	389.41
503.16	395.44
503.52	401.77
503.88	408.15
504.24	414.81
504.60	421.65
504.97	428.73
505.33	436.12
505.69	443.84
506.05	451.61
506.41	459.49
506.78	467.66
507.14	476.14
507.50	484.96
507.86	494.01
508.22	503.24
508.59	512.42
508.95	521.98
509.31	531.75
509.67	541.89
510.03	552.15
510.39	562.69
510.75	573.52
511.12	584.46
511.48	595.74
511.84	607.12
512.20	618.70
512.56	630.70
512.92	642.76
513.28	655.06
513.64	667.54
514.00	680.30
514.37	693.31
514.73	706.33
515.09	719.31
515.45	732.58
515.81	746.20
516.17	760.23
516.53	774.38
516.89	788.59
517.25	802.68
517.61	817.09
517.97	831.51
518.33	845.87
518.69	860.57
519.05	875.58
519.41	890.78
519.77	906.27
520.13	921.61
520.49	937.04
520.85	952.40
521.21	968.19
521.57	984.36
521.93	1000.07
522.29	1016.46
522.65	1032.73
523.01	1048.93
523.37	1064.79
523.73	1080.96
524.09	1097.01
524.45	1113.27
524.81	1129.91
525.17	1146.70
525.53	1163.59
525.89	1180.46
526.25	1197.26
526.61	1213.61
526.97	1230.34
527.33	1246.78
527.68	1263.45
528.04	1279.91
528.40	1296.56
528.76	1313.52
529.12	1330.12
529.48	1346.94
529.84	1362.92
530.20	1379.56
530.56	1396.53
530.91	1413.92
531.27	1430.55
531.63	1446.96
531.99	1463.60
532.35	1479.36
532.71	1495.17
533.07	1511.48
533.42	1527.39
533.78	1543.42
534.14	1559.66
534.50	1574.92
534.86	1590.83
535.21	1605.95
535.57	1621.81
535.93	1637.16
536.29	1651.96
536.65	1666.77
537.00	1681.67
537.36	1696.80
537.72	1711.19
538.08	1725.46
538.44	1739.28
538.79	1753.08
539.15	1766.65
539.51	1780.37
539.87	1794.80
540.22	1808.62
540.58	1822.28
540.94	1835.47
541.29	1848.26
541.65	1860.86
542.01	1874.13
542.37	1886.36
542.72	1898.69
543.08	1910.41
543.44	1922.79
543.79	1933.95
544.15	1945.20
544.51	1956.60
544.87	1967.67
545.22	1978.45
545.58	1988.72
545.94	1998.27
546.29	2008.22
546.65	2018.13
547.01	2027.19
547.36	2035.98
547.72	2044.29
548.07	2052.11
548.43	2060.30
548.79	2068.26
549.14	2075.91
549.50	2083.16
549.86	2090.76
550.21	2098.12
550.57	2105.22
550.92	2111.72
551.28	2118.72
551.64	2125.65
551.99	2132.16
552.35	2138.25
552.70	2144.29
553.06	2150.26
553.41	2156.74
553.77	2162.76
554.13	2168.80
554.48	2174.97
554.84	2180.33
555.19	2185.71
555.55	2190.86
555.90	2195.35
556.26	2200.33
556.61	2205.04
556.97	2209.32
557.32	2213.53
557.68	2217.63
558.03	2222.02
558.39	2225.90
558.74	2230.63
559.10	2234.48
559.45	2238.19
559.81	2242.51
560.16	2246.43
560.52	2249.78
560.87	2253.18
561.23	2255.70
561.58	2258.68
561.94	2261.21
562.29	2263.56
562.64	2266.19
563.00	2268.71
563.35	2272.21
563.71	2275.42
564.06	2278.54
564.42	2281.49
564.77	2283.91
565.12	2286.07
565.48	2287.96
565.83	2289.82
566.19	2291.01
566.54	2291.87
566.89	2293.03
567.25	2293.59
567.60	2294.91
567.96	2296.47
568.31	2297.28
568.66	2298.46
569.02	2299.10
569.37	2299.45
569.72	2300.31
570.08	2300.46
570.43	2300.58
570.78	2299.99
571.14	2298.36
571.49	2297.10
571.84	2296.73
572.20	2295.63
572.55	2294.78
572.90	2293.21
573.26	2291.85
573.61	2290.18
573.96	2288.55
574.31	2285.47
574.67	2282.59
575.02	2279.00
575.37	2275.62
575.72	2272.02
576.08	2268.80
576.43	2265.55
576.78	2261.81
577.13	2258.70
577.49	2255.67
577.84	2252.18
578.19	2248.54
578.54	2244.97
578.90	2240.75
579.25	2235.20
579.60	2230.20
579.95	2225.06
580.30	2220.08
580.66	2214.80
581.01	2209.92
581.36	2204.97
581.71	2200.82
582.06	2196.17
582.42	2191.79
582.77	2186.62
583.12	2181.85
583.47	2177.03
583.82	2171.76
584.17	2166.54
584.53	2161.04
584.88	2155.38
585.23	2149.59
585.58	2144.05
585.93	2138.63
586.28	2133.91
586.63	2128.84
586.98	2123.78
587.34	2119.14
587.69	2114.14
588.04	2108.93
588.39	2103.25
588.74	2096.84
589.09	2090.67
589.44	2083.96
589.79	2077.89
590.14	2072.28
590.49	2065.74
590.84	2059.37
591.19	2053.49
591.54	2047.04
591.89	2039.66
592.25	2032.85
592.60	2025.64
592.95	2018.13
593.30	2010.65
593.65	2003.07
594.00	1996.14
594.35	1988.99
594.70	1980.96
595.05	1973.78
595.40	1966.50
595.75	1959.01
596.10	1952.64
596.45	1945.96
596.80	1939.92
597.15	1933.20
597.50	1926.12
597.85	1919.68
598.19	1913.06
598.54	1905.86
598.89	1899.33
599.24	1893.54
599.59	1886.83
599.94	1880.72
600.29	1874.36
600.64	1867.80
600.99	1860.26
601.34	1853.32
601.69	1846.34
602.04	1839.49
602.39	1832.23
602.74	1825.37
603.08	1818.64
603.43	1812.08
603.78	1804.76
604.13	1797.50
604.48	1790.23
604.83	1783.35
605.18	1776.37
605.53	1768.32
605.87	1760.46
606.22	1753.09
606.57	1745.00
606.92	1737.79
607.27	1730.55
607.62	1723.61
607.96	1716.36
608.31	1709.73
608.66	1702.10
609.01	1694.46
609.36	1686.97
609.70	1678.98
610.05	1670.99
610.40	1663.28
610.75	1654.72
611.10	1647.03
611.44	1638.58
611.79	1630.61
612.14	1621.83
612.49	1612.76
612.83	1604.43
613.18	1596.29
613.53	1588.31
613.88	1579.76
614.22	1571.41
614.57	1562.75
614.92	1554.72
615.27	1547.16
615.61	1538.88
615.96	1530.87
616.31	1523.36
616.65	1515.97
617.00	1508.29
617.35	1500.65
617.70	1492.31
618.04	1484.05
618.39	1475.93
618.74	1468.36
619.08	1460.12
619.43	1452.62
619.78	1445.75
620.12	1438.62
620.47	1431.08
620.82	1422.84
621.16	1415.53
621.51	1407.94
621.85	1400.35
622.20	1391.86
622.55	1383.55
622.89	1375.64
623.24	1368.03
623.59	1360.56
623.93	1352.88
624.28	1345.76
624.62	1338.20
624.97	1331.07
625.32	1324.23
625.66	1317.05
626.01	1309.97
626.35	1302.47
626.70	1294.72
627.04	1287.00
627.39	1279.21
627.73	1271.82
628.08	1264.97
628.43	1257.66
628.77	1250.20
629.12	1242.68
629.46	1235.52
629.81	1228.09
630.15	1220.96
630.50	1213.50
630.84	1205.28
631.19	1197.48
631.53	1190.02
631.88	1182.39
632.22	1174.74
632.57	1167.43
632.91	1159.95
633.26	1152.35
633.60	1145.03
633.95	1137.88
634.29	1130.79
634.64	1124.09
634.98	1116.61
635.32	1109.49
635.67	1102.95
636.01	1096.50
636.36	1089.68
636.70	1083.11
637.05	1076.55
637.39	1070.02
637.73	1063.55
638.08	1057.79
638.42	1051.75
638.77	1045.25
639.11	1038.74
639.45	1032.38
639.80	1025.69
640.14	1019.28
640.49	1012.92
640.83	1006.61
641.17	1000.32
641.52	993.92
641.86	987.44
642.20	981.68
642.55	975.34
642.89	968.82
643.23	962.22
643.58	956.41
643.92	950.24
644.26	944.15
644.61	938.17
644.95	932.15
645.29	925.47
645.64	918.83
645.98	912.50
646.32	906.65
646.66	900.59
647.01	894.78
647.35	889.03
647.69	883.14
648.04	877.60
648.38	871.80
648.72	865.89
649.06	859.83
649.41	853.96
649.75	847.98
650.09	842.03
650.43	836.09
650.78	829.99
651.12	824.03
651.46	818.28
651.80	812.41
652.14	807.06
652.49	801.73
652.83	796.40
653.17	790.67
653.51	784.93
653.85	779.53
654.20	773.92
654.54	768.02
654.88	762.25
655.22	756.35
655.56	750.76
655.90	745.26
656.25	740.02
656.59	734.66
656.93	729.53
657.27	724.37
657.61	719.00
657.95	713.91
658.29	708.90
658.64	703.63
658.98	698.43
659.32	693.01
659.66	687.81
660.00	682.55
660.34	677.65
660.68	672.77
661.02	667.74
661.36	663.07
661.70	658.52
662.05	654.18
662.39	649.85
662.73	645.38
663.07	641.04
663.41	636.65
663.75	632.14
664.09	627.59
664.43	623.17
664.77	619.10
665.11	614.82
665.45	610.69
665.79	606.65
666.13	602.48
666.47	598.32
666.81	594.09
667.15	590.03
667.49	586.07
667.83	582.28
668.17	578.29
668.51	574.22
668.85	570.20
669.19	566.42
669.53	562.58
669.87	558.65
670.21	554.90
670.55	551.23
670.89	547.79
671.23	544.42
671.57	540.91
671.91	537.33
672.25	533.81
672.58	530.26
672.92	526.87
673.26	523.70
673.60	520.60
673.94	517.58
674.28	514.66
674.62	511.76
674.96	508.62
675.30	505.80
675.64	502.85
675.97	500.16
676.31	497.25
676.65	494.27
676.99	491.62
677.33	488.77
677.67	485.92
678.01	482.94
678.34	479.91
678.68	477.05
679.02	474.29
679.36	471.54
679.70	468.82
680.04	466.03
680.37	463.13
680.71	460.29
681.05	457.62
681.39	454.89
681.73	452.22
682.06	449.68
682.40	447.09
682.74	444.59
683.08	442.00
683.42	439.36
683.75	436.92
684.09	434.37
684.43	431.93
684.77	429.51
685.10	427.10
685.44	424.83
685.78	422.50
686.12	420.20
686.45	417.93
686.79	415.62
687.13	413.42
687.46	411.28
687.80	409.16
688.14	406.95
688.48	404.89
688.81	402.67
689.15	400.52
689.49	398.37
689.82	396.24
690.16	394.17
690.50	392.30
690.83	390.36
691.17	388.37
691.51	386.42
691.84	384.56
692.18	382.68
692.52	380.70
692.85	378.79
693.19	376.93
693.52	375.08
693.86	373.27
694.20	371.49
694.53	369.71
694.87	367.89
695.21	366.10
695.54	364.26
695.88	362.54
696.21	360.83
696.55	359.18
696.88	357.52
697.22	355.78
697.56	354.13
697.89	352.48
698.23	350.89
698.56	349.31
698.90	347.72
699.23	346.05
699.57	344.49
699.90	342.98
700.24	341.46
700.58	339.92
700.91	338.44
701.25	337.00
701.58	335.64
701.92	334.28
702.25	332.92
702.59	331.59
702.92	330.25
703.26	328.95
703.59	327.67
703.93	326.47
704.26	325.29
704.60	323.97
704.93	322.69
705.26	321.43
705.60	320.29
705.93	319.11
706.27	318.05
706.60	316.98
706.94	315.92
707.27	314.74
707.61	313.71
707.94	312.71
708.27	311.63
708.61	310.57
708.94	309.55
709.28	308.58
709.61	307.60
709.94	306.68
710.28	305.69
710.61	304.73
710.95	303.68
711.28	302.75
711.61	301.82
711.95	300.90
712.28	299.98
712.61	298.96
712.95	298.03
713.28	297.14
713.61	296.25
713.95	295.32
714.28	294.47
714.61	293.63
714.95	292.75
715.28	291.90
715.61	291.01
715.95	290.16
716.28	289.31
716.61	288.49
716.95	287.70
717.28	286.94
717.61	286.18
717.94	285.41
718.28	284.59
718.61	283.89
718.94	283.17
719.27	282.49
719.61	281.88
719.94	281.24
720.27	280.58
720.60	279.93
720.94	279.32
721.27	278.75
721.60	278.17
721.93	277.59
722.27	277.04
722.60	276.48
722.93	275.92
723.26	275.38
723.59	274.80
723.93	274.23
724.26	273.65
724.59	273.08
724.92	272.58
725.25	272.08
725.59	271.58
725.92	271.09
726.25	270.59
726.58	270.07
726.91	269.57
727.24	269.08
727.57	268.59
727.91	268.11
728.24	267.66
728.57	267.18
728.90	266.75
729.23	266.24
729.56	265.82
729.89	265.33
730.22	264.83
730.55	264.36
730.89	263.89
731.22	263.46
731.55	263.05
731.88	262.64
732.21	262.20
732.54	261.73
732.87	261.29
733.20	260.88
733.53	260.49
733.86	260.07
734.19	259.64
734.52	259.29
734.85	258.98
735.18	258.57
735.51	258.18
735.84	257.77
736.17	257.43
736.50	257.01
736.83	256.78
737.16	256.47
737.49	256.15
737.82	255.81
738.15	255.48
738.48	255.16
738.81	254.82
739.14	254.53
739.47	254.22
739.80	253.92
740.13	253.62
740.46	253.30
740.79	253.01
741.12	252.74
741.45	252.41
741.78	252.05
742.11	251.79
742.44	251.44
742.77	251.15
743.10	250.86
743.43	250.57
743.75	250.17
744.08	250.00
744.41	249.70
744.74	249.45
745.07	249.16
745.40	248.86
745.73	248.65
746.06	248.37
746.39	248.07
746.71	247.82
747.04	247.52
747.37	247.24
747.70	247.00
748.03	246.75
748.36	246.53
748.68	246.29
749.01	245.98
749.34	245.80
749.67	245.56
750.00	245.30
750.33	245.15
750.65	244.95
750.98	244.59
751.31	244.40
751.64	244.19
751.97	244.02
752.29	243.80
752.62	243.53
752.95	243.32
753.28	243.17
753.60	242.94
753.93	242.76
754.26	242.57
754.59	242.34
754.91	242.11
755.24	241.90
755.57	241.70
755.90	241.53
756.22	241.31
756.55	241.10
756.88	240.93
757.20	240.69
757.53	240.48
757.86	240.32
758.19	240.17
758.51	239.99
758.84	239.78
759.17	239.63
759.49	239.47
759.82	239.35
760.15	239.17
760.47	239.06
760.80	238.91
761.13	238.80
761.45	238.68
761.78	238.55
762.11	238.43
762.43	238.28
762.76	238.14
763.08	238.02
763.41	237.92
763.74	237.80
764.06	237.65
764.39	237.51
764.71	237.39
765.04	237.27
765.37	237.13
765.69	237.01
766.02	236.88
766.34	236.77
766.67	236.62
767.00	236.52
767.32	236.45
767.65	236.39
767.97	236.26
768.30	236.12
768.62	236.00
768.95	235.88
769.27	235.78
769.60	235.71
769.92	235.62
770.25	235.48
770.57	235.36
770.90	235.30
771.22	235.28
771.55	235.15
771.87	235.03
772.20	234.93
772.52	234.91
772.85	234.94
773.17	234.81
773.50	234.72
773.82	234.64
774.15	234.52
774.47	234.39
774.80	234.31
775.12	234.23
775.45	234.15
775.77	234.06
776.09	233.98
776.42	233.91
776.74	233.84
777.07	233.75
777.39	233.69
777.72	233.59
778.04	233.51
778.36	233.43
778.69	233.36
779.01	233.31
779.33	233.15
779.66	232.94
779.98	232.86
780.31	232.79
780.63	232.74
780.95	232.66
781.28	232.58
781.60	232.49
781.92	232.42
782.25	232.35
782.57	232.26
782.89	232.21
783.22	232.11
783.54	232.05
783.86	232.02
784.19	231.94
784.51	231.87
784.83	231.80
785.16	231.72
785.48	231.66
785.80	231.61
786.12	231.56
786.45	231.51
786.77	231.45
787.09	231.36
787.42	231.28
787.74	231.21
788.06	231.13
788.38	231.10
788.71	231.06
789.03	231.00
789.35	231.00
789.67	230.94
789.99	230.91
790.32	230.84
790.64	230.76
790.96	230.80
791.28	230.75
791.61	230.67
791.93	230.64
792.25	230.60
792.57	230.61
792.89	230.55
793.21	230.52
793.54	230.53
793.86	230.50
794.18	230.45
794.50	230.37
794.82	230.33
795.14	230.30
795.47	230.27
795.79	230.27
796.11	230.21
796.43	230.15
796.75	230.11
797.07	230.09
797.39	230.07
797.71	229.99
798.04	229.95
798.36	229.95
798.68	229.90
799.00	229.87
799.32	229.78
799.64	229.77
799.96	229.76
800.28	229.72
800.60	229.69
800.92	229.70
801.24	229.69
801.56	229.68
801.89	229.62
802.21	229.58
802.53	229.54
802.85	229.52
803.17	229.56
803.49	229.51
803.81	229.46
804.13	229.44
804.45	229.41
804.77	229.40
805.09	229.36
805.41	229.34
805.73	229.33
806.05	229.32
806.37	229.32
806.69	229.29
807.01	229.27
807.33	229.26
807.65	229.15
807.97	229.17
808.28	229.16
808.60	229.15
808.92	229.10
809.24	229.15
809.56	229.15
809.88	229.09
810.20	229.08
810.52	229.08
810.84	229.04
811.16	229.00
811.48	228.99
811.80	229.02
812.12	229.01
812.43	228.99
812.75	228.98
813.07	228.89
813.39	228.87
813.71	228.85
814.03	228.82
814.35	228.86
814.67	228.79
814.98	228.78
815.30	228.79
815.62	228.77
815.94	228.66
816.26	228.67
816.58	228.64
816.89	228.63
817.21	228.62
817.53	228.63
817.85	228.62
818.17	228.60
818.48	228.53
818.80	228.55
819.12	228.54
819.44	228.55
819.76	228.55
820.07	228.54
820.39	228.50
820.71	228.49
821.03	228.46
821.34	228.47
821.66	228.44
821.98	228.43
822.30	228.41
822.61	228.46
822.93	228.37
823.25	228.34
823.57	228.33
823.88	228.32
824.20	228.29
824.52	228.28
824.83	228.27
825.15	228.25
825.47	228.19
825.79	228.15
826.10	228.10
826.42	228.12
826.74	228.09
827.05	228.08
827.37	228.08
827.69	228.07
828.00	228.07
828.32	228.06
828.64	228.02
828.95	228.08
829.27	228.06
829.58	228.02
829.90	228.02
830.22	227.98
830.53	227.95
830.85	227.93
831.17	227.89
831.48	227.86
831.80	227.87
832.11	227.86
832.43	227.84
832.75	227.80
833.06	227.83
833.38	227.79
833.69	227.77
834.01	227.76
834.32	227.73
834.64	227.68
834.96	227.63
835.27	227.66
835.59	227.63
835.90	227.57
836.22	227.58
836.53	227.54
836.85	227.52
837.16	227.59
837.48	227.62
837.79	227.66
838.11	227.66
838.42	227.68
838.74	227.72
839.05	227.71
839.37	227.70
839.68	227.63
840.00	227.63
840.31	227.67
840.63	227.66
840.94	227.65
841.26	227.63
841.57	227.64
841.88	227.61
842.20	227.58
842.51	227.60
842.83	227.62
843.14	227.73
843.46	227.74
843.77	227.70
844.08	227.69
844.40	227.66
844.71	227.62
845.03	227.55
845.34	227.51
845.65	227.49
845.97	227.48
846.28	227.48
846.60	227.48
846.91	227.43
847.22	227.41
847.54	227.46
847.85	227.47
848.16	227.47
848.48	227.47
848.79	227.54
849.10	227.53
849.42	227.49
849.73	227.40
850.04	227.41
850.36	227.37
850.67	227.36
850.98	227.36
851.30	227.40
851.61	227.43
851.92	227.43
852.23	227.46
852.55	227.46
852.86	227.47
853.17	227.47
853.49	227.49
853.80	227.51
854.11	227.47
854.42	227.49
854.74	227.49
855.05	227.46
855.36	227.40
855.67	227.37
855.99	227.37
856.30	227.47
856.61	227.46
856.92	227.44
857.23	227.43
857.55	227.40
857.86	227.41
858.17	227.41
858.48	227.37
858.79	227.38
859.11	227.39
859.42	227.38
859.73	227.36
860.04	227.37
860.35	227.35
860.66	227.34
860.98	227.32
861.29	227.32
861.60	227.33
861.91	227.32
862.22	227.34
862.53	227.32
862.84	227.21
863.16	227.21
863.47	227.20
863.78	227.19
864.09	227.21
864.40	227.19
864.71	227.16
865.02	227.17
865.33	227.15
865.64	227.11
865.95	227.10
866.27	227.17
866.58	227.14
866.89	227.13
867.20	227.09
867.51	227.07
867.82	227.05
868.13	227.06
868.44	227.06
868.75	227.05
869.06	227.06
869.37	227.05
869.68	227.05
869.99	227.05
870.30	227.05
870.61	227.01
870.92	226.99
871.23	226.99
871.54	227.00
871.85	227.01
872.16	227.02
872.47	226.99
872.78	226.90
873.09	226.91
873.40	226.91
873.71	226.91
874.02	226.89
874.33	226.90
874.64	226.86
874.95	226.87
875.26	226.85
875.56	226.85
875.87	226.85
876.18	226.81
876.49	226.93
876.80	226.91
877.11	226.90
877.42	226.87
877.73	226.86
878.04	226.85
878.35	226.86
878.66	226.87
878.96	226.87
879.27	226.91
879.58	226.89
879.89	226.86
880.20	226.89
880.51	226.92
880.82	226.92
881.12	226.93
881.43	226.87
881.74	226.86
882.05	226.84
882.36	226.85
882.67	226.87
882.97	226.77
883.28	226.77
883.59	226.80
883.90	226.84
884.21	226.85
884.51	226.82
884.82	226.79
885.13	226.81
885.44	226.79
885.74	226.79
886.05	226.85
886.36	226.87
886.67	226.86
886.98	226.90
887.28	226.91
887.59	226.92
887.90	226.97
888.20	226.97
888.51	227.00
888.82	227.03
889.13	227.03
889.43	227.11
889.74	227.11
890.05	227.11
890.35	227.10
890.66	227.09
890.97	227.12
891.28	227.13
891.58	227.13
891.89	227.16
892.20	227.11
892.50	227.03
892.81	227.01
893.12	227.02
893.42	226.98
893.73	226.96
894.04	226.94
894.34	226.96
894.65	226.95
894.95	226.93
895.26	226.89
895.57	226.90
895.87	226.78
896.18	226.80
896.48	226.79
896.79	226.76
897.10	226.76
897.40	226.74
897.71	226.72
898.01	226.70
898.32	226.71
898.63	226.71
898.93	226.75
899.24	226.76
899.54	226.72
899.85	226.69
900.15	226.69
900.46	226.70
900.76	226.67
901.07	226.67
901.38	226.68
901.68	226.69
901.99	226.66
902.29	226.66
902.60	226.63
902.90	226.65
903.21	226.66
903.51	226.65
903.82	226.68
904.12	226.67
904.43	226.68
904.73	226.67
905.03	226.70
905.34	226.77
905.64	226.77
905.95	226.78
906.25	226.80
906.56	226.80
906.86	226.81
907.17	226.80
907.47	226.81
907.77	226.77
908.08	226.74
908.38	226.75
908.69	226.77
908.99	226.80
909.30	226.78
909.60	226.76
909.90	226.80
910.21	226.79
910.51	226.78
910.81	226.78
911.12	226.80
911.42	226.81
911.73	226.71
912.03	226.74
912.33	226.78
912.64	226.78
912.94	226.76
913.24	226.75
913.55	226.77
913.85	226.76
914.15	226.80
914.46	226.83
914.76	226.86
915.06	226.88
915.37	226.89
915.67	226.88
915.97	226.87
916.27	226.85
916.58	226.83
916.88	226.84
917.18	226.83
917.49	226.92
917.79	226.90
918.09	226.91
918.39	226.95
918.70	226.94
919.00	226.97
919.30	227.04
919.60	227.05
919.91	227.05
920.21	227.08
920.51	227.07
920.81	227.08
921.12	227.08
921.42	227.04
921.72	227.03
922.02	227.03
922.32	227.05
922.63	227.08
922.93	227.13
923.23	227.15
923.53	227.14
923.83	227.06
924.13	227.08
924.44	227.10
924.74	227.09
925.04	227.11
925.34	227.11
925.64	227.09
925.94	227.07
926.24	227.09
926.55	227.06
926.85	227.07
927.15	227.08
927.45	227.12
927.75	227.13
928.05	227.14
928.35	227.15
928.65	227.20
928.95	227.17
929.26	227.15
929.56	227.16
929.86	227.17
930.16	227.16
930.46	227.17
930.76	227.19
931.06	227.11
931.36	227.06
931.66	227.06
931.96	227.05
932.26	227.04
932.56	227.00
932.86	226.99
933.16	226.97
933.46	226.94
933.76	226.88
934.06	226.89
934.36	226.91
934.66	226.87
934.96	226.85
935.26	226.86
935.56	226.85
935.86	226.82
936.16	226.83
936.46	226.81
936.76	226.77
937.06	226.72
937.36	226.75
937.66	226.78
937.96	226.78
938.26	226.72
938.56	226.75
938.86	226.75
939.16	226.79
939.46	226.78
939.76	226.77
940.06	226.78
940.35	226.77
940.65	226.68
940.95	226.72
941.25	226.67
941.55	226.63
941.85	226.62
942.15	226.61
942.45	226.59
942.75	226.59
943.04	226.59
943.34	226.59
943.64	226.57
943.94	226.51
944.24	226.49
944.54	226.51
944.84	226.47
945.13	226.45
945.43	226.44
945.73	226.46
946.03	226.46
946.33	226.45
946.62	226.45
946.92	226.48
947.22	226.49
947.52	226.54
947.82	226.57
948.11	226.54
948.41	226.55
948.71	226.57
949.01	226.56
949.31	226.56
949.60	226.61
949.90	226.66
950.20	226.71
950.50	226.71
950.79	226.72
951.09	226.79
951.39	226.82
951.69	226.83
951.98	226.83
952.28	226.84
952.58	226.85
952.87	226.85
953.17	226.89
953.47	226.85
953.76	226.82
954.06	226.82
954.36	226.83
954.66	226.80
954.95	226.83
955.25	226.85
955.55	226.88
955.84	226.86
956.14	226.84
956.44	226.83
956.73	226.82
957.03	226.82
957.32	226.80
957.62	226.78
957.92	226.77
958.21	226.78
958.51	226.91
958.81	226.92
959.10	226.95
959.40	226.96
959.69	227.01
959.99	227.08
960.29	227.10
960.58	227.14
960.88	227.22
961.17	227.20
961.47	227.25
961.76	227.25
962.06	227.26
962.36	227.27
962.65	227.28
962.95	227.28
963.24	227.28
963.54	227.28
963.83	227.29
964.13	227.29
964.42	227.28
964.72	227.18
965.01	227.19
965.31	227.15
965.60	227.11
965.90	227.13
966.19	227.05
966.49	227.01
966.78	226.98
967.08	226.94
967.37	226.92
967.67	226.87
967.96	226.84
968.26	226.84
968.55	226.82
968.85	226.81
969.14	226.80
969.43	226.79
969.73	226.78
970.02	226.78
970.32	226.75
970.61	226.71
970.91	226.69
971.20	226.62
971.49	226.61
971.79	226.62
972.08	226.56
972.38	226.56
972.67	226.57
972.96	226.57
973.26	226.53
973.55	226.56
973.85	226.53
974.14	226.53
974.43	226.50
974.73	226.48
975.02	226.45
975.31	226.42
975.61	226.39
975.90	226.36
976.19	226.30
976.49	226.31
976.78	226.32
977.07	226.28
977.37	226.28
977.66	226.28
977.95	226.24
978.24	226.22
978.54	226.24
978.83	226.21
979.12	226.20
979.42	226.18
979.71	226.10
980.00	226.09
980.29	226.07
980.59	226.04
980.88	226.03
981.17	226.02
981.46	226.05
981.76	226.06
982.05	226.08
982.34	226.11
982.63	226.12
982.93	226.11
983.22	226.13
983.51	226.11
983.80	226.14
984.09	226.17
984.39	226.18
984.68	226.14
984.97	226.17
985.26	226.18
985.55	226.21
985.85	226.27
986.14	226.32
986.43	226.34
986.72	226.35
987.01	226.31
987.30	226.34
987.59	226.33
987.89	226.33
988.18	226.33
988.47	226.33
988.76	226.31
989.05	226.33
989.34	226.36
989.63	226.43
989.92	226.44
990.22	226.45
990.51	226.46
990.80	226.50
991.09	226.51
991.38	226.52
991.67	226.54
991.96	226.51
992.25	226.49
992.54	226.49
992.83	226.54
993.12	226.60
993.41	226.64
993.70	226.73
993.99	226.78
994.28	226.82
994.58	226.88
994.87	226.91
995.16	226.94
995.45	226.93
995.74	226.90
996.03	226.91
996.32	226.93
996.61	226.97
996.90	226.98
997.19	226.97
997.48	226.99
997.77	227.00
998.06	226.97
998.34	227.00
998.63	227.01
998.92	226.98
999.21	227.01
999.50	227.00
999.79	226.95
1000.08	226.93
1000.37	226.91
1000.66	226.87
1000.95	226.87
1001.24	226.87
1001.53	226.91
1001.82	226.88
1002.11	226.86
1002.40	226.88
1002.68	226.88
1002.97	226.90
1003.26	226.91
1003.55	226.88
1003.84	226.87
1004.13	226.93
1004.42	226.93
1004.71	226.94
1004.99	226.89
1005.28	226.87
1005.57	226.85
1005.86	226.84
1006.15	226.84
1006.44	226.81
1006.72	226.81
1007.01	226.77
1007.30	226.75
1007.59	226.69
1007.88	226.69
1008.17	226.68
1008.45	226.63
1008.74	226.58
1009.03	226.54
1009.32	226.51
1009.60	226.51
1009.89	226.45
1010.18	226.43
1010.47	226.40
1010.76	226.36
1011.04	226.38
1011.33	226.36
1011.62	226.37
1011.91	226.33
1012.19	226.33
1012.48	226.29
1012.77	226.28
1013.05	226.33
1013.34	226.35
1013.63	226.34
1013.92	226.34
1014.20	226.30
1014.49	226.27
1014.78	226.27
1015.06	226.24
1015.35	226.20
1015.64	226.19
1015.92	226.23
1016.21	226.19
1016.50	226.21
1016.78	226.22
1017.07	226.22
1017.36	226.19
1017.64	226.16
1017.93	226.18
1018.22	226.16
1018.50	226.16
1018.79	226.17
1019.08	226.08
1019.36	226.09
1019.65	226.09
1019.93	226.13
1020.22	226.14
1020.51	226.22
1020.79	226.23
1021.08	225.96
1021.36	225.85
1021.65	226.71
1021.94	225.42
1022.22	227.13
1022.51	226.02
1022.79	226.93
1023.08	225.85
1023.36	227.45
1023.65	226.35
>>>>>End Processed Spectral Data<<<<<
