SpectraSuite Data File
++++++++++++++++++++++++++++++++++++
Date: Fri Feb 01 15:06:11 EST 2013
User: group
Dark Spectrum Present: No
Reference Spectrum Present: No
Number of Sampled Component Spectra: 1
Spectrometers: USB2E7196
Integration Time (usec): 35000 (USB2E7196)
Spectra Averaged: 100 (USB2E7196)
Boxcar Smoothing: 10 (USB2E7196)
Correct for Electrical Dark: No (USB2E7196)
Strobe/Lamp Enabled: No (USB2E7196)
Correct for Detector Non-linearity: No (USB2E7196)
Correct for Stray Light: No (USB2E7196)
Number of Pixels in Processed Spectrum: 2048
>>>>>Begin Processed Spectral Data<<<<<
339.09	0.00
339.48	215.29
339.86	217.25
340.24	218.23
340.63	220.00
341.01	222.32
341.39	222.25
341.78	224.21
342.16	225.18
342.54	225.10
342.93	213.72
343.31	224.53
343.69	225.05
344.07	225.53
344.46	225.92
344.84	226.28
345.22	226.51
345.60	226.77
345.99	226.95
346.37	227.03
346.75	227.13
347.13	227.21
347.52	227.30
347.90	227.35
348.28	227.36
348.66	227.38
349.05	227.40
349.43	227.45
349.81	227.52
350.19	227.57
350.57	227.62
350.96	227.68
351.34	227.74
351.72	227.84
352.10	227.91
352.48	228.02
352.87	228.08
353.25	228.14
353.63	228.17
354.01	228.21
354.39	228.33
354.77	228.41
355.15	228.50
355.54	228.51
355.92	228.58
356.30	228.63
356.68	228.78
357.06	228.84
357.44	228.90
357.82	228.95
358.20	229.02
358.58	229.07
358.97	229.11
359.35	229.17
359.73	229.28
360.11	229.34
360.49	229.37
360.87	229.38
361.25	229.43
361.63	229.50
362.01	229.54
362.39	229.51
362.77	229.54
363.15	229.56
363.53	229.60
363.91	229.58
364.29	229.62
364.67	229.55
365.05	229.56
365.43	229.59
365.81	229.60
366.19	229.61
366.57	229.65
366.95	229.61
367.33	229.60
367.71	229.55
368.09	229.50
368.47	229.49
368.85	229.49
369.23	229.45
369.61	229.41
369.99	229.39
370.37	229.39
370.75	229.42
371.13	229.35
371.51	229.28
371.89	229.27
372.27	229.22
372.65	229.15
373.03	229.08
373.41	229.00
373.78	228.92
374.16	228.79
374.54	228.71
374.92	228.66
375.30	228.55
375.68	228.46
376.06	228.41
376.44	228.30
376.82	228.21
377.19	228.17
377.57	228.08
377.95	227.96
378.33	227.89
378.71	227.74
379.09	227.65
379.47	227.58
379.84	227.49
380.22	227.42
380.60	227.30
380.98	227.21
381.36	227.10
381.73	227.01
382.11	227.00
382.49	226.90
382.87	226.83
383.25	226.77
383.62	226.80
384.00	226.72
384.38	226.67
384.76	226.63
385.13	226.57
385.51	226.53
385.89	226.49
386.27	226.42
386.64	226.38
387.02	226.35
387.40	226.30
387.78	226.26
388.15	226.21
388.53	226.18
388.91	226.15
389.29	226.13
389.66	226.14
390.04	226.09
390.42	226.10
390.79	226.10
391.17	226.07
391.55	225.97
391.92	225.95
392.30	225.98
392.68	225.97
393.05	225.99
393.43	225.95
393.81	225.98
394.18	225.99
394.56	226.00
394.94	226.04
395.31	226.06
395.69	226.12
396.06	226.19
396.44	226.22
396.82	226.26
397.19	226.38
397.57	226.42
397.95	226.50
398.32	226.53
398.70	226.60
399.07	226.71
399.45	226.78
399.82	226.84
400.20	226.89
400.58	226.96
400.95	227.04
401.33	227.19
401.70	227.35
402.08	227.47
402.45	227.62
402.83	227.76
403.20	227.89
403.58	227.98
403.95	228.08
404.33	228.27
404.71	228.42
405.08	228.58
405.46	228.68
405.83	228.83
406.21	228.97
406.58	229.12
406.96	229.28
407.33	229.52
407.70	229.72
408.08	230.02
408.45	230.25
408.83	230.47
409.20	230.68
409.58	230.87
409.95	231.14
410.33	231.39
410.70	231.63
411.08	231.92
411.45	232.25
411.82	232.58
412.20	232.93
412.57	233.36
412.95	233.64
413.32	234.09
413.69	234.49
414.07	234.94
414.44	235.44
414.82	235.91
415.19	236.43
415.56	236.98
415.94	237.52
416.31	238.16
416.68	238.79
417.06	239.52
417.43	240.18
417.81	240.95
418.18	241.74
418.55	242.57
418.93	243.44
419.30	244.31
419.67	245.27
420.04	246.20
420.42	247.17
420.79	248.39
421.16	249.49
421.54	250.69
421.91	251.93
422.28	253.17
422.66	254.53
423.03	255.81
423.40	257.17
423.77	258.59
424.15	260.00
424.52	261.46
424.89	263.04
425.26	264.64
425.64	266.06
426.01	267.62
426.38	269.31
426.75	271.03
427.13	272.76
427.50	274.52
427.87	276.41
428.24	278.32
428.61	280.06
428.99	282.01
429.36	284.11
429.73	286.17
430.10	288.19
430.47	290.22
430.85	292.36
431.22	294.60
431.59	297.00
431.96	299.26
432.33	301.83
432.70	304.22
433.08	307.05
433.45	309.70
433.82	312.36
434.19	315.24
434.56	318.04
434.93	320.74
435.30	323.36
435.68	326.27
436.05	329.06
436.42	331.86
436.79	334.41
437.16	337.15
437.53	339.97
437.90	342.81
438.27	345.57
438.64	348.38
439.01	350.97
439.38	353.20
439.75	355.37
440.13	357.85
440.50	360.18
440.87	361.99
441.24	363.96
441.61	366.09
441.98	367.57
442.35	369.38
442.72	371.21
443.09	373.06
443.46	374.03
443.83	374.61
444.20	375.14
444.57	376.01
444.94	376.27
445.31	376.65
445.68	377.03
446.05	377.13
446.42	376.82
446.79	376.39
447.16	375.96
447.53	375.64
447.90	374.45
448.27	373.29
448.64	371.72
449.01	370.55
449.37	368.59
449.74	366.67
450.11	364.40
450.48	361.92
450.85	359.36
451.22	357.21
451.59	355.21
451.96	353.26
452.33	350.63
452.70	348.30
453.07	345.44
453.43	342.53
453.80	339.72
454.17	336.99
454.54	334.45
454.91	331.75
455.28	329.06
455.65	326.60
456.02	324.12
456.38	321.97
456.75	319.33
457.12	317.09
457.49	314.88
457.86	312.73
458.23	310.91
458.59	308.90
458.96	306.83
459.33	304.96
459.70	303.11
460.07	301.60
460.43	299.84
460.80	298.21
461.17	296.76
461.54	295.28
461.91	293.84
462.27	292.38
462.64	291.11
463.01	289.76
463.38	288.44
463.74	287.09
464.11	285.91
464.48	284.89
464.85	283.79
465.21	282.93
465.58	282.03
465.95	280.89
466.32	279.96
466.68	279.05
467.05	278.13
467.42	277.19
467.78	276.27
468.15	275.39
468.52	274.74
468.88	273.85
469.25	273.05
469.62	272.40
469.98	271.71
470.35	271.04
470.72	270.43
471.08	269.76
471.45	269.22
471.82	268.66
472.18	268.02
472.55	267.57
472.92	267.03
473.28	266.52
473.65	266.07
474.02	265.61
474.38	265.22
474.75	264.88
475.11	264.54
475.48	264.22
475.85	264.03
476.21	263.76
476.58	263.59
476.94	263.42
477.31	263.29
477.67	263.16
478.04	263.04
478.41	262.97
478.77	263.01
479.14	262.91
479.50	262.95
479.87	262.99
480.23	263.02
480.60	263.04
480.96	263.17
481.33	263.36
481.69	263.53
482.06	263.74
482.42	263.97
482.79	264.24
483.15	264.56
483.52	264.91
483.88	265.29
484.25	265.68
484.61	266.12
484.98	266.55
485.34	267.12
485.71	267.71
486.07	268.33
486.44	268.86
486.80	269.59
487.17	270.29
487.53	271.14
487.90	272.02
488.26	272.94
488.62	273.87
488.99	274.86
489.35	275.91
489.72	277.03
490.08	278.22
490.44	279.44
490.81	280.77
491.17	282.10
491.54	283.57
491.90	285.11
492.26	286.74
492.63	288.49
492.99	290.23
493.36	292.10
493.72	294.12
494.08	296.21
494.45	298.46
494.81	300.83
495.17	303.19
495.54	305.76
495.90	308.44
496.26	311.22
496.63	314.11
496.99	317.20
497.35	320.42
497.72	323.79
498.08	327.29
498.44	330.96
498.80	334.85
499.17	338.84
499.53	342.97
499.89	347.32
500.26	351.80
500.62	356.47
500.98	361.42
501.34	366.50
501.71	371.81
502.07	377.24
502.43	382.82
502.79	388.67
503.16	394.68
503.52	401.00
503.88	407.44
504.24	414.14
504.60	421.06
504.97	428.26
505.33	435.59
505.69	443.27
506.05	451.02
506.41	458.95
506.78	467.10
507.14	475.58
507.50	484.25
507.86	493.23
508.22	502.34
508.59	511.52
508.95	521.12
509.31	530.94
509.67	541.00
510.03	551.29
510.39	561.84
510.75	572.70
511.12	583.61
511.48	594.89
511.84	606.35
512.20	617.87
512.56	629.76
512.92	641.96
513.28	654.26
513.64	666.73
514.00	679.33
514.37	692.23
514.73	705.20
515.09	718.36
515.45	731.79
515.81	745.45
516.17	759.43
516.53	773.47
516.89	787.62
517.25	801.85
517.61	816.27
517.97	830.76
518.33	845.11
518.69	859.86
519.05	874.87
519.41	889.98
519.77	905.44
520.13	920.94
520.49	936.37
520.85	951.82
521.21	967.69
521.57	984.03
521.93	1000.00
522.29	1016.39
522.65	1032.64
523.01	1048.88
523.37	1065.03
523.73	1081.29
524.09	1097.57
524.45	1114.00
524.81	1130.65
525.17	1147.62
525.53	1164.59
525.89	1181.54
526.25	1198.43
526.61	1214.78
526.97	1231.61
527.33	1248.26
527.68	1264.87
528.04	1281.47
528.40	1298.28
528.76	1315.35
529.12	1331.98
529.48	1348.86
529.84	1365.12
530.20	1381.83
530.56	1398.86
530.91	1416.26
531.27	1433.11
531.63	1449.62
531.99	1466.31
532.35	1482.34
532.71	1498.17
533.07	1514.41
533.42	1530.45
533.78	1546.59
534.14	1563.01
534.50	1578.41
534.86	1594.29
535.21	1609.57
535.57	1625.40
535.93	1640.88
536.29	1655.68
536.65	1670.83
537.00	1685.67
537.36	1700.98
537.72	1715.57
538.08	1730.18
538.44	1744.11
538.79	1757.99
539.15	1771.82
539.51	1785.61
539.87	1800.02
540.22	1813.90
540.58	1827.83
540.94	1841.28
541.29	1854.38
541.65	1867.19
542.01	1880.53
542.37	1892.95
542.72	1905.48
543.08	1917.56
543.44	1930.08
543.79	1941.48
544.15	1952.68
544.51	1964.29
544.87	1975.35
545.22	1986.10
545.58	1996.21
545.94	2005.99
546.29	2016.12
546.65	2025.94
547.01	2035.09
547.36	2044.00
547.72	2052.58
548.07	2060.41
548.43	2068.68
548.79	2076.70
549.14	2084.16
549.50	2091.54
549.86	2099.25
550.21	2106.51
550.57	2113.47
550.92	2119.87
551.28	2126.94
551.64	2134.00
551.99	2140.59
552.35	2146.71
552.70	2152.93
553.06	2158.85
553.41	2165.08
553.77	2171.01
554.13	2177.07
554.48	2183.33
554.84	2188.66
555.19	2194.03
555.55	2199.23
555.90	2203.42
556.26	2208.13
556.61	2212.91
556.97	2216.98
557.32	2221.13
557.68	2225.49
558.03	2229.78
558.39	2233.59
558.74	2238.09
559.10	2241.73
559.45	2245.20
559.81	2249.57
560.16	2253.44
560.52	2256.62
560.87	2260.10
561.23	2262.64
561.58	2265.64
561.94	2268.11
562.29	2270.58
562.64	2272.99
563.00	2275.56
563.35	2279.13
563.71	2282.25
564.06	2285.36
564.42	2288.25
564.77	2290.64
565.12	2292.69
565.48	2294.51
565.83	2296.28
566.19	2297.45
566.54	2298.47
566.89	2299.52
567.25	2299.75
567.60	2300.90
567.96	2302.47
568.31	2303.17
568.66	2304.11
569.02	2304.47
569.37	2304.58
569.72	2305.19
570.08	2305.15
570.43	2304.92
570.78	2304.16
571.14	2302.56
571.49	2301.24
571.84	2300.94
572.20	2299.67
572.55	2298.29
572.90	2296.65
573.26	2295.12
573.61	2293.38
573.96	2291.32
574.31	2288.28
574.67	2285.29
575.02	2281.44
575.37	2277.96
575.72	2273.86
576.08	2270.55
576.43	2267.02
576.78	2263.30
577.13	2259.97
577.49	2256.89
577.84	2253.33
578.19	2249.49
578.54	2245.52
578.90	2241.04
579.25	2235.26
579.60	2230.22
579.95	2225.20
580.30	2220.09
580.66	2214.94
581.01	2209.83
581.36	2204.81
581.71	2200.52
582.06	2195.87
582.42	2191.27
582.77	2185.83
583.12	2181.17
583.47	2176.10
583.82	2170.98
584.17	2165.50
584.53	2159.92
584.88	2154.09
585.23	2148.11
585.58	2142.65
585.93	2137.18
586.28	2132.39
586.63	2127.19
586.98	2122.04
587.34	2117.24
587.69	2112.19
588.04	2106.69
588.39	2100.95
588.74	2094.46
589.09	2088.19
589.44	2081.35
589.79	2075.36
590.14	2069.82
590.49	2063.37
590.84	2056.98
591.19	2050.83
591.54	2044.34
591.89	2036.89
592.25	2030.09
592.60	2022.93
592.95	2015.12
593.30	2007.73
593.65	2000.05
594.00	1992.99
594.35	1985.64
594.70	1977.55
595.05	1970.14
595.40	1962.78
595.75	1955.27
596.10	1948.94
596.45	1942.03
596.80	1935.80
597.15	1929.06
597.50	1921.72
597.85	1915.18
598.19	1908.52
598.54	1901.44
598.89	1894.71
599.24	1888.76
599.59	1881.84
599.94	1875.60
600.29	1869.27
600.64	1862.78
600.99	1855.17
601.34	1848.19
601.69	1841.15
602.04	1834.20
602.39	1827.01
602.74	1820.11
603.08	1813.28
603.43	1806.50
603.78	1799.34
604.13	1792.16
604.48	1784.80
604.83	1778.04
605.18	1771.04
605.53	1763.03
605.87	1755.02
606.22	1747.86
606.57	1739.85
606.92	1732.66
607.27	1725.42
607.62	1718.55
607.96	1711.16
608.31	1704.57
608.66	1697.00
609.01	1689.41
609.36	1681.90
609.70	1673.79
610.05	1665.76
610.40	1657.96
610.75	1649.62
611.10	1641.88
611.44	1633.55
611.79	1625.62
612.14	1616.86
612.49	1607.79
612.83	1599.46
613.18	1591.41
613.53	1583.35
613.88	1574.87
614.22	1566.59
614.57	1558.01
614.92	1549.87
615.27	1542.25
615.61	1533.97
615.96	1526.02
616.31	1518.38
616.65	1510.93
617.00	1503.42
617.35	1495.81
617.70	1487.46
618.04	1478.92
618.39	1470.64
618.74	1462.95
619.08	1454.60
619.43	1447.07
619.78	1440.10
620.12	1432.86
620.47	1425.30
620.82	1417.06
621.16	1409.82
621.51	1402.25
621.85	1394.72
622.20	1386.24
622.55	1377.91
622.89	1370.05
623.24	1362.46
623.59	1355.28
623.93	1347.82
624.28	1340.62
624.62	1333.17
624.97	1326.18
625.32	1319.50
625.66	1312.62
626.01	1305.37
626.35	1297.96
626.70	1290.36
627.04	1282.62
627.39	1274.86
627.73	1267.45
628.08	1260.63
628.43	1253.14
628.77	1245.78
629.12	1238.13
629.46	1230.94
629.81	1223.61
630.15	1216.45
630.50	1209.01
630.84	1200.72
631.19	1192.86
631.53	1185.41
631.88	1177.91
632.22	1170.27
632.57	1163.09
632.91	1155.61
633.26	1148.33
633.60	1141.10
633.95	1134.09
634.29	1127.17
634.64	1120.57
634.98	1113.28
635.32	1106.12
635.67	1099.75
636.01	1093.23
636.36	1086.53
636.70	1080.16
637.05	1073.60
637.39	1067.14
637.73	1060.74
638.08	1054.86
638.42	1048.91
638.77	1042.47
639.11	1035.83
639.45	1029.54
639.80	1022.86
640.14	1016.45
640.49	1009.96
640.83	1003.62
641.17	997.32
641.52	990.95
641.86	984.67
642.20	978.84
642.55	972.65
642.89	966.09
643.23	959.47
643.58	953.78
643.92	947.50
644.26	941.47
644.61	935.55
644.95	929.50
645.29	922.93
645.64	916.17
645.98	909.86
646.32	904.06
646.66	898.00
647.01	892.27
647.35	886.55
647.69	880.80
648.04	875.40
648.38	869.66
648.72	863.61
649.06	857.43
649.41	851.52
649.75	845.44
650.09	839.46
650.43	833.69
650.78	827.49
651.12	821.64
651.46	815.88
651.80	810.01
652.14	804.57
652.49	799.26
652.83	794.16
653.17	788.41
653.51	782.66
653.85	777.20
654.20	771.52
654.54	765.50
654.88	759.79
655.22	753.85
655.56	748.14
655.90	742.76
656.25	737.60
656.59	732.32
656.93	727.29
657.27	722.14
657.61	716.72
657.95	711.58
658.29	706.53
658.64	701.36
658.98	696.21
659.32	690.80
659.66	685.60
660.00	680.24
660.34	675.37
660.68	670.53
661.02	665.61
661.36	660.90
661.70	656.51
662.05	652.15
662.39	647.80
662.73	643.43
663.07	639.11
663.41	634.63
663.75	630.16
664.09	625.66
664.43	621.33
664.77	617.24
665.11	613.04
665.45	608.97
665.79	604.92
666.13	600.75
666.47	596.70
666.81	592.54
667.15	588.45
667.49	584.61
667.83	580.87
668.17	576.98
668.51	572.93
668.85	568.90
669.19	565.06
669.53	561.21
669.87	557.27
670.21	553.56
670.55	549.95
670.89	546.52
671.23	543.08
671.57	539.63
671.91	536.17
672.25	532.73
672.58	529.17
672.92	525.81
673.26	522.74
673.60	519.64
673.94	516.55
674.28	513.71
674.62	510.76
674.96	507.67
675.30	504.74
675.64	501.86
675.97	499.11
676.31	496.25
676.65	493.37
676.99	490.72
677.33	487.90
677.67	485.09
678.01	482.07
678.34	479.09
678.68	476.23
679.02	473.40
679.36	470.67
679.70	468.00
680.04	465.22
680.37	462.32
680.71	459.54
681.05	456.97
681.39	454.28
681.73	451.62
682.06	449.05
682.40	446.50
682.74	443.98
683.08	441.45
683.42	438.87
683.75	436.43
684.09	433.91
684.43	431.42
684.77	428.97
685.10	426.65
685.44	424.44
685.78	422.14
686.12	419.90
686.45	417.64
686.79	415.34
687.13	413.22
687.46	411.04
687.80	408.84
688.14	406.62
688.48	404.54
688.81	402.26
689.15	400.11
689.49	398.01
689.82	395.96
690.16	393.87
690.50	391.85
690.83	389.89
691.17	387.92
691.51	386.04
691.84	384.22
692.18	382.31
692.52	380.26
692.85	378.36
693.19	376.51
693.52	374.65
693.86	372.85
694.20	371.03
694.53	369.27
694.87	367.44
695.21	365.68
695.54	363.85
695.88	362.16
696.21	360.45
696.55	358.74
696.88	357.03
697.22	355.43
697.56	353.85
697.89	352.20
698.23	350.57
698.56	348.95
698.90	347.32
699.23	345.68
699.57	344.11
699.90	342.57
700.24	341.03
700.58	339.50
700.91	337.99
701.25	336.52
701.58	335.16
701.92	333.82
702.25	332.44
702.59	331.09
702.92	329.79
703.26	328.54
703.59	327.28
703.93	326.14
704.26	324.84
704.60	323.55
704.93	322.24
705.26	321.05
705.60	319.92
705.93	318.81
706.27	317.78
706.60	316.75
706.94	315.65
707.27	314.51
707.61	313.46
707.94	312.45
708.27	311.40
708.61	310.33
708.94	309.37
709.28	308.41
709.61	307.44
709.94	306.52
710.28	305.54
710.61	304.56
710.95	303.49
711.28	302.62
711.61	301.74
711.95	300.89
712.28	299.92
712.61	298.95
712.95	298.01
713.28	297.14
713.61	296.29
713.95	295.43
714.28	294.63
714.61	293.76
714.95	292.96
715.28	292.10
715.61	291.23
715.95	290.36
716.28	289.51
716.61	288.68
716.95	287.86
717.28	287.12
717.61	286.36
717.94	285.63
718.28	284.81
718.61	284.10
718.94	283.39
719.27	282.75
719.61	282.10
719.94	281.45
720.27	280.74
720.60	280.04
720.94	279.39
721.27	278.80
721.60	278.26
721.93	277.64
722.27	277.14
722.60	276.61
722.93	276.05
723.26	275.54
723.59	275.00
723.93	274.46
724.26	273.92
724.59	273.40
724.92	272.87
725.25	272.38
725.59	271.80
725.92	271.30
726.25	270.77
726.58	270.31
726.91	269.79
727.24	269.28
727.57	268.81
727.91	268.35
728.24	267.86
728.57	267.37
728.90	266.91
729.23	266.40
729.56	265.96
729.89	265.48
730.22	264.98
730.55	264.54
730.89	264.05
731.22	263.58
731.55	263.11
731.88	262.70
732.21	262.26
732.54	261.83
732.87	261.41
733.20	261.02
733.53	260.63
733.86	260.27
734.19	259.93
734.52	259.54
734.85	259.20
735.18	258.78
735.51	258.37
735.84	258.03
736.17	257.64
736.50	257.28
736.83	257.02
737.16	256.65
737.49	256.31
737.82	256.00
738.15	255.70
738.48	255.38
738.81	255.02
739.14	254.73
739.47	254.42
739.80	254.14
740.13	253.83
740.46	253.47
740.79	253.12
741.12	252.80
741.45	252.53
741.78	252.18
742.11	251.91
742.44	251.62
742.77	251.29
743.10	251.03
743.43	250.72
743.75	250.37
744.08	250.24
744.41	249.97
744.74	249.66
745.07	249.35
745.40	249.11
745.73	248.91
746.06	248.63
746.39	248.38
746.71	248.07
747.04	247.83
747.37	247.61
747.70	247.38
748.03	247.13
748.36	246.88
748.68	246.68
749.01	246.45
749.34	246.23
749.67	246.01
750.00	245.76
750.33	245.61
750.65	245.40
750.98	245.08
751.31	244.88
751.64	244.73
751.97	244.55
752.29	244.36
752.62	244.09
752.95	243.90
753.28	243.69
753.60	243.56
753.93	243.38
754.26	243.18
754.59	242.99
754.91	242.80
755.24	242.63
755.57	242.43
755.90	242.25
756.22	242.05
756.55	241.87
756.88	241.69
757.20	241.46
757.53	241.30
757.86	241.16
758.19	241.02
758.51	240.84
758.84	240.65
759.17	240.51
759.49	240.38
759.82	240.24
760.15	240.10
760.47	239.93
760.80	239.76
761.13	239.64
761.45	239.47
761.78	239.32
762.11	239.17
762.43	239.05
762.76	238.93
763.08	238.82
763.41	238.69
763.74	238.53
764.06	238.38
764.39	238.21
764.71	238.04
765.04	237.87
765.37	237.73
765.69	237.61
766.02	237.48
766.34	237.33
766.67	237.21
767.00	237.09
767.32	237.00
767.65	236.94
767.97	236.80
768.30	236.69
768.62	236.57
768.95	236.45
769.27	236.33
769.60	236.24
769.92	236.11
770.25	235.98
770.57	235.87
770.90	235.76
771.22	235.66
771.55	235.55
771.87	235.40
772.20	235.27
772.52	235.26
772.85	235.25
773.17	235.13
773.50	235.00
773.82	234.89
774.15	234.72
774.47	234.59
774.80	234.47
775.12	234.36
775.45	234.27
775.77	234.17
776.09	234.04
776.42	233.88
776.74	233.86
777.07	233.80
777.39	233.73
777.72	233.62
778.04	233.56
778.36	233.49
778.69	233.47
779.01	233.40
779.33	233.22
779.66	233.03
779.98	232.95
780.31	232.90
780.63	232.87
780.95	232.84
781.28	232.76
781.60	232.69
781.92	232.63
782.25	232.57
782.57	232.51
782.89	232.47
783.22	232.41
783.54	232.32
783.86	232.26
784.19	232.20
784.51	232.17
784.83	232.10
785.16	232.03
785.48	231.97
785.80	231.93
786.12	231.89
786.45	231.87
786.77	231.84
787.09	231.78
787.42	231.69
787.74	231.63
788.06	231.57
788.38	231.56
788.71	231.56
789.03	231.54
789.35	231.53
789.67	231.47
789.99	231.45
790.32	231.38
790.64	231.34
790.96	231.37
791.28	231.34
791.61	231.32
791.93	231.30
792.25	231.28
792.57	231.33
792.89	231.33
793.21	231.26
793.54	231.24
793.86	231.21
794.18	231.21
794.50	231.15
794.82	231.10
795.14	231.08
795.47	231.06
795.79	230.99
796.11	230.93
796.43	230.94
796.75	230.91
797.07	230.91
797.39	230.88
797.71	230.80
798.04	230.78
798.36	230.73
798.68	230.71
799.00	230.69
799.32	230.62
799.64	230.57
799.96	230.55
800.28	230.51
800.60	230.47
800.92	230.45
801.24	230.46
801.56	230.46
801.89	230.43
802.21	230.39
802.53	230.36
802.85	230.34
803.17	230.32
803.49	230.31
803.81	230.25
804.13	230.23
804.45	230.22
804.77	230.20
805.09	230.18
805.41	230.12
805.73	230.06
806.05	229.99
806.37	229.96
806.69	229.92
807.01	229.92
807.33	229.97
807.65	229.87
807.97	229.89
808.28	229.85
808.60	229.79
808.92	229.74
809.24	229.78
809.56	229.74
809.88	229.69
810.20	229.67
810.52	229.65
810.84	229.62
811.16	229.54
811.48	229.48
811.80	229.49
812.12	229.45
812.43	229.43
812.75	229.41
813.07	229.39
813.39	229.38
813.71	229.31
814.03	229.23
814.35	229.21
814.67	229.15
814.98	229.11
815.30	229.08
815.62	229.07
815.94	228.99
816.26	229.00
816.58	228.97
816.89	228.90
817.21	228.86
817.53	228.83
817.85	228.83
818.17	228.79
818.48	228.75
818.80	228.79
819.12	228.74
819.44	228.71
819.76	228.63
820.07	228.62
820.39	228.61
820.71	228.57
821.03	228.58
821.34	228.55
821.66	228.55
821.98	228.53
822.30	228.47
822.61	228.47
822.93	228.43
823.25	228.43
823.57	228.42
823.88	228.42
824.20	228.42
824.52	228.43
824.83	228.43
825.15	228.37
825.47	228.35
825.79	228.35
826.10	228.33
826.42	228.35
826.74	228.35
827.05	228.32
827.37	228.33
827.69	228.30
828.00	228.26
828.32	228.26
828.64	228.24
828.95	228.31
829.27	228.28
829.58	228.25
829.90	228.24
830.22	228.27
830.53	228.25
830.85	228.24
831.17	228.21
831.48	228.18
831.80	228.20
832.11	228.18
832.43	228.20
832.75	228.19
833.06	228.26
833.38	228.22
833.69	228.25
834.01	228.25
834.32	228.26
834.64	228.27
834.96	228.28
835.27	228.30
835.59	228.27
835.90	228.27
836.22	228.31
836.53	228.32
836.85	228.28
837.16	228.39
837.48	228.40
837.79	228.41
838.11	228.44
838.42	228.44
838.74	228.47
839.05	228.44
839.37	228.45
839.68	228.39
840.00	228.39
840.31	228.38
840.63	228.38
840.94	228.38
841.26	228.37
841.57	228.33
841.88	228.35
842.20	228.35
842.51	228.33
842.83	228.29
843.14	228.39
843.46	228.40
843.77	228.32
844.08	228.30
844.40	228.28
844.71	228.29
845.03	228.29
845.34	228.29
845.65	228.28
845.97	228.27
846.28	228.25
846.60	228.21
846.91	228.20
847.22	228.19
847.54	228.18
847.85	228.19
848.16	228.18
848.48	228.15
848.79	228.18
849.10	228.17
849.42	228.17
849.73	228.05
850.04	228.01
850.36	227.98
850.67	228.00
850.98	227.98
851.30	227.96
851.61	227.94
851.92	227.89
852.23	227.94
852.55	227.93
852.86	227.89
853.17	227.93
853.49	227.95
853.80	227.92
854.11	227.93
854.42	227.91
854.74	227.89
855.05	227.91
855.36	227.83
855.67	227.81
855.99	227.81
856.30	227.91
856.61	227.93
856.92	227.93
857.23	227.88
857.55	227.87
857.86	227.81
858.17	227.82
858.48	227.78
858.79	227.72
859.11	227.71
859.42	227.73
859.73	227.68
860.04	227.63
860.35	227.64
860.66	227.58
860.98	227.60
861.29	227.59
861.60	227.54
861.91	227.56
862.22	227.56
862.53	227.54
862.84	227.45
863.16	227.45
863.47	227.41
863.78	227.42
864.09	227.44
864.40	227.47
864.71	227.48
865.02	227.48
865.33	227.48
865.64	227.47
865.95	227.49
866.27	227.55
866.58	227.53
866.89	227.52
867.20	227.53
867.51	227.50
867.82	227.50
868.13	227.55
868.44	227.54
868.75	227.56
869.06	227.55
869.37	227.54
869.68	227.52
869.99	227.54
870.30	227.55
870.61	227.54
870.92	227.51
871.23	227.51
871.54	227.53
871.85	227.59
872.16	227.62
872.47	227.59
872.78	227.54
873.09	227.60
873.40	227.64
873.71	227.63
874.02	227.64
874.33	227.64
874.64	227.61
874.95	227.67
875.26	227.64
875.56	227.64
875.87	227.65
876.18	227.67
876.49	227.76
876.80	227.76
877.11	227.78
877.42	227.81
877.73	227.80
878.04	227.82
878.35	227.81
878.66	227.78
878.96	227.76
879.27	227.79
879.58	227.74
879.89	227.70
880.20	227.74
880.51	227.75
880.82	227.73
881.12	227.76
881.43	227.69
881.74	227.67
882.05	227.66
882.36	227.66
882.67	227.65
882.97	227.56
883.28	227.56
883.59	227.54
883.90	227.56
884.21	227.58
884.51	227.56
884.82	227.53
885.13	227.54
885.44	227.55
885.74	227.53
886.05	227.59
886.36	227.58
886.67	227.53
886.98	227.56
887.28	227.59
887.59	227.57
887.90	227.59
888.20	227.61
888.51	227.59
888.82	227.55
889.13	227.55
889.43	227.63
889.74	227.58
890.05	227.57
890.35	227.50
890.66	227.44
890.97	227.41
891.28	227.40
891.58	227.39
891.89	227.38
892.20	227.35
892.50	227.29
892.81	227.23
893.12	227.23
893.42	227.17
893.73	227.14
894.04	227.17
894.34	227.16
894.65	227.14
894.95	227.15
895.26	227.17
895.57	227.19
895.87	227.04
896.18	227.06
896.48	227.04
896.79	227.05
897.10	227.08
897.40	227.07
897.71	227.09
898.01	227.07
898.32	227.08
898.63	227.08
898.93	227.09
899.24	227.13
899.54	227.12
899.85	227.12
900.15	227.11
900.46	227.07
900.76	227.07
901.07	227.08
901.38	227.08
901.68	227.11
901.99	227.05
902.29	227.05
902.60	227.03
902.90	227.04
903.21	227.07
903.51	227.09
903.82	227.11
904.12	227.08
904.43	227.08
904.73	227.10
905.03	227.11
905.34	227.22
905.64	227.20
905.95	227.19
906.25	227.19
906.56	227.22
906.86	227.22
907.17	227.22
907.47	227.25
907.77	227.25
908.08	227.22
908.38	227.27
908.69	227.34
908.99	227.37
909.30	227.41
909.60	227.38
909.90	227.38
910.21	227.36
910.51	227.37
910.81	227.39
911.12	227.38
911.42	227.40
911.73	227.29
912.03	227.30
912.33	227.31
912.64	227.31
912.94	227.29
913.24	227.27
913.55	227.27
913.85	227.24
914.15	227.25
914.46	227.27
914.76	227.24
915.06	227.23
915.37	227.22
915.67	227.22
915.97	227.21
916.27	227.21
916.58	227.24
916.88	227.27
917.18	227.26
917.49	227.37
917.79	227.37
918.09	227.39
918.39	227.44
918.70	227.47
919.00	227.50
919.30	227.54
919.60	227.56
919.91	227.56
920.21	227.56
920.51	227.56
920.81	227.58
921.12	227.61
921.42	227.61
921.72	227.61
922.02	227.59
922.32	227.62
922.63	227.62
922.93	227.67
923.23	227.64
923.53	227.63
923.83	227.53
924.13	227.54
924.44	227.51
924.74	227.51
925.04	227.52
925.34	227.51
925.64	227.51
925.94	227.49
926.24	227.55
926.55	227.55
926.85	227.57
927.15	227.55
927.45	227.54
927.75	227.49
928.05	227.50
928.35	227.53
928.65	227.55
928.95	227.54
929.26	227.50
929.56	227.54
929.86	227.55
930.16	227.54
930.46	227.54
930.76	227.56
931.06	227.49
931.36	227.46
931.66	227.46
931.96	227.43
932.26	227.44
932.56	227.39
932.86	227.39
933.16	227.38
933.46	227.35
933.76	227.32
934.06	227.35
934.36	227.40
934.66	227.37
934.96	227.34
935.26	227.34
935.56	227.35
935.86	227.29
936.16	227.26
936.46	227.25
936.76	227.21
937.06	227.20
937.36	227.23
937.66	227.25
937.96	227.24
938.26	227.22
938.56	227.23
938.86	227.21
939.16	227.19
939.46	227.22
939.76	227.23
940.06	227.25
940.35	227.24
940.65	227.17
940.95	227.17
941.25	227.14
941.55	227.14
941.85	227.10
942.15	227.13
942.45	227.19
942.75	227.18
943.04	227.22
943.34	227.26
943.64	227.24
943.94	227.22
944.24	227.21
944.54	227.26
944.84	227.26
945.13	227.26
945.43	227.25
945.73	227.23
946.03	227.20
946.33	227.18
946.62	227.17
946.92	227.17
947.22	227.16
947.52	227.15
947.82	227.18
948.11	227.20
948.41	227.18
948.71	227.14
949.01	227.17
949.31	227.15
949.60	227.11
949.90	227.13
950.20	227.18
950.50	227.17
950.79	227.14
951.09	227.14
951.39	227.11
951.69	227.13
951.98	227.13
952.28	227.16
952.58	227.18
952.87	227.21
953.17	227.21
953.47	227.22
953.76	227.23
954.06	227.17
954.36	227.17
954.66	227.16
954.95	227.18
955.25	227.18
955.55	227.17
955.84	227.16
956.14	227.17
956.44	227.13
956.73	227.12
957.03	227.12
957.32	227.14
957.62	227.15
957.92	227.14
958.21	227.11
958.51	227.19
958.81	227.20
959.10	227.19
959.40	227.24
959.69	227.24
959.99	227.28
960.29	227.31
960.58	227.27
960.88	227.32
961.17	227.29
961.47	227.28
961.76	227.27
962.06	227.28
962.36	227.24
962.65	227.23
962.95	227.24
963.24	227.19
963.54	227.18
963.83	227.19
964.13	227.19
964.42	227.19
964.72	227.14
965.01	227.12
965.31	227.11
965.60	227.05
965.90	227.09
966.19	227.04
966.49	227.05
966.78	227.08
967.08	227.04
967.37	227.05
967.67	227.03
967.96	227.07
968.26	227.08
968.55	227.10
968.85	227.09
969.14	227.09
969.43	227.14
969.73	227.13
970.02	227.13
970.32	227.13
970.61	227.13
970.91	227.09
971.20	227.09
971.49	227.09
971.79	227.12
972.08	227.07
972.38	227.07
972.67	227.05
972.96	227.08
973.26	227.07
973.55	227.11
973.85	227.10
974.14	227.07
974.43	227.08
974.73	227.07
975.02	227.09
975.31	227.06
975.61	227.04
975.90	227.04
976.19	227.02
976.49	227.05
976.78	227.07
977.07	227.08
977.37	227.11
977.66	227.12
977.95	227.09
978.24	227.09
978.54	227.12
978.83	227.10
979.12	227.08
979.42	227.11
979.71	227.06
980.00	227.09
980.29	227.07
980.59	227.05
980.88	227.07
981.17	227.07
981.46	227.06
981.76	227.07
982.05	227.12
982.34	227.13
982.63	227.10
982.93	227.12
983.22	227.11
983.51	227.11
983.80	227.11
984.09	227.16
984.39	227.18
984.68	227.18
984.97	227.20
985.26	227.19
985.55	227.17
985.85	227.16
986.14	227.15
986.43	227.18
986.72	227.17
987.01	227.13
987.30	227.15
987.59	227.17
987.89	227.19
988.18	227.13
988.47	227.13
988.76	227.13
989.05	227.11
989.34	227.11
989.63	227.14
989.92	227.13
990.22	227.11
990.51	227.11
990.80	227.08
991.09	227.06
991.38	227.08
991.67	227.11
991.96	227.08
992.25	227.07
992.54	227.03
992.83	227.04
993.12	227.03
993.41	227.07
993.70	227.11
993.99	227.13
994.28	227.16
994.58	227.19
994.87	227.19
995.16	227.15
995.45	227.16
995.74	227.08
996.03	227.10
996.32	227.10
996.61	227.10
996.90	227.08
997.19	227.10
997.48	227.08
997.77	227.03
998.06	227.04
998.34	227.04
998.63	227.05
998.92	227.06
999.21	227.08
999.50	227.01
999.79	226.96
1000.08	226.92
1000.37	226.90
1000.66	226.87
1000.95	226.88
1001.24	226.90
1001.53	226.85
1001.82	226.87
1002.11	226.84
1002.40	226.86
1002.68	226.87
1002.97	226.95
1003.26	226.94
1003.55	226.90
1003.84	226.93
1004.13	226.96
1004.42	226.98
1004.71	226.97
1004.99	226.98
1005.28	227.00
1005.57	227.03
1005.86	227.00
1006.15	226.99
1006.44	227.00
1006.72	227.00
1007.01	226.98
1007.30	226.99
1007.59	226.99
1007.88	226.99
1008.17	226.98
1008.45	226.97
1008.74	226.92
1009.03	226.86
1009.32	226.85
1009.60	226.88
1009.89	226.87
1010.18	226.80
1010.47	226.79
1010.76	226.82
1011.04	226.81
1011.33	226.82
1011.62	226.81
1011.91	226.84
1012.19	226.87
1012.48	226.85
1012.77	226.84
1013.05	226.87
1013.34	226.86
1013.63	226.89
1013.92	226.88
1014.20	226.89
1014.49	226.89
1014.78	226.92
1015.06	226.89
1015.35	226.92
1015.64	226.94
1015.92	226.94
1016.21	226.97
1016.50	226.97
1016.78	226.95
1017.07	226.96
1017.36	226.95
1017.64	226.96
1017.93	226.97
1018.22	226.95
1018.50	226.96
1018.79	226.99
1019.08	226.95
1019.36	226.96
1019.65	226.96
1019.93	227.01
1020.22	227.04
1020.51	227.07
1020.79	227.06
1021.08	226.72
1021.36	227.01
1021.65	227.14
1021.94	226.80
1022.22	226.98
1022.51	226.97
1022.79	227.73
1023.08	227.44
1023.36	228.09
1023.65	226.67
>>>>>End Processed Spectral Data<<<<<
