SpectraSuite Data File
++++++++++++++++++++++++++++++++++++
Date: Fri Feb 01 16:53:26 EST 2013
User: group
Dark Spectrum Present: No
Reference Spectrum Present: No
Number of Sampled Component Spectra: 1
Spectrometers: USB2E7196
Integration Time (usec): 35000 (USB2E7196)
Spectra Averaged: 100 (USB2E7196)
Boxcar Smoothing: 10 (USB2E7196)
Correct for Electrical Dark: No (USB2E7196)
Strobe/Lamp Enabled: No (USB2E7196)
Correct for Detector Non-linearity: No (USB2E7196)
Correct for Stray Light: No (USB2E7196)
Number of Pixels in Processed Spectrum: 2048
>>>>>Begin Processed Spectral Data<<<<<
339.09	0.00
339.48	213.80
339.86	215.01
340.24	217.06
340.63	217.77
341.01	220.65
341.39	220.93
341.78	221.34
342.16	223.20
342.54	223.45
342.93	211.99
343.31	222.69
343.69	223.21
344.07	223.62
344.46	224.01
344.84	224.38
345.22	224.60
345.60	224.80
345.99	224.99
346.37	225.10
346.75	225.19
347.13	225.25
347.52	225.27
347.90	225.30
348.28	225.31
348.66	225.32
349.05	225.30
349.43	225.33
349.81	225.37
350.19	225.38
350.57	225.35
350.96	225.41
351.34	225.48
351.72	225.56
352.10	225.66
352.48	225.69
352.87	225.74
353.25	225.79
353.63	225.86
354.01	225.91
354.39	225.98
354.77	226.04
355.15	226.12
355.54	226.19
355.92	226.21
356.30	226.29
356.68	226.43
357.06	226.49
357.44	226.54
357.82	226.58
358.20	226.65
358.58	226.73
358.97	226.76
359.35	226.84
359.73	226.89
360.11	227.00
360.49	227.09
360.87	227.13
361.25	227.16
361.63	227.22
362.01	227.27
362.39	227.31
362.77	227.37
363.15	227.39
363.53	227.41
363.91	227.46
364.29	227.47
364.67	227.39
365.05	227.44
365.43	227.46
365.81	227.50
366.19	227.59
366.57	227.64
366.95	227.67
367.33	227.65
367.71	227.66
368.09	227.62
368.47	227.62
368.85	227.58
369.23	227.63
369.61	227.58
369.99	227.58
370.37	227.56
370.75	227.60
371.13	227.56
371.51	227.52
371.89	227.52
372.27	227.53
372.65	227.48
373.03	227.39
373.41	227.33
373.78	227.28
374.16	227.18
374.54	227.11
374.92	227.07
375.30	227.03
375.68	227.00
376.06	226.97
376.44	226.91
376.82	226.88
377.19	226.81
377.57	226.77
377.95	226.70
378.33	226.62
378.71	226.50
379.09	226.46
379.47	226.45
379.84	226.37
380.22	226.27
380.60	226.23
380.98	226.17
381.36	226.12
381.73	226.05
382.11	226.00
382.49	225.93
382.87	225.86
383.25	225.80
383.62	225.86
384.00	225.78
384.38	225.70
384.76	225.65
385.13	225.63
385.51	225.58
385.89	225.54
386.27	225.52
386.64	225.45
387.02	225.41
387.40	225.38
387.78	225.34
388.15	225.33
388.53	225.30
388.91	225.29
389.29	225.25
389.66	225.21
390.04	225.18
390.42	225.17
390.79	225.15
391.17	225.12
391.55	224.95
391.92	224.95
392.30	224.96
392.68	224.92
393.05	224.89
393.43	224.87
393.81	224.84
394.18	224.80
394.56	224.84
394.94	224.87
395.31	224.84
395.69	224.86
396.06	224.89
396.44	224.91
396.82	224.93
397.19	224.99
397.57	225.00
397.95	225.03
398.32	225.04
398.70	225.08
399.07	225.15
399.45	225.19
399.82	225.23
400.20	225.26
400.58	225.33
400.95	225.39
401.33	225.45
401.70	225.61
402.08	225.68
402.45	225.72
402.83	225.83
403.20	225.94
403.58	226.01
403.95	226.12
404.33	226.22
404.71	226.31
405.08	226.48
405.46	226.63
405.83	226.79
406.21	226.96
406.58	227.10
406.96	227.27
407.33	227.44
407.70	227.62
408.08	227.91
408.45	228.11
408.83	228.32
409.20	228.56
409.58	228.73
409.95	229.01
410.33	229.32
410.70	229.54
411.08	229.81
411.45	230.11
411.82	230.41
412.20	230.80
412.57	231.26
412.95	231.56
413.32	231.96
413.69	232.37
414.07	232.81
414.44	233.30
414.82	233.78
415.19	234.35
415.56	234.90
415.94	235.41
416.31	236.07
416.68	236.68
417.06	237.37
417.43	238.07
417.81	238.83
418.18	239.57
418.55	240.42
418.93	241.30
419.30	242.21
419.67	243.13
420.04	244.04
420.42	244.99
420.79	246.17
421.16	247.32
421.54	248.48
421.91	249.71
422.28	250.96
422.66	252.28
423.03	253.58
423.40	254.91
423.77	256.32
424.15	257.74
424.52	259.24
424.89	260.90
425.26	262.43
425.64	263.87
426.01	265.48
426.38	267.12
426.75	268.78
427.13	270.52
427.50	272.30
427.87	274.17
428.24	276.04
428.61	277.77
428.99	279.70
429.36	281.77
429.73	283.77
430.10	285.74
430.47	287.81
430.85	289.92
431.22	292.10
431.59	294.51
431.96	296.73
432.33	299.19
432.70	301.50
433.08	304.29
433.45	306.93
433.82	309.52
434.19	312.38
434.56	315.21
434.93	317.83
435.30	320.44
435.68	323.29
436.05	326.11
436.42	328.88
436.79	331.34
437.16	334.03
437.53	336.89
437.90	339.68
438.27	342.35
438.64	345.10
439.01	347.69
439.38	349.86
439.75	352.03
440.13	354.48
440.50	356.78
440.87	358.60
441.24	360.50
441.61	362.61
441.98	364.07
442.35	365.80
442.72	367.61
443.09	369.40
443.46	370.38
443.83	370.95
444.20	371.45
444.57	372.29
444.94	372.64
445.31	372.95
445.68	373.35
446.05	373.48
446.42	373.15
446.79	372.74
447.16	372.35
447.53	372.03
447.90	370.89
448.27	369.74
448.64	368.19
449.01	367.05
449.37	365.11
449.74	363.23
450.11	361.07
450.48	358.63
450.85	356.13
451.22	354.07
451.59	352.07
451.96	350.15
452.33	347.59
452.70	345.20
453.07	342.36
453.43	339.45
453.80	336.69
454.17	334.05
454.54	331.54
454.91	328.80
455.28	326.11
455.65	323.67
456.02	321.27
456.38	319.11
456.75	316.50
457.12	314.25
457.49	312.07
457.86	309.89
458.23	308.08
458.59	306.04
458.96	303.98
459.33	302.16
459.70	300.32
460.07	298.82
460.43	297.12
460.80	295.57
461.17	294.15
461.54	292.64
461.91	291.25
462.27	289.78
462.64	288.56
463.01	287.26
463.38	285.98
463.74	284.65
464.11	283.52
464.48	282.54
464.85	281.48
465.21	280.63
465.58	279.74
465.95	278.65
466.32	277.77
466.68	276.82
467.05	275.94
467.42	275.07
467.78	274.17
468.15	273.31
468.52	272.64
468.88	271.78
469.25	271.09
469.62	270.46
469.98	269.84
470.35	269.23
470.72	268.65
471.08	268.02
471.45	267.51
471.82	267.03
472.18	266.43
472.55	266.01
472.92	265.49
473.28	265.03
473.65	264.61
474.02	264.18
474.38	263.85
474.75	263.54
475.11	263.20
475.48	262.97
475.85	262.75
476.21	262.49
476.58	262.31
476.94	262.12
477.31	261.99
477.67	261.86
478.04	261.75
478.41	261.69
478.77	261.72
479.14	261.64
479.50	261.60
479.87	261.70
480.23	261.76
480.60	261.84
480.96	261.95
481.33	262.20
481.69	262.41
482.06	262.63
482.42	262.83
482.79	263.06
483.15	263.39
483.52	263.77
483.88	264.12
484.25	264.52
484.61	264.94
484.98	265.35
485.34	265.89
485.71	266.49
486.07	267.09
486.44	267.67
486.80	268.35
487.17	269.10
487.53	269.88
487.90	270.73
488.26	271.65
488.62	272.62
488.99	273.55
489.35	274.56
489.72	275.68
490.08	276.84
490.44	278.09
490.81	279.42
491.17	280.75
491.54	282.25
491.90	283.76
492.26	285.44
492.63	287.20
492.99	288.99
493.36	290.89
493.72	292.95
494.08	295.04
494.45	297.27
494.81	299.60
495.17	302.00
495.54	304.56
495.90	307.24
496.26	310.07
496.63	313.02
496.99	316.13
497.35	319.40
497.72	322.79
498.08	326.35
498.44	329.97
498.80	333.92
499.17	337.94
499.53	342.11
499.89	346.44
500.26	350.92
500.62	355.60
500.98	360.50
501.34	365.50
501.71	370.83
502.07	376.24
502.43	381.80
502.79	387.61
503.16	393.65
503.52	399.87
503.88	406.29
504.24	412.89
504.60	419.78
504.97	426.88
505.33	434.19
505.69	441.85
506.05	449.64
506.41	457.39
506.78	465.49
507.14	473.89
507.50	482.54
507.86	491.46
508.22	500.62
508.59	509.76
508.95	519.29
509.31	528.99
509.67	539.11
510.03	549.43
510.39	559.89
510.75	570.56
511.12	581.45
511.48	592.57
511.84	603.90
512.20	615.28
512.56	627.09
512.92	639.11
513.28	651.34
513.64	663.70
514.00	676.39
514.37	689.25
514.73	702.17
515.09	715.08
515.45	728.25
515.81	741.58
516.17	755.35
516.53	769.31
516.89	783.37
517.25	797.30
517.61	811.60
517.97	825.89
518.33	840.13
518.69	854.62
519.05	869.38
519.41	884.38
519.77	899.76
520.13	915.00
520.49	930.18
520.85	945.32
521.21	960.80
521.57	976.79
521.93	992.21
522.29	1008.46
522.65	1024.50
523.01	1040.39
523.37	1056.28
523.73	1072.25
524.09	1088.22
524.45	1104.27
524.81	1120.69
525.17	1137.08
525.53	1153.78
525.89	1170.45
526.25	1187.07
526.61	1203.27
526.97	1219.72
527.33	1235.90
527.68	1252.24
528.04	1268.54
528.40	1284.83
528.76	1301.64
529.12	1317.96
529.48	1334.68
529.84	1350.39
530.20	1366.80
530.56	1383.65
530.91	1400.73
531.27	1417.26
531.63	1433.40
531.99	1449.75
532.35	1465.41
532.71	1481.05
533.07	1497.00
533.42	1512.67
533.78	1528.56
534.14	1544.60
534.50	1559.76
534.86	1575.31
535.21	1590.27
535.57	1605.86
535.93	1621.13
536.29	1635.65
536.65	1650.36
537.00	1664.84
537.36	1679.84
537.72	1694.06
538.08	1708.31
538.44	1721.92
538.79	1735.51
539.15	1748.86
539.51	1762.31
539.87	1776.48
540.22	1789.99
540.58	1803.58
540.94	1816.68
541.29	1829.25
541.65	1841.66
542.01	1854.59
542.37	1866.80
542.72	1879.00
543.08	1890.53
543.44	1902.76
543.79	1913.78
544.15	1924.58
544.51	1935.99
544.87	1946.86
545.22	1957.48
545.58	1967.48
545.94	1977.13
546.29	1986.97
546.65	1996.73
547.01	2005.88
547.36	2014.41
547.72	2022.75
548.07	2030.36
548.43	2038.33
548.79	2046.21
549.14	2053.75
549.50	2060.94
549.86	2068.43
550.21	2075.74
550.57	2082.91
550.92	2089.31
551.28	2096.20
551.64	2103.24
551.99	2109.74
552.35	2115.80
552.70	2121.87
553.06	2127.87
553.41	2134.17
553.77	2140.12
554.13	2146.26
554.48	2152.44
554.84	2158.04
555.19	2163.30
555.55	2168.54
555.90	2172.99
556.26	2178.00
556.61	2182.59
556.97	2187.08
557.32	2191.34
557.68	2195.48
558.03	2199.83
558.39	2203.66
558.74	2208.47
559.10	2212.43
559.45	2215.97
559.81	2220.28
560.16	2224.17
560.52	2227.51
560.87	2230.82
561.23	2233.58
561.58	2236.52
561.94	2239.14
562.29	2241.49
562.64	2244.31
563.00	2246.90
563.35	2250.57
563.71	2253.69
564.06	2256.97
564.42	2259.88
564.77	2262.33
565.12	2264.74
565.48	2266.61
565.83	2268.68
566.19	2270.12
566.54	2271.14
566.89	2272.50
567.25	2273.28
567.60	2274.77
567.96	2276.56
568.31	2277.51
568.66	2278.77
569.02	2279.47
569.37	2279.78
569.72	2280.73
570.08	2281.12
570.43	2281.36
570.78	2281.01
571.14	2279.76
571.49	2278.55
571.84	2278.36
572.20	2277.57
572.55	2276.66
572.90	2275.30
573.26	2274.05
573.61	2272.44
573.96	2270.88
574.31	2268.02
574.67	2265.12
575.02	2261.63
575.37	2258.17
575.72	2254.65
576.08	2251.34
576.43	2248.06
576.78	2244.68
577.13	2241.79
577.49	2238.80
577.84	2235.61
578.19	2232.02
578.54	2228.53
578.90	2224.58
579.25	2219.10
579.60	2214.21
579.95	2209.20
580.30	2204.50
580.66	2199.39
581.01	2194.56
581.36	2189.85
581.71	2185.96
582.06	2181.79
582.42	2177.57
582.77	2172.76
583.12	2168.35
583.47	2163.92
583.82	2159.30
584.17	2154.23
584.53	2148.78
584.88	2143.31
585.23	2137.74
585.58	2132.40
585.93	2127.18
586.28	2122.52
586.63	2117.75
586.98	2112.84
587.34	2108.45
587.69	2103.65
588.04	2098.76
588.39	2093.34
588.74	2086.97
589.09	2080.95
589.44	2074.18
589.79	2068.20
590.14	2062.60
590.49	2056.23
590.84	2049.83
591.19	2043.76
591.54	2037.34
591.89	2030.21
592.25	2023.56
592.60	2016.39
592.95	2009.04
593.30	2001.83
593.65	1994.38
594.00	1987.56
594.35	1980.61
594.70	1972.67
595.05	1965.58
595.40	1958.38
595.75	1950.91
596.10	1944.81
596.45	1938.29
596.80	1932.49
597.15	1926.07
597.50	1919.20
597.85	1912.82
598.19	1906.47
598.54	1899.69
598.89	1893.26
599.24	1887.44
599.59	1880.98
599.94	1874.81
600.29	1868.54
600.64	1861.94
600.99	1854.68
601.34	1847.86
601.69	1840.84
602.04	1834.16
602.39	1827.02
602.74	1820.19
603.08	1813.61
603.43	1807.12
603.78	1799.78
604.13	1792.57
604.48	1785.31
604.83	1778.48
605.18	1771.74
605.53	1763.91
605.87	1755.90
606.22	1748.69
606.57	1740.80
606.92	1733.32
607.27	1726.32
607.62	1719.54
607.96	1712.37
608.31	1705.87
608.66	1698.30
609.01	1690.92
609.36	1683.27
609.70	1675.21
610.05	1667.15
610.40	1659.53
610.75	1651.29
611.10	1643.73
611.44	1635.32
611.79	1627.39
612.14	1618.80
612.49	1609.72
612.83	1601.27
613.18	1593.25
613.53	1585.30
613.88	1576.79
614.22	1568.72
614.57	1560.12
614.92	1552.06
615.27	1544.57
615.61	1536.19
615.96	1528.23
616.31	1520.54
616.65	1513.28
617.00	1505.92
617.35	1498.46
617.70	1490.24
618.04	1481.72
618.39	1473.55
618.74	1465.93
619.08	1457.71
619.43	1450.12
619.78	1443.15
620.12	1436.01
620.47	1428.46
620.82	1420.20
621.16	1412.79
621.51	1405.14
621.85	1397.50
622.20	1388.97
622.55	1380.60
622.89	1372.81
623.24	1365.16
623.59	1357.74
623.93	1350.15
624.28	1342.93
624.62	1335.36
624.97	1328.11
625.32	1321.35
625.66	1314.39
626.01	1307.33
626.35	1299.93
626.70	1292.20
627.04	1284.54
627.39	1276.78
627.73	1269.45
628.08	1262.65
628.43	1255.48
628.77	1248.18
629.12	1240.70
629.46	1233.56
629.81	1226.10
630.15	1218.88
630.50	1211.53
630.84	1203.40
631.19	1195.45
631.53	1187.85
631.88	1180.36
632.22	1172.77
632.57	1165.33
632.91	1157.73
633.26	1150.35
633.60	1142.87
633.95	1135.80
634.29	1128.70
634.64	1122.07
634.98	1114.65
635.32	1107.45
635.67	1100.69
636.01	1094.04
636.36	1087.21
636.70	1080.67
637.05	1074.13
637.39	1067.61
637.73	1061.19
638.08	1055.36
638.42	1049.47
638.77	1043.05
639.11	1036.32
639.45	1030.00
639.80	1023.46
640.14	1017.04
640.49	1010.48
640.83	1004.23
641.17	997.92
641.52	991.53
641.86	984.95
642.20	979.16
642.55	972.80
642.89	966.43
643.23	959.85
643.58	954.12
643.92	947.97
644.26	941.99
644.61	935.97
644.95	929.88
645.29	923.26
645.64	916.54
645.98	910.21
646.32	904.42
646.66	898.40
647.01	892.60
647.35	886.94
647.69	881.09
648.04	875.47
648.38	869.79
648.72	863.89
649.06	857.91
649.41	851.93
649.75	846.01
650.09	840.06
650.43	834.28
650.78	828.18
651.12	822.26
651.46	816.53
651.80	810.91
652.14	805.52
652.49	800.21
652.83	795.04
653.17	789.39
653.51	783.77
653.85	778.35
654.20	772.75
654.54	766.71
654.88	761.04
655.22	755.22
655.56	749.53
655.90	744.02
656.25	738.85
656.59	733.54
656.93	728.53
657.27	723.47
657.61	718.13
657.95	713.05
658.29	707.96
658.64	702.67
658.98	697.33
659.32	691.89
659.66	686.71
660.00	681.46
660.34	676.56
660.68	671.64
661.02	666.66
661.36	662.00
661.70	657.57
662.05	653.19
662.39	648.89
662.73	644.48
663.07	640.19
663.41	635.75
663.75	631.31
664.09	626.71
664.43	622.28
664.77	618.19
665.11	613.90
665.45	609.74
665.79	605.73
666.13	601.67
666.47	597.54
666.81	593.43
667.15	589.32
667.49	585.36
667.83	581.51
668.17	577.59
668.51	573.47
668.85	569.46
669.19	565.56
669.53	561.76
669.87	557.93
670.21	554.20
670.55	550.54
670.89	547.12
671.23	543.72
671.57	540.22
671.91	536.60
672.25	533.09
672.58	529.57
672.92	526.12
673.26	522.89
673.60	519.77
673.94	516.60
674.28	513.69
674.62	510.73
674.96	507.67
675.30	504.78
675.64	501.86
675.97	499.02
676.31	496.15
676.65	493.25
676.99	490.45
677.33	487.63
677.67	484.81
678.01	481.79
678.34	478.77
678.68	475.91
679.02	473.15
679.36	470.40
679.70	467.71
680.04	464.99
680.37	462.15
680.71	459.37
681.05	456.79
681.39	454.05
681.73	451.41
682.06	448.86
682.40	446.29
682.74	443.73
683.08	441.22
683.42	438.67
683.75	436.14
684.09	433.57
684.43	431.09
684.77	428.66
685.10	426.27
685.44	423.93
685.78	421.63
686.12	419.34
686.45	417.05
686.79	414.73
687.13	412.50
687.46	410.30
687.80	408.10
688.14	405.89
688.48	403.83
688.81	401.63
689.15	399.47
689.49	397.27
689.82	395.23
690.16	393.15
690.50	391.18
690.83	389.23
691.17	387.28
691.51	385.31
691.84	383.40
692.18	381.46
692.52	379.56
692.85	377.62
693.19	375.74
693.52	373.90
693.86	372.10
694.20	370.33
694.53	368.57
694.87	366.70
695.21	364.89
695.54	363.01
695.88	361.26
696.21	359.54
696.55	357.92
696.88	356.24
697.22	354.52
697.56	352.86
697.89	351.20
698.23	349.62
698.56	348.05
698.90	346.50
699.23	344.87
699.57	343.32
699.90	341.76
700.24	340.22
700.58	338.71
700.91	337.25
701.25	335.79
701.58	334.42
701.92	333.10
702.25	331.75
702.59	330.40
702.92	329.12
703.26	327.85
703.59	326.55
703.93	325.36
704.26	324.19
704.60	322.91
704.93	321.66
705.26	320.38
705.60	319.19
705.93	318.00
706.27	316.97
706.60	315.89
706.94	314.83
707.27	313.71
707.61	312.64
707.94	311.59
708.27	310.51
708.61	309.40
708.94	308.38
709.28	307.40
709.61	306.47
709.94	305.53
710.28	304.50
710.61	303.51
710.95	302.44
711.28	301.46
711.61	300.51
711.95	299.58
712.28	298.66
712.61	297.73
712.95	296.82
713.28	295.94
713.61	295.03
713.95	294.14
714.28	293.30
714.61	292.45
714.95	291.58
715.28	290.74
715.61	289.89
715.95	289.02
716.28	288.14
716.61	287.28
716.95	286.40
717.28	285.66
717.61	284.87
717.94	284.13
718.28	283.34
718.61	282.64
718.94	281.93
719.27	281.27
719.61	280.59
719.94	279.89
720.27	279.19
720.60	278.57
720.94	277.94
721.27	277.31
721.60	276.72
721.93	276.11
722.27	275.55
722.60	275.00
722.93	274.43
723.26	273.93
723.59	273.35
723.93	272.85
724.26	272.26
724.59	271.70
724.92	271.16
725.25	270.66
725.59	270.15
725.92	269.65
726.25	269.18
726.58	268.69
726.91	268.22
727.24	267.73
727.57	267.21
727.91	266.68
728.24	266.23
728.57	265.74
728.90	265.30
729.23	264.80
729.56	264.35
729.89	263.90
730.22	263.39
730.55	262.92
730.89	262.44
731.22	261.97
731.55	261.52
731.88	261.13
732.21	260.70
732.54	260.25
732.87	259.81
733.20	259.33
733.53	258.92
733.86	258.53
734.19	258.13
734.52	257.78
734.85	257.45
735.18	257.02
735.51	256.68
735.84	256.34
736.17	256.01
736.50	255.62
736.83	255.36
737.16	255.05
737.49	254.77
737.82	254.43
738.15	254.14
738.48	253.78
738.81	253.41
739.14	253.10
739.47	252.79
739.80	252.47
740.13	252.20
740.46	251.89
740.79	251.55
741.12	251.23
741.45	250.90
741.78	250.58
742.11	250.31
742.44	249.97
742.77	249.68
743.10	249.34
743.43	249.02
743.75	248.63
744.08	248.47
744.41	248.16
744.74	247.89
745.07	247.59
745.40	247.40
745.73	247.20
746.06	246.93
746.39	246.64
746.71	246.39
747.04	246.11
747.37	245.85
747.70	245.62
748.03	245.38
748.36	245.15
748.68	244.90
749.01	244.66
749.34	244.44
749.67	244.18
750.00	243.99
750.33	243.88
750.65	243.67
750.98	243.31
751.31	243.09
751.64	242.86
751.97	242.72
752.29	242.51
752.62	242.26
752.95	242.04
753.28	241.87
753.60	241.67
753.93	241.53
754.26	241.33
754.59	241.11
754.91	240.91
755.24	240.73
755.57	240.56
755.90	240.35
756.22	240.14
756.55	239.95
756.88	239.74
757.20	239.48
757.53	239.28
757.86	239.12
758.19	238.98
758.51	238.84
758.84	238.57
759.17	238.41
759.49	238.24
759.82	238.12
760.15	237.96
760.47	237.79
760.80	237.58
761.13	237.42
761.45	237.27
761.78	237.15
762.11	237.00
762.43	236.85
762.76	236.72
763.08	236.61
763.41	236.47
763.74	236.33
764.06	236.19
764.39	236.05
764.71	235.91
765.04	235.75
765.37	235.61
765.69	235.49
766.02	235.38
766.34	235.24
766.67	235.08
767.00	234.98
767.32	234.90
767.65	234.82
767.97	234.73
768.30	234.57
768.62	234.43
768.95	234.28
769.27	234.18
769.60	234.08
769.92	233.94
770.25	233.84
770.57	233.71
770.90	233.58
771.22	233.47
771.55	233.37
771.87	233.31
772.20	233.18
772.52	233.15
772.85	233.12
773.17	233.01
773.50	232.90
773.82	232.77
774.15	232.65
774.47	232.55
774.80	232.42
775.12	232.34
775.45	232.26
775.77	232.21
776.09	232.11
776.42	232.02
776.74	231.98
777.07	231.87
777.39	231.84
777.72	231.78
778.04	231.72
778.36	231.66
778.69	231.56
779.01	231.50
779.33	231.35
779.66	231.20
779.98	231.11
780.31	231.05
780.63	231.05
780.95	231.03
781.28	230.95
781.60	230.93
781.92	230.88
782.25	230.82
782.57	230.73
782.89	230.64
783.22	230.59
783.54	230.52
783.86	230.47
784.19	230.40
784.51	230.40
784.83	230.34
785.16	230.26
785.48	230.22
785.80	230.18
786.12	230.16
786.45	230.10
786.77	230.09
787.09	230.02
787.42	229.93
787.74	229.86
788.06	229.80
788.38	229.75
788.71	229.70
789.03	229.67
789.35	229.65
789.67	229.66
789.99	229.66
790.32	229.62
790.64	229.60
790.96	229.65
791.28	229.53
791.61	229.51
791.93	229.51
792.25	229.46
792.57	229.50
792.89	229.45
793.21	229.45
793.54	229.39
793.86	229.35
794.18	229.33
794.50	229.27
794.82	229.26
795.14	229.25
795.47	229.25
795.79	229.24
796.11	229.17
796.43	229.12
796.75	229.05
797.07	229.02
797.39	228.99
797.71	228.88
798.04	228.90
798.36	228.87
798.68	228.85
799.00	228.84
799.32	228.74
799.64	228.71
799.96	228.68
800.28	228.70
800.60	228.70
800.92	228.66
801.24	228.64
801.56	228.63
801.89	228.58
802.21	228.54
802.53	228.50
802.85	228.51
803.17	228.50
803.49	228.43
803.81	228.40
804.13	228.36
804.45	228.30
804.77	228.24
805.09	228.19
805.41	228.10
805.73	228.06
806.05	228.01
806.37	227.95
806.69	227.91
807.01	227.84
807.33	227.81
807.65	227.77
807.97	227.76
808.28	227.68
808.60	227.61
808.92	227.56
809.24	227.58
809.56	227.53
809.88	227.49
810.20	227.47
810.52	227.42
810.84	227.34
811.16	227.35
811.48	227.33
811.80	227.35
812.12	227.34
812.43	227.31
812.75	227.31
813.07	227.30
813.39	227.25
813.71	227.19
814.03	227.14
814.35	227.13
814.67	227.09
814.98	227.04
815.30	227.05
815.62	227.03
815.94	226.93
816.26	226.95
816.58	226.91
816.89	226.92
817.21	226.90
817.53	226.94
817.85	226.92
818.17	226.88
818.48	226.82
818.80	226.79
819.12	226.79
819.44	226.77
819.76	226.74
820.07	226.76
820.39	226.78
820.71	226.79
821.03	226.74
821.34	226.72
821.66	226.77
821.98	226.74
822.30	226.70
822.61	226.77
822.93	226.72
823.25	226.71
823.57	226.69
823.88	226.71
824.20	226.71
824.52	226.70
824.83	226.72
825.15	226.74
825.47	226.73
825.79	226.71
826.10	226.70
826.42	226.69
826.74	226.68
827.05	226.67
827.37	226.65
827.69	226.69
828.00	226.67
828.32	226.62
828.64	226.61
828.95	226.68
829.27	226.66
829.58	226.65
829.90	226.64
830.22	226.63
830.53	226.61
830.85	226.59
831.17	226.54
831.48	226.52
831.80	226.49
832.11	226.52
832.43	226.51
832.75	226.55
833.06	226.62
833.38	226.59
833.69	226.59
834.01	226.60
834.32	226.59
834.64	226.60
834.96	226.64
835.27	226.65
835.59	226.61
835.90	226.59
836.22	226.56
836.53	226.53
836.85	226.52
837.16	226.63
837.48	226.62
837.79	226.67
838.11	226.67
838.42	226.65
838.74	226.63
839.05	226.62
839.37	226.59
839.68	226.51
840.00	226.50
840.31	226.53
840.63	226.52
840.94	226.49
841.26	226.43
841.57	226.43
841.88	226.41
842.20	226.36
842.51	226.32
842.83	226.34
843.14	226.44
843.46	226.43
843.77	226.34
844.08	226.33
844.40	226.30
844.71	226.27
845.03	226.29
845.34	226.28
845.65	226.23
845.97	226.22
846.28	226.25
846.60	226.22
846.91	226.17
847.22	226.13
847.54	226.12
847.85	226.16
848.16	226.11
848.48	226.11
848.79	226.17
849.10	226.21
849.42	226.21
849.73	226.11
850.04	226.09
850.36	226.04
850.67	226.03
850.98	226.03
851.30	226.06
851.61	226.05
851.92	226.02
852.23	226.08
852.55	226.05
852.86	226.02
853.17	226.07
853.49	226.08
853.80	226.09
854.11	226.12
854.42	226.11
854.74	226.10
855.05	226.10
855.36	226.03
855.67	226.02
855.99	225.99
856.30	226.07
856.61	226.07
856.92	226.11
857.23	226.12
857.55	226.07
857.86	226.03
858.17	226.02
858.48	226.02
858.79	225.97
859.11	225.98
859.42	225.96
859.73	225.90
860.04	225.89
860.35	225.86
860.66	225.83
860.98	225.82
861.29	225.82
861.60	225.80
861.91	225.82
862.22	225.79
862.53	225.77
862.84	225.67
863.16	225.70
863.47	225.66
863.78	225.62
864.09	225.65
864.40	225.68
864.71	225.68
865.02	225.67
865.33	225.67
865.64	225.66
865.95	225.65
866.27	225.73
866.58	225.71
866.89	225.74
867.20	225.68
867.51	225.68
867.82	225.67
868.13	225.71
868.44	225.68
868.75	225.69
869.06	225.71
869.37	225.73
869.68	225.66
869.99	225.66
870.30	225.67
870.61	225.67
870.92	225.64
871.23	225.65
871.54	225.70
871.85	225.69
872.16	225.69
872.47	225.68
872.78	225.61
873.09	225.63
873.40	225.61
873.71	225.66
874.02	225.66
874.33	225.65
874.64	225.61
874.95	225.66
875.26	225.61
875.56	225.59
875.87	225.58
876.18	225.58
876.49	225.70
876.80	225.69
877.11	225.65
877.42	225.67
877.73	225.61
878.04	225.54
878.35	225.56
878.66	225.56
878.96	225.54
879.27	225.54
879.58	225.52
879.89	225.49
880.20	225.50
880.51	225.49
880.82	225.49
881.12	225.50
881.43	225.44
881.74	225.44
882.05	225.45
882.36	225.45
882.67	225.49
882.97	225.36
883.28	225.33
883.59	225.34
883.90	225.33
884.21	225.36
884.51	225.38
884.82	225.35
885.13	225.35
885.44	225.34
885.74	225.32
886.05	225.30
886.36	225.29
886.67	225.26
886.98	225.29
887.28	225.29
887.59	225.25
887.90	225.27
888.20	225.28
888.51	225.27
888.82	225.22
889.13	225.22
889.43	225.32
889.74	225.31
890.05	225.30
890.35	225.29
890.66	225.27
890.97	225.25
891.28	225.25
891.58	225.24
891.89	225.28
892.20	225.31
892.50	225.32
892.81	225.31
893.12	225.28
893.42	225.23
893.73	225.27
894.04	225.29
894.34	225.31
894.65	225.28
894.95	225.26
895.26	225.30
895.57	225.34
895.87	225.22
896.18	225.25
896.48	225.25
896.79	225.26
897.10	225.30
897.40	225.31
897.71	225.32
898.01	225.30
898.32	225.31
898.63	225.29
898.93	225.28
899.24	225.31
899.54	225.36
899.85	225.38
900.15	225.35
900.46	225.34
900.76	225.34
901.07	225.37
901.38	225.40
901.68	225.40
901.99	225.35
902.29	225.36
902.60	225.37
902.90	225.38
903.21	225.37
903.51	225.36
903.82	225.39
904.12	225.43
904.43	225.46
904.73	225.43
905.03	225.45
905.34	225.57
905.64	225.55
905.95	225.54
906.25	225.51
906.56	225.51
906.86	225.53
907.17	225.50
907.47	225.51
907.77	225.48
908.08	225.48
908.38	225.50
908.69	225.54
908.99	225.58
909.30	225.58
909.60	225.60
909.90	225.59
910.21	225.54
910.51	225.46
910.81	225.47
911.12	225.52
911.42	225.52
911.73	225.39
912.03	225.41
912.33	225.44
912.64	225.45
912.94	225.45
913.24	225.42
913.55	225.43
913.85	225.45
914.15	225.46
914.46	225.47
914.76	225.43
915.06	225.41
915.37	225.36
915.67	225.38
915.97	225.37
916.27	225.36
916.58	225.39
916.88	225.41
917.18	225.37
917.49	225.42
917.79	225.41
918.09	225.46
918.39	225.47
918.70	225.45
919.00	225.46
919.30	225.48
919.60	225.49
919.91	225.48
920.21	225.47
920.51	225.46
920.81	225.43
921.12	225.47
921.42	225.47
921.72	225.48
922.02	225.49
922.32	225.51
922.63	225.50
922.93	225.54
923.23	225.55
923.53	225.55
923.83	225.47
924.13	225.46
924.44	225.43
924.74	225.43
925.04	225.45
925.34	225.44
925.64	225.43
925.94	225.46
926.24	225.50
926.55	225.48
926.85	225.49
927.15	225.50
927.45	225.49
927.75	225.49
928.05	225.49
928.35	225.47
928.65	225.43
928.95	225.46
929.26	225.42
929.56	225.43
929.86	225.45
930.16	225.43
930.46	225.44
930.76	225.45
931.06	225.42
931.36	225.43
931.66	225.43
931.96	225.43
932.26	225.41
932.56	225.36
932.86	225.36
933.16	225.38
933.46	225.34
933.76	225.31
934.06	225.32
934.36	225.38
934.66	225.36
934.96	225.39
935.26	225.37
935.56	225.38
935.86	225.34
936.16	225.34
936.46	225.36
936.76	225.37
937.06	225.36
937.36	225.36
937.66	225.35
937.96	225.33
938.26	225.32
938.56	225.32
938.86	225.35
939.16	225.39
939.46	225.38
939.76	225.41
940.06	225.42
940.35	225.40
940.65	225.31
940.95	225.34
941.25	225.31
941.55	225.31
941.85	225.30
942.15	225.34
942.45	225.39
942.75	225.36
943.04	225.34
943.34	225.35
943.64	225.34
943.94	225.34
944.24	225.36
944.54	225.38
944.84	225.37
945.13	225.36
945.43	225.32
945.73	225.34
946.03	225.35
946.33	225.33
946.62	225.35
946.92	225.37
947.22	225.37
947.52	225.39
947.82	225.41
948.11	225.40
948.41	225.40
948.71	225.35
949.01	225.33
949.31	225.34
949.60	225.32
949.90	225.35
950.20	225.32
950.50	225.30
950.79	225.27
951.09	225.27
951.39	225.25
951.69	225.25
951.98	225.26
952.28	225.27
952.58	225.28
952.87	225.24
953.17	225.23
953.47	225.22
953.76	225.21
954.06	225.19
954.36	225.16
954.66	225.15
954.95	225.16
955.25	225.21
955.55	225.19
955.84	225.18
956.14	225.16
956.44	225.14
956.73	225.12
957.03	225.15
957.32	225.14
957.62	225.12
957.92	225.16
958.21	225.10
958.51	225.16
958.81	225.18
959.10	225.17
959.40	225.20
959.69	225.17
959.99	225.16
960.29	225.16
960.58	225.15
960.88	225.17
961.17	225.17
961.47	225.15
961.76	225.10
962.06	225.12
962.36	225.11
962.65	225.14
962.95	225.16
963.24	225.12
963.54	225.12
963.83	225.13
964.13	225.10
964.42	225.08
964.72	224.99
965.01	224.99
965.31	225.00
965.60	224.96
965.90	225.05
966.19	225.05
966.49	225.02
966.78	225.02
967.08	225.00
967.37	225.00
967.67	224.98
967.96	225.04
968.26	225.06
968.55	225.10
968.85	225.09
969.14	225.09
969.43	225.09
969.73	225.08
970.02	225.10
970.32	225.09
970.61	225.08
970.91	225.10
971.20	225.07
971.49	225.08
971.79	225.10
972.08	225.05
972.38	225.05
972.67	225.06
972.96	225.10
973.26	225.08
973.55	225.12
973.85	225.12
974.14	225.14
974.43	225.11
974.73	225.07
975.02	225.07
975.31	225.05
975.61	225.08
975.90	225.06
976.19	225.05
976.49	225.07
976.78	225.13
977.07	225.14
977.37	225.15
977.66	225.15
977.95	225.18
978.24	225.17
978.54	225.18
978.83	225.19
979.12	225.20
979.42	225.23
979.71	225.21
980.00	225.23
980.29	225.22
980.59	225.24
980.88	225.29
981.17	225.30
981.46	225.31
981.76	225.30
982.05	225.38
982.34	225.40
982.63	225.42
982.93	225.41
983.22	225.45
983.51	225.45
983.80	225.48
984.09	225.51
984.39	225.49
984.68	225.51
984.97	225.52
985.26	225.50
985.55	225.51
985.85	225.51
986.14	225.53
986.43	225.53
986.72	225.55
987.01	225.50
987.30	225.51
987.59	225.52
987.89	225.56
988.18	225.52
988.47	225.50
988.76	225.49
989.05	225.47
989.34	225.41
989.63	225.48
989.92	225.45
990.22	225.43
990.51	225.42
990.80	225.40
991.09	225.40
991.38	225.40
991.67	225.34
991.96	225.33
992.25	225.35
992.54	225.33
992.83	225.30
993.12	225.29
993.41	225.29
993.70	225.32
993.99	225.29
994.28	225.29
994.58	225.29
994.87	225.25
995.16	225.24
995.45	225.26
995.74	225.20
996.03	225.20
996.32	225.16
996.61	225.22
996.90	225.18
997.19	225.14
997.48	225.17
997.77	225.17
998.06	225.15
998.34	225.10
998.63	225.08
998.92	225.09
999.21	225.12
999.50	225.15
999.79	225.11
1000.08	225.12
1000.37	225.11
1000.66	225.12
1000.95	225.12
1001.24	225.12
1001.53	225.12
1001.82	225.08
1002.11	225.05
1002.40	225.11
1002.68	225.08
1002.97	225.16
1003.26	225.15
1003.55	225.13
1003.84	225.13
1004.13	225.18
1004.42	225.18
1004.71	225.20
1004.99	225.18
1005.28	225.18
1005.57	225.14
1005.86	225.12
1006.15	225.09
1006.44	225.07
1006.72	225.06
1007.01	225.06
1007.30	225.08
1007.59	225.06
1007.88	225.10
1008.17	225.11
1008.45	225.02
1008.74	225.00
1009.03	224.97
1009.32	224.97
1009.60	224.96
1009.89	224.95
1010.18	224.89
1010.47	224.88
1010.76	224.86
1011.04	224.87
1011.33	224.87
1011.62	224.86
1011.91	224.85
1012.19	224.86
1012.48	224.86
1012.77	224.86
1013.05	224.92
1013.34	224.91
1013.63	224.92
1013.92	224.91
1014.20	224.91
1014.49	224.96
1014.78	224.99
1015.06	224.92
1015.35	224.91
1015.64	224.91
1015.92	224.95
1016.21	224.99
1016.50	224.99
1016.78	225.02
1017.07	225.03
1017.36	225.02
1017.64	225.01
1017.93	225.05
1018.22	225.07
1018.50	225.07
1018.79	225.05
1019.08	224.99
1019.36	225.00
1019.65	224.97
1019.93	225.01
1020.22	225.02
1020.51	225.08
1020.79	225.06
1021.08	225.38
1021.36	224.64
1021.65	224.39
1021.94	224.96
1022.22	225.07
1022.51	224.58
1022.79	225.52
1023.08	225.24
1023.36	226.38
1023.65	225.07
>>>>>End Processed Spectral Data<<<<<
