SpectraSuite Data File
++++++++++++++++++++++++++++++++++++
Date: Fri Feb 01 17:38:06 EST 2013
User: group
Dark Spectrum Present: No
Reference Spectrum Present: No
Number of Sampled Component Spectra: 1
Spectrometers: USB2E7196
Integration Time (usec): 35000 (USB2E7196)
Spectra Averaged: 100 (USB2E7196)
Boxcar Smoothing: 10 (USB2E7196)
Correct for Electrical Dark: No (USB2E7196)
Strobe/Lamp Enabled: No (USB2E7196)
Correct for Detector Non-linearity: No (USB2E7196)
Correct for Stray Light: No (USB2E7196)
Number of Pixels in Processed Spectrum: 2048
>>>>>Begin Processed Spectral Data<<<<<
339.09	0.00
339.48	212.75
339.86	213.62
340.24	215.57
340.63	217.11
341.01	220.08
341.39	219.45
341.78	220.93
342.16	222.41
342.54	222.96
342.93	211.12
343.31	221.80
343.69	222.35
344.07	222.83
344.46	223.27
344.84	223.66
345.22	223.87
345.60	224.13
345.99	224.31
346.37	224.44
346.75	224.53
347.13	224.62
347.52	224.68
347.90	224.75
348.28	224.76
348.66	224.81
349.05	224.85
349.43	224.90
349.81	224.98
350.19	225.04
350.57	225.12
350.96	225.16
351.34	225.22
351.72	225.31
352.10	225.42
352.48	225.45
352.87	225.50
353.25	225.59
353.63	225.64
354.01	225.73
354.39	225.82
354.77	225.89
355.15	226.00
355.54	226.08
355.92	226.12
356.30	226.22
356.68	226.37
357.06	226.43
357.44	226.49
357.82	226.53
358.20	226.59
358.58	226.65
358.97	226.71
359.35	226.79
359.73	226.87
360.11	226.92
360.49	227.01
360.87	227.09
361.25	227.13
361.63	227.23
362.01	227.27
362.39	227.27
362.77	227.33
363.15	227.36
363.53	227.38
363.91	227.44
364.29	227.47
364.67	227.38
365.05	227.42
365.43	227.43
365.81	227.48
366.19	227.53
366.57	227.55
366.95	227.56
367.33	227.53
367.71	227.51
368.09	227.52
368.47	227.51
368.85	227.45
369.23	227.46
369.61	227.39
369.99	227.38
370.37	227.37
370.75	227.39
371.13	227.32
371.51	227.28
371.89	227.24
372.27	227.20
372.65	227.16
373.03	227.10
373.41	227.05
373.78	226.97
374.16	226.86
374.54	226.81
374.92	226.75
375.30	226.72
375.68	226.64
376.06	226.59
376.44	226.52
376.82	226.46
377.19	226.38
377.57	226.34
377.95	226.25
378.33	226.18
378.71	226.05
379.09	225.99
379.47	225.92
379.84	225.83
380.22	225.73
380.60	225.64
380.98	225.60
381.36	225.54
381.73	225.48
382.11	225.46
382.49	225.35
382.87	225.27
383.25	225.17
383.62	225.22
384.00	225.11
384.38	225.06
384.76	225.03
385.13	225.00
385.51	224.95
385.89	224.90
386.27	224.87
386.64	224.85
387.02	224.82
387.40	224.80
387.78	224.76
388.15	224.76
388.53	224.75
388.91	224.72
389.29	224.69
389.66	224.67
390.04	224.64
390.42	224.66
390.79	224.67
391.17	224.67
391.55	224.55
391.92	224.56
392.30	224.58
392.68	224.55
393.05	224.58
393.43	224.58
393.81	224.56
394.18	224.53
394.56	224.53
394.94	224.55
395.31	224.56
395.69	224.63
396.06	224.63
396.44	224.65
396.82	224.64
397.19	224.72
397.57	224.73
397.95	224.74
398.32	224.78
398.70	224.84
399.07	224.92
399.45	225.01
399.82	225.08
400.20	225.11
400.58	225.19
400.95	225.20
401.33	225.29
401.70	225.46
402.08	225.57
402.45	225.67
402.83	225.78
403.20	225.86
403.58	225.95
403.95	226.07
404.33	226.23
404.71	226.37
405.08	226.55
405.46	226.72
405.83	226.88
406.21	227.00
406.58	227.14
406.96	227.28
407.33	227.46
407.70	227.63
408.08	227.92
408.45	228.15
408.83	228.37
409.20	228.60
409.58	228.79
409.95	229.03
410.33	229.28
410.70	229.52
411.08	229.83
411.45	230.15
411.82	230.47
412.20	230.83
412.57	231.25
412.95	231.53
413.32	231.91
413.69	232.32
414.07	232.79
414.44	233.27
414.82	233.74
415.19	234.30
415.56	234.85
415.94	235.38
416.31	236.04
416.68	236.74
417.06	237.48
417.43	238.19
417.81	239.02
418.18	239.82
418.55	240.69
418.93	241.61
419.30	242.50
419.67	243.51
420.04	244.50
420.42	245.50
420.79	246.74
421.16	247.97
421.54	249.22
421.91	250.48
422.28	251.82
422.66	253.24
423.03	254.58
423.40	256.01
423.77	257.48
424.15	258.95
424.52	260.46
424.89	262.13
425.26	263.75
425.64	265.24
426.01	266.90
426.38	268.64
426.75	270.34
427.13	272.16
427.50	274.01
427.87	275.97
428.24	277.95
428.61	279.79
428.99	281.82
429.36	284.03
429.73	286.17
430.10	288.24
430.47	290.36
430.85	292.59
431.22	294.94
431.59	297.43
431.96	299.74
432.33	302.29
432.70	304.76
433.08	307.68
433.45	310.45
433.82	313.20
434.19	316.24
434.56	319.17
434.93	321.92
435.30	324.66
435.68	327.68
436.05	330.67
436.42	333.56
436.79	336.20
437.16	339.04
437.53	342.03
437.90	344.96
438.27	347.82
438.64	350.75
439.01	353.44
439.38	355.78
439.75	358.08
440.13	360.70
440.50	363.13
440.87	365.10
441.24	367.13
441.61	369.37
441.98	370.85
442.35	372.78
442.72	374.74
443.09	376.67
443.46	377.67
443.83	378.29
444.20	378.82
444.57	379.69
444.94	379.94
445.31	380.33
445.68	380.70
446.05	380.82
446.42	380.45
446.79	380.03
447.16	379.57
447.53	379.25
447.90	378.10
448.27	376.95
448.64	375.26
449.01	374.08
449.37	372.06
449.74	370.15
450.11	367.83
450.48	365.28
450.85	362.60
451.22	360.40
451.59	358.31
451.96	356.29
452.33	353.58
452.70	351.18
453.07	348.23
453.43	345.25
453.80	342.41
454.17	339.61
454.54	336.95
454.91	334.11
455.28	331.33
455.65	328.71
456.02	326.11
456.38	323.88
456.75	321.08
457.12	318.69
457.49	316.35
457.86	314.05
458.23	312.11
458.59	309.99
458.96	307.79
459.33	305.82
459.70	303.86
460.07	302.29
460.43	300.46
460.80	298.70
461.17	297.16
461.54	295.58
461.91	294.12
462.27	292.63
462.64	291.34
463.01	289.94
463.38	288.61
463.74	287.17
464.11	285.97
464.48	284.90
464.85	283.81
465.21	282.95
465.58	282.02
465.95	280.89
466.32	279.97
466.68	279.04
467.05	278.09
467.42	277.19
467.78	276.24
468.15	275.35
468.52	274.70
468.88	273.84
469.25	273.03
469.62	272.37
469.98	271.65
470.35	271.00
470.72	270.38
471.08	269.66
471.45	269.12
471.82	268.58
472.18	267.97
472.55	267.50
472.92	266.90
473.28	266.41
473.65	265.90
474.02	265.42
474.38	265.01
474.75	264.70
475.11	264.35
475.48	264.06
475.85	263.83
476.21	263.60
476.58	263.41
476.94	263.24
477.31	263.08
477.67	262.95
478.04	262.79
478.41	262.72
478.77	262.79
479.14	262.72
479.50	262.69
479.87	262.76
480.23	262.82
480.60	262.92
480.96	263.02
481.33	263.24
481.69	263.42
482.06	263.65
482.42	263.89
482.79	264.13
483.15	264.45
483.52	264.81
483.88	265.12
484.25	265.47
484.61	265.90
484.98	266.35
485.34	266.88
485.71	267.48
486.07	268.10
486.44	268.62
486.80	269.34
487.17	270.08
487.53	270.84
487.90	271.68
488.26	272.61
488.62	273.55
488.99	274.51
489.35	275.53
489.72	276.62
490.08	277.77
490.44	278.99
490.81	280.28
491.17	281.64
491.54	283.11
491.90	284.60
492.26	286.22
492.63	287.91
492.99	289.66
493.36	291.53
493.72	293.53
494.08	295.62
494.45	297.81
494.81	300.11
495.17	302.55
495.54	305.09
495.90	307.75
496.26	310.50
496.63	313.42
496.99	316.51
497.35	319.74
497.72	323.09
498.08	326.52
498.44	330.17
498.80	334.03
499.17	338.04
499.53	342.19
499.89	346.49
500.26	350.90
500.62	355.49
500.98	360.34
501.34	365.35
501.71	370.59
502.07	376.01
502.43	381.55
502.79	387.30
503.16	393.26
503.52	399.40
503.88	405.75
504.24	412.31
504.60	419.09
504.97	426.11
505.33	433.28
505.69	440.89
506.05	448.56
506.41	456.30
506.78	464.23
507.14	472.48
507.50	480.99
507.86	489.83
508.22	498.89
508.59	507.94
508.95	517.29
509.31	526.95
509.67	536.74
510.03	546.83
510.39	557.09
510.75	567.61
511.12	578.24
511.48	589.19
511.84	600.32
512.20	611.57
512.56	623.12
512.92	634.95
513.28	646.93
513.64	659.00
514.00	671.30
514.37	683.95
514.73	696.65
515.09	709.38
515.45	722.30
515.81	735.44
516.17	749.01
516.53	762.72
516.89	776.46
517.25	790.29
517.61	804.29
517.97	818.36
518.33	832.34
518.69	846.71
519.05	861.25
519.41	875.89
519.77	890.88
520.13	905.84
520.49	920.88
520.85	935.79
521.21	950.98
521.57	966.63
521.93	981.82
522.29	997.61
522.65	1013.30
523.01	1028.90
523.37	1044.44
523.73	1060.13
524.09	1075.62
524.45	1091.28
524.81	1107.41
525.17	1123.55
525.53	1139.80
525.89	1156.07
526.25	1172.39
526.61	1188.28
526.97	1204.51
527.33	1220.45
527.68	1236.51
528.04	1252.39
528.40	1268.39
528.76	1284.83
529.12	1301.00
529.48	1317.42
529.84	1333.05
530.20	1349.16
530.56	1365.68
530.91	1382.55
531.27	1398.84
531.63	1414.88
531.99	1431.08
532.35	1446.61
532.71	1462.14
533.07	1477.98
533.42	1493.56
533.78	1509.20
534.14	1524.91
534.50	1539.82
534.86	1555.28
535.21	1570.12
535.57	1585.62
535.93	1600.79
536.29	1615.19
536.65	1629.82
537.00	1644.20
537.36	1659.24
537.72	1673.42
538.08	1687.45
538.44	1700.86
538.79	1714.43
539.15	1727.75
539.51	1741.12
539.87	1755.19
540.22	1768.48
540.58	1781.90
540.94	1794.90
541.29	1807.44
541.65	1819.83
542.01	1832.84
542.37	1845.16
542.72	1857.34
543.08	1869.05
543.44	1881.40
543.79	1892.72
544.15	1903.60
544.51	1915.05
544.87	1925.81
545.22	1936.67
545.58	1946.99
545.94	1956.83
546.29	1966.66
546.65	1976.60
547.01	1986.03
547.36	1994.73
547.72	2003.45
548.07	2011.63
548.43	2019.92
548.79	2027.86
549.14	2035.80
549.50	2043.30
549.86	2050.90
550.21	2058.32
550.57	2065.64
550.92	2072.39
551.28	2079.62
551.64	2086.88
551.99	2093.63
552.35	2100.09
552.70	2106.36
553.06	2112.72
553.41	2119.32
553.77	2125.56
554.13	2131.81
554.48	2138.10
554.84	2144.10
555.19	2149.61
555.55	2155.08
555.90	2159.90
556.26	2165.35
556.61	2170.26
556.97	2174.95
557.32	2179.52
557.68	2184.13
558.03	2188.56
558.39	2192.51
558.74	2197.37
559.10	2201.74
559.45	2205.76
559.81	2210.30
560.16	2214.57
560.52	2218.18
560.87	2221.90
561.23	2225.06
561.58	2228.20
561.94	2231.26
562.29	2233.70
562.64	2236.99
563.00	2239.79
563.35	2243.59
563.71	2247.03
564.06	2250.56
564.42	2253.85
564.77	2256.96
565.12	2259.89
565.48	2262.53
565.83	2264.95
566.19	2266.92
566.54	2268.09
566.89	2269.88
567.25	2271.09
567.60	2272.77
567.96	2274.88
568.31	2276.23
568.66	2277.79
569.02	2279.08
569.37	2279.78
569.72	2281.25
570.08	2281.70
570.43	2282.28
570.78	2282.38
571.14	2281.45
571.49	2280.60
571.84	2280.56
572.20	2279.82
572.55	2279.10
572.90	2277.71
573.26	2276.73
573.61	2275.20
573.96	2274.12
574.31	2271.57
574.67	2269.03
575.02	2265.85
575.37	2262.59
575.72	2259.34
576.08	2256.19
576.43	2252.94
576.78	2249.80
577.13	2246.81
577.49	2243.88
577.84	2240.84
578.19	2237.30
578.54	2234.17
578.90	2230.53
579.25	2225.49
579.60	2220.94
579.95	2216.47
580.30	2211.92
580.66	2207.18
581.01	2202.61
581.36	2197.85
581.71	2194.12
582.06	2190.05
582.42	2186.20
582.77	2181.58
583.12	2177.45
583.47	2173.35
583.82	2169.10
584.17	2164.16
584.53	2159.25
584.88	2154.20
585.23	2148.88
585.58	2143.70
585.93	2138.40
586.28	2133.67
586.63	2129.04
586.98	2124.18
587.34	2119.50
587.69	2114.78
588.04	2109.89
588.39	2104.71
588.74	2098.50
589.09	2092.41
589.44	2085.93
589.79	2079.77
590.14	2074.34
590.49	2067.84
590.84	2061.54
591.19	2055.75
591.54	2049.48
591.89	2042.44
592.25	2036.01
592.60	2028.98
592.95	2021.93
593.30	2014.79
593.65	2007.61
594.00	2000.70
594.35	1993.64
594.70	1985.66
595.05	1978.91
595.40	1971.72
595.75	1964.33
596.10	1958.47
596.45	1952.18
596.80	1946.28
597.15	1940.09
597.50	1933.40
597.85	1927.14
598.19	1920.77
598.54	1913.99
598.89	1907.57
599.24	1901.79
599.59	1895.43
599.94	1889.27
600.29	1882.94
600.64	1876.39
600.99	1869.14
601.34	1862.38
601.69	1855.53
602.04	1849.03
602.39	1841.76
602.74	1835.06
603.08	1828.49
603.43	1821.78
603.78	1814.36
604.13	1807.16
604.48	1799.96
604.83	1793.13
605.18	1786.53
605.53	1778.68
605.87	1770.69
606.22	1763.40
606.57	1755.44
606.92	1747.70
607.27	1740.77
607.62	1734.01
607.96	1726.93
608.31	1720.55
608.66	1713.16
609.01	1705.78
609.36	1698.22
609.70	1690.28
610.05	1682.27
610.40	1674.64
610.75	1666.45
611.10	1658.76
611.44	1650.22
611.79	1642.04
612.14	1633.28
612.49	1623.89
612.83	1615.27
613.18	1607.00
613.53	1598.93
613.88	1590.33
614.22	1582.12
614.57	1573.15
614.92	1564.91
615.27	1557.46
615.61	1548.98
615.96	1540.84
616.31	1533.04
616.65	1525.57
617.00	1517.95
617.35	1510.18
617.70	1501.76
618.04	1493.24
618.39	1484.91
618.74	1477.44
619.08	1469.03
619.43	1461.41
619.78	1454.32
620.12	1447.34
620.47	1439.75
620.82	1431.39
621.16	1423.76
621.51	1416.13
621.85	1408.56
622.20	1400.06
622.55	1391.46
622.89	1383.45
623.24	1375.57
623.59	1367.90
623.93	1360.29
624.28	1352.86
624.62	1345.39
624.97	1338.08
625.32	1331.08
625.66	1323.99
626.01	1316.67
626.35	1309.48
626.70	1301.60
627.04	1293.98
627.39	1286.10
627.73	1278.63
628.08	1271.70
628.43	1264.47
628.77	1257.13
629.12	1249.61
629.46	1242.45
629.81	1234.82
630.15	1227.52
630.50	1220.11
630.84	1211.97
631.19	1203.94
631.53	1196.34
631.88	1188.59
632.22	1180.97
632.57	1173.57
632.91	1165.95
633.26	1158.50
633.60	1150.83
633.95	1143.53
634.29	1136.26
634.64	1129.31
634.98	1121.85
635.32	1114.65
635.67	1107.91
636.01	1101.07
636.36	1094.29
636.70	1087.60
637.05	1081.06
637.39	1074.54
637.73	1067.99
638.08	1062.03
638.42	1056.06
638.77	1049.59
639.11	1043.01
639.45	1036.50
639.80	1029.81
640.14	1023.39
640.49	1016.79
640.83	1010.43
641.17	1004.36
641.52	998.12
641.86	991.70
642.20	985.83
642.55	979.39
642.89	972.93
643.23	966.33
643.58	960.29
643.92	954.05
644.26	948.12
644.61	941.92
644.95	935.96
645.29	929.43
645.64	922.65
645.98	916.25
646.32	910.14
646.66	904.08
647.01	898.21
647.35	892.54
647.69	886.60
648.04	881.01
648.38	875.12
648.72	869.11
649.06	863.07
649.41	857.15
649.75	851.25
650.09	845.30
650.43	839.58
650.78	833.51
651.12	827.53
651.46	821.74
651.80	816.21
652.14	810.64
652.49	805.26
652.83	800.08
653.17	794.57
653.51	789.06
653.85	783.66
654.20	778.09
654.54	772.05
654.88	766.32
655.22	760.35
655.56	754.59
655.90	749.02
656.25	743.69
656.59	738.37
656.93	733.25
657.27	728.16
657.61	722.63
657.95	717.48
658.29	712.34
658.64	707.03
658.98	701.52
659.32	696.01
659.66	690.77
660.00	685.51
660.34	680.43
660.68	675.53
661.02	670.48
661.36	665.76
661.70	661.33
662.05	656.95
662.39	652.79
662.73	648.40
663.07	644.03
663.41	639.68
663.75	635.18
664.09	630.59
664.43	626.09
664.77	622.05
665.11	617.83
665.45	613.77
665.79	609.72
666.13	605.74
666.47	601.74
666.81	597.56
667.15	593.35
667.49	589.46
667.83	585.48
668.17	581.59
668.51	577.56
668.85	573.42
669.19	569.47
669.53	565.61
669.87	561.71
670.21	558.00
670.55	554.28
670.89	550.80
671.23	547.42
671.57	543.90
671.91	540.37
672.25	536.78
672.58	533.25
672.92	529.81
673.26	526.52
673.60	523.35
673.94	520.37
674.28	517.41
674.62	514.45
674.96	511.44
675.30	508.55
675.64	505.61
675.97	502.84
676.31	499.97
676.65	497.01
676.99	494.30
677.33	491.41
677.67	488.58
678.01	485.60
678.34	482.60
678.68	479.71
679.02	476.86
679.36	474.16
679.70	471.34
680.04	468.50
680.37	465.67
680.71	462.86
681.05	460.15
681.39	457.47
681.73	454.77
682.06	452.21
682.40	449.60
682.74	447.04
683.08	444.46
683.42	441.82
683.75	439.31
684.09	436.68
684.43	434.16
684.77	431.66
685.10	429.27
685.44	426.88
685.78	424.57
686.12	422.25
686.45	419.88
686.79	417.67
687.13	415.46
687.46	413.27
687.80	411.06
688.14	408.73
688.48	406.59
688.81	404.32
689.15	402.11
689.49	399.89
689.82	397.78
690.16	395.63
690.50	393.68
690.83	391.70
691.17	389.65
691.51	387.74
691.84	385.86
692.18	383.89
692.52	381.94
692.85	379.94
693.19	378.03
693.52	376.20
693.86	374.28
694.20	372.49
694.53	370.66
694.87	368.78
695.21	367.03
695.54	365.19
695.88	363.41
696.21	361.65
696.55	359.95
696.88	358.24
697.22	356.55
697.56	354.87
697.89	353.19
698.23	351.62
698.56	349.96
698.90	348.39
699.23	346.77
699.57	345.22
699.90	343.61
700.24	342.03
700.58	340.49
700.91	339.01
701.25	337.51
701.58	336.11
701.92	334.71
702.25	333.32
702.59	331.95
702.92	330.57
703.26	329.25
703.59	327.99
703.93	326.75
704.26	325.53
704.60	324.26
704.93	322.99
705.26	321.70
705.60	320.48
705.93	319.27
706.27	318.16
706.60	317.08
706.94	316.03
707.27	314.90
707.61	313.80
707.94	312.66
708.27	311.57
708.61	310.46
708.94	309.43
709.28	308.42
709.61	307.44
709.94	306.54
710.28	305.55
710.61	304.52
710.95	303.40
711.28	302.45
711.61	301.45
711.95	300.52
712.28	299.57
712.61	298.61
712.95	297.66
713.28	296.75
713.61	295.83
713.95	294.95
714.28	294.09
714.61	293.20
714.95	292.42
715.28	291.56
715.61	290.66
715.95	289.79
716.28	288.89
716.61	288.05
716.95	287.17
717.28	286.36
717.61	285.60
717.94	284.91
718.28	284.09
718.61	283.38
718.94	282.66
719.27	281.95
719.61	281.25
719.94	280.56
720.27	279.82
720.60	279.13
720.94	278.49
721.27	277.92
721.60	277.31
721.93	276.67
722.27	276.10
722.60	275.55
722.93	274.97
723.26	274.44
723.59	273.86
723.93	273.34
724.26	272.80
724.59	272.21
724.92	271.66
725.25	271.14
725.59	270.59
725.92	270.06
726.25	269.56
726.58	269.07
726.91	268.57
727.24	268.08
727.57	267.57
727.91	267.03
728.24	266.51
728.57	266.04
728.90	265.54
729.23	265.01
729.56	264.57
729.89	264.10
730.22	263.61
730.55	263.14
730.89	262.68
731.22	262.23
731.55	261.79
731.88	261.34
732.21	260.89
732.54	260.46
732.87	260.05
733.20	259.62
733.53	259.22
733.86	258.87
734.19	258.48
734.52	258.13
734.85	257.81
735.18	257.37
735.51	257.01
735.84	256.63
736.17	256.31
736.50	255.92
736.83	255.67
737.16	255.30
737.49	254.98
737.82	254.62
738.15	254.26
738.48	253.91
738.81	253.58
739.14	253.26
739.47	252.94
739.80	252.61
740.13	252.31
740.46	251.97
740.79	251.61
741.12	251.31
741.45	250.97
741.78	250.61
742.11	250.35
742.44	250.03
742.77	249.76
743.10	249.43
743.43	249.13
743.75	248.73
744.08	248.62
744.41	248.31
744.74	248.05
745.07	247.76
745.40	247.55
745.73	247.33
746.06	247.07
746.39	246.77
746.71	246.49
747.04	246.20
747.37	245.97
747.70	245.74
748.03	245.51
748.36	245.26
748.68	245.03
749.01	244.76
749.34	244.56
749.67	244.34
750.00	244.11
750.33	243.94
750.65	243.72
750.98	243.36
751.31	243.15
751.64	242.94
751.97	242.78
752.29	242.53
752.62	242.25
752.95	241.99
753.28	241.81
753.60	241.61
753.93	241.43
754.26	241.23
754.59	240.97
754.91	240.71
755.24	240.52
755.57	240.31
755.90	240.11
756.22	239.89
756.55	239.65
756.88	239.44
757.20	239.16
757.53	238.98
757.86	238.79
758.19	238.65
758.51	238.45
758.84	238.24
759.17	238.08
759.49	237.89
759.82	237.78
760.15	237.63
760.47	237.46
760.80	237.28
761.13	237.16
761.45	237.00
761.78	236.88
762.11	236.74
762.43	236.60
762.76	236.47
763.08	236.33
763.41	236.21
763.74	236.11
764.06	236.00
764.39	235.86
764.71	235.72
765.04	235.54
765.37	235.36
765.69	235.24
766.02	235.06
766.34	234.95
766.67	234.81
767.00	234.68
767.32	234.62
767.65	234.56
767.97	234.38
768.30	234.29
768.62	234.19
768.95	234.04
769.27	233.92
769.60	233.80
769.92	233.64
770.25	233.50
770.57	233.38
770.90	233.27
771.22	233.13
771.55	233.06
771.87	232.98
772.20	232.91
772.52	232.90
772.85	232.96
773.17	232.84
773.50	232.70
773.82	232.58
774.15	232.45
774.47	232.32
774.80	232.23
775.12	232.15
775.45	232.05
775.77	231.97
776.09	231.91
776.42	231.84
776.74	231.79
777.07	231.72
777.39	231.66
777.72	231.60
778.04	231.56
778.36	231.45
778.69	231.38
779.01	231.30
779.33	231.15
779.66	230.97
779.98	230.92
780.31	230.90
780.63	230.90
780.95	230.86
781.28	230.80
781.60	230.77
781.92	230.70
782.25	230.64
782.57	230.61
782.89	230.53
783.22	230.45
783.54	230.43
783.86	230.39
784.19	230.30
784.51	230.26
784.83	230.17
785.16	230.15
785.48	230.09
785.80	230.06
786.12	230.03
786.45	229.95
786.77	229.92
787.09	229.87
787.42	229.77
787.74	229.72
788.06	229.68
788.38	229.61
788.71	229.55
789.03	229.50
789.35	229.48
789.67	229.44
789.99	229.42
790.32	229.36
790.64	229.34
790.96	229.40
791.28	229.33
791.61	229.32
791.93	229.25
792.25	229.20
792.57	229.22
792.89	229.15
793.21	229.16
793.54	229.11
793.86	229.05
794.18	229.01
794.50	228.98
794.82	228.95
795.14	228.90
795.47	228.90
795.79	228.88
796.11	228.81
796.43	228.81
796.75	228.75
797.07	228.69
797.39	228.65
797.71	228.55
798.04	228.52
798.36	228.49
798.68	228.49
799.00	228.49
799.32	228.41
799.64	228.39
799.96	228.35
800.28	228.35
800.60	228.32
800.92	228.31
801.24	228.25
801.56	228.20
801.89	228.19
802.21	228.15
802.53	228.09
802.85	228.07
803.17	228.05
803.49	228.00
803.81	227.97
804.13	227.95
804.45	227.90
804.77	227.90
805.09	227.86
805.41	227.82
805.73	227.75
806.05	227.69
806.37	227.67
806.69	227.61
807.01	227.56
807.33	227.53
807.65	227.46
807.97	227.49
808.28	227.47
808.60	227.45
808.92	227.40
809.24	227.39
809.56	227.34
809.88	227.28
810.20	227.26
810.52	227.27
810.84	227.22
811.16	227.21
811.48	227.14
811.80	227.13
812.12	227.09
812.43	227.10
812.75	227.06
813.07	227.02
813.39	226.97
813.71	226.96
814.03	226.95
814.35	226.95
814.67	226.89
814.98	226.84
815.30	226.83
815.62	226.80
815.94	226.73
816.26	226.80
816.58	226.78
816.89	226.77
817.21	226.70
817.53	226.68
817.85	226.63
818.17	226.65
818.48	226.62
818.80	226.64
819.12	226.59
819.44	226.58
819.76	226.54
820.07	226.56
820.39	226.52
820.71	226.51
821.03	226.48
821.34	226.45
821.66	226.45
821.98	226.41
822.30	226.42
822.61	226.48
822.93	226.38
823.25	226.36
823.57	226.33
823.88	226.37
824.20	226.37
824.52	226.36
824.83	226.35
825.15	226.32
825.47	226.29
825.79	226.30
826.10	226.29
826.42	226.27
826.74	226.24
827.05	226.23
827.37	226.19
827.69	226.15
828.00	226.17
828.32	226.18
828.64	226.18
828.95	226.23
829.27	226.17
829.58	226.17
829.90	226.16
830.22	226.17
830.53	226.12
830.85	226.07
831.17	226.03
831.48	226.05
831.80	225.99
832.11	225.95
832.43	225.92
832.75	225.90
833.06	225.97
833.38	225.96
833.69	225.95
834.01	225.96
834.32	225.95
834.64	225.90
834.96	225.85
835.27	225.82
835.59	225.79
835.90	225.79
836.22	225.78
836.53	225.77
836.85	225.75
837.16	225.83
837.48	225.84
837.79	225.85
838.11	225.79
838.42	225.81
838.74	225.84
839.05	225.84
839.37	225.84
839.68	225.82
840.00	225.83
840.31	225.82
840.63	225.84
840.94	225.85
841.26	225.84
841.57	225.87
841.88	225.88
842.20	225.83
842.51	225.84
842.83	225.80
843.14	225.89
843.46	225.90
843.77	225.86
844.08	225.86
844.40	225.89
844.71	225.88
845.03	225.91
845.34	225.90
845.65	225.90
845.97	225.86
846.28	225.83
846.60	225.82
846.91	225.80
847.22	225.79
847.54	225.79
847.85	225.80
848.16	225.75
848.48	225.73
848.79	225.75
849.10	225.72
849.42	225.76
849.73	225.65
850.04	225.62
850.36	225.55
850.67	225.57
850.98	225.55
851.30	225.56
851.61	225.53
851.92	225.54
852.23	225.56
852.55	225.57
852.86	225.58
853.17	225.56
853.49	225.57
853.80	225.55
854.11	225.58
854.42	225.58
854.74	225.59
855.05	225.55
855.36	225.49
855.67	225.51
855.99	225.49
856.30	225.60
856.61	225.63
856.92	225.64
857.23	225.64
857.55	225.62
857.86	225.60
858.17	225.61
858.48	225.55
858.79	225.51
859.11	225.51
859.42	225.51
859.73	225.52
860.04	225.53
860.35	225.52
860.66	225.46
860.98	225.44
861.29	225.42
861.60	225.45
861.91	225.48
862.22	225.46
862.53	225.42
862.84	225.29
863.16	225.29
863.47	225.25
863.78	225.21
864.09	225.18
864.40	225.19
864.71	225.17
865.02	225.22
865.33	225.21
865.64	225.19
865.95	225.15
866.27	225.19
866.58	225.15
866.89	225.15
867.20	225.14
867.51	225.16
867.82	225.17
868.13	225.21
868.44	225.20
868.75	225.20
869.06	225.16
869.37	225.18
869.68	225.15
869.99	225.19
870.30	225.21
870.61	225.22
870.92	225.22
871.23	225.22
871.54	225.22
871.85	225.24
872.16	225.26
872.47	225.26
872.78	225.21
873.09	225.21
873.40	225.20
873.71	225.18
874.02	225.17
874.33	225.14
874.64	225.10
874.95	225.11
875.26	225.09
875.56	225.11
875.87	225.13
876.18	225.15
876.49	225.26
876.80	225.24
877.11	225.23
877.42	225.21
877.73	225.21
878.04	225.20
878.35	225.19
878.66	225.19
878.96	225.19
879.27	225.17
879.58	225.20
879.89	225.23
880.20	225.28
880.51	225.30
880.82	225.32
881.12	225.32
881.43	225.29
881.74	225.29
882.05	225.31
882.36	225.30
882.67	225.31
882.97	225.19
883.28	225.18
883.59	225.19
883.90	225.21
884.21	225.21
884.51	225.18
884.82	225.17
885.13	225.17
885.44	225.18
885.74	225.23
886.05	225.21
886.36	225.19
886.67	225.14
886.98	225.18
887.28	225.20
887.59	225.25
887.90	225.27
888.20	225.26
888.51	225.26
888.82	225.27
889.13	225.25
889.43	225.33
889.74	225.33
890.05	225.33
890.35	225.32
890.66	225.30
890.97	225.30
891.28	225.29
891.58	225.27
891.89	225.24
892.20	225.18
892.50	225.18
892.81	225.18
893.12	225.17
893.42	225.12
893.73	225.06
894.04	225.03
894.34	225.00
894.65	225.02
894.95	225.02
895.26	224.99
895.57	225.02
895.87	224.91
896.18	224.93
896.48	224.96
896.79	224.96
897.10	224.98
897.40	224.98
897.71	225.00
898.01	225.02
898.32	225.06
898.63	225.07
898.93	225.04
899.24	225.04
899.54	225.04
899.85	225.03
900.15	225.06
900.46	225.05
900.76	225.09
901.07	225.09
901.38	225.06
901.68	225.09
901.99	225.01
902.29	225.03
902.60	225.00
902.90	224.99
903.21	224.99
903.51	224.94
903.82	224.97
904.12	224.98
904.43	224.97
904.73	224.96
905.03	224.95
905.34	225.06
905.64	225.06
905.95	225.05
906.25	225.05
906.56	225.01
906.86	225.00
907.17	224.99
907.47	224.98
907.77	224.96
908.08	224.93
908.38	224.96
908.69	224.96
908.99	224.98
909.30	224.98
909.60	224.98
909.90	225.01
910.21	225.00
910.51	224.97
910.81	224.95
911.12	224.95
911.42	224.95
911.73	224.82
912.03	224.83
912.33	224.87
912.64	224.88
912.94	224.88
913.24	224.91
913.55	224.90
913.85	224.90
914.15	224.92
914.46	224.92
914.76	224.91
915.06	224.91
915.37	224.90
915.67	224.87
915.97	224.87
916.27	224.84
916.58	224.86
916.88	224.89
917.18	224.91
917.49	224.94
917.79	224.97
918.09	225.01
918.39	225.04
918.70	224.97
919.00	224.97
919.30	225.05
919.60	225.00
919.91	224.98
920.21	225.01
920.51	225.00
920.81	225.01
921.12	225.01
921.42	225.01
921.72	225.00
922.02	225.02
922.32	225.03
922.63	225.05
922.93	225.11
923.23	225.09
923.53	225.07
923.83	225.06
924.13	225.05
924.44	225.03
924.74	225.07
925.04	225.12
925.34	225.11
925.64	225.08
925.94	225.07
926.24	225.13
926.55	225.10
926.85	225.13
927.15	225.14
927.45	225.13
927.75	225.14
928.05	225.13
928.35	225.14
928.65	225.13
928.95	225.16
929.26	225.06
929.56	225.05
929.86	225.04
930.16	225.02
930.46	225.01
930.76	225.02
931.06	224.96
931.36	224.93
931.66	224.96
931.96	224.94
932.26	224.97
932.56	224.92
932.86	224.92
933.16	224.90
933.46	224.86
933.76	224.84
934.06	224.85
934.36	224.91
934.66	224.91
934.96	224.92
935.26	224.86
935.56	224.90
935.86	224.88
936.16	224.86
936.46	224.81
936.76	224.81
937.06	224.79
937.36	224.80
937.66	224.83
937.96	224.78
938.26	224.79
938.56	224.77
938.86	224.77
939.16	224.81
939.46	224.83
939.76	224.86
940.06	224.86
940.35	224.85
940.65	224.78
940.95	224.77
941.25	224.72
941.55	224.71
941.85	224.69
942.15	224.73
942.45	224.77
942.75	224.77
943.04	224.78
943.34	224.77
943.64	224.73
943.94	224.70
944.24	224.74
944.54	224.70
944.84	224.69
945.13	224.67
945.43	224.64
945.73	224.66
946.03	224.65
946.33	224.66
946.62	224.61
946.92	224.61
947.22	224.63
947.52	224.68
947.82	224.73
948.11	224.75
948.41	224.73
948.71	224.72
949.01	224.73
949.31	224.72
949.60	224.76
949.90	224.78
950.20	224.76
950.50	224.75
950.79	224.74
951.09	224.76
951.39	224.74
951.69	224.75
951.98	224.74
952.28	224.73
952.58	224.73
952.87	224.78
953.17	224.79
953.47	224.76
953.76	224.74
954.06	224.71
954.36	224.66
954.66	224.66
954.95	224.66
955.25	224.70
955.55	224.71
955.84	224.68
956.14	224.69
956.44	224.70
956.73	224.69
957.03	224.72
957.32	224.70
957.62	224.74
957.92	224.76
958.21	224.76
958.51	224.88
958.81	224.89
959.10	224.89
959.40	224.88
959.69	224.92
959.99	224.95
960.29	224.96
960.58	224.99
960.88	225.02
961.17	225.02
961.47	225.01
961.76	225.04
962.06	225.07
962.36	225.09
962.65	225.11
962.95	225.14
963.24	225.13
963.54	225.16
963.83	225.16
964.13	225.16
964.42	225.13
964.72	225.06
965.01	225.05
965.31	225.04
965.60	225.03
965.90	225.07
966.19	225.04
966.49	225.04
966.78	225.01
967.08	225.00
967.37	225.01
967.67	224.94
967.96	224.92
968.26	224.89
968.55	224.87
968.85	224.87
969.14	224.85
969.43	224.85
969.73	224.87
970.02	224.85
970.32	224.82
970.61	224.81
970.91	224.77
971.20	224.80
971.49	224.79
971.79	224.80
972.08	224.74
972.38	224.74
972.67	224.75
972.96	224.77
973.26	224.76
973.55	224.79
973.85	224.81
974.14	224.86
974.43	224.86
974.73	224.86
975.02	224.86
975.31	224.87
975.61	224.87
975.90	224.84
976.19	224.83
976.49	224.83
976.78	224.86
977.07	224.88
977.37	224.87
977.66	224.88
977.95	224.89
978.24	224.88
978.54	224.89
978.83	224.86
979.12	224.86
979.42	224.87
979.71	224.83
980.00	224.86
980.29	224.82
980.59	224.81
980.88	224.85
981.17	224.83
981.46	224.82
981.76	224.82
982.05	224.84
982.34	224.87
982.63	224.90
982.93	224.92
983.22	224.91
983.51	224.90
983.80	224.91
984.09	224.91
984.39	224.93
984.68	224.89
984.97	224.92
985.26	224.91
985.55	224.88
985.85	224.87
986.14	224.87
986.43	224.90
986.72	224.89
987.01	224.83
987.30	224.83
987.59	224.82
987.89	224.83
988.18	224.80
988.47	224.77
988.76	224.72
989.05	224.69
989.34	224.69
989.63	224.73
989.92	224.73
990.22	224.72
990.51	224.68
990.80	224.70
991.09	224.72
991.38	224.75
991.67	224.75
991.96	224.75
992.25	224.76
992.54	224.71
992.83	224.73
993.12	224.72
993.41	224.73
993.70	224.74
993.99	224.75
994.28	224.76
994.58	224.75
994.87	224.75
995.16	224.74
995.45	224.72
995.74	224.66
996.03	224.69
996.32	224.67
996.61	224.69
996.90	224.70
997.19	224.68
997.48	224.66
997.77	224.67
998.06	224.65
998.34	224.66
998.63	224.66
998.92	224.64
999.21	224.67
999.50	224.69
999.79	224.66
1000.08	224.63
1000.37	224.62
1000.66	224.63
1000.95	224.68
1001.24	224.69
1001.53	224.72
1001.82	224.70
1002.11	224.64
1002.40	224.64
1002.68	224.69
1002.97	224.75
1003.26	224.76
1003.55	224.76
1003.84	224.76
1004.13	224.79
1004.42	224.78
1004.71	224.77
1004.99	224.76
1005.28	224.78
1005.57	224.74
1005.86	224.75
1006.15	224.78
1006.44	224.77
1006.72	224.81
1007.01	224.80
1007.30	224.81
1007.59	224.78
1007.88	224.82
1008.17	224.84
1008.45	224.85
1008.74	224.79
1009.03	224.76
1009.32	224.72
1009.60	224.73
1009.89	224.70
1010.18	224.65
1010.47	224.62
1010.76	224.67
1011.04	224.68
1011.33	224.66
1011.62	224.69
1011.91	224.69
1012.19	224.67
1012.48	224.68
1012.77	224.65
1013.05	224.67
1013.34	224.68
1013.63	224.66
1013.92	224.65
1014.20	224.64
1014.49	224.66
1014.78	224.68
1015.06	224.66
1015.35	224.67
1015.64	224.65
1015.92	224.67
1016.21	224.66
1016.50	224.67
1016.78	224.66
1017.07	224.68
1017.36	224.68
1017.64	224.70
1017.93	224.73
1018.22	224.75
1018.50	224.72
1018.79	224.73
1019.08	224.69
1019.36	224.65
1019.65	224.66
1019.93	224.70
1020.22	224.73
1020.51	224.73
1020.79	224.74
1021.08	225.16
1021.36	223.95
1021.65	224.89
1021.94	224.66
1022.22	224.24
1022.51	224.47
1022.79	225.24
1023.08	225.01
1023.36	225.56
1023.65	224.87
>>>>>End Processed Spectral Data<<<<<
