SpectraSuite Data File
++++++++++++++++++++++++++++++++++++
Date: Fri Feb 01 15:28:54 EST 2013
User: group
Dark Spectrum Present: No
Reference Spectrum Present: No
Number of Sampled Component Spectra: 1
Spectrometers: USB2E7196
Integration Time (usec): 35000 (USB2E7196)
Spectra Averaged: 100 (USB2E7196)
Boxcar Smoothing: 10 (USB2E7196)
Correct for Electrical Dark: No (USB2E7196)
Strobe/Lamp Enabled: No (USB2E7196)
Correct for Detector Non-linearity: No (USB2E7196)
Correct for Stray Light: No (USB2E7196)
Number of Pixels in Processed Spectrum: 2048
>>>>>Begin Processed Spectral Data<<<<<
339.09	0.00
339.48	215.28
339.86	216.36
340.24	218.13
340.63	218.98
341.01	222.71
341.39	222.01
341.78	223.03
342.16	224.60
342.54	224.86
342.93	213.57
343.31	224.36
343.69	224.90
344.07	225.40
344.46	225.84
344.84	226.29
345.22	226.48
345.60	226.71
345.99	226.91
346.37	227.03
346.75	227.13
347.13	227.21
347.52	227.24
347.90	227.30
348.28	227.32
348.66	227.35
349.05	227.38
349.43	227.39
349.81	227.44
350.19	227.49
350.57	227.55
350.96	227.59
351.34	227.66
351.72	227.74
352.10	227.82
352.48	227.86
352.87	227.89
353.25	227.97
353.63	228.07
354.01	228.16
354.39	228.24
354.77	228.33
355.15	228.45
355.54	228.49
355.92	228.56
356.30	228.59
356.68	228.71
357.06	228.74
357.44	228.79
357.82	228.84
358.20	228.89
358.58	228.96
358.97	229.04
359.35	229.12
359.73	229.19
360.11	229.24
360.49	229.32
360.87	229.38
361.25	229.42
361.63	229.45
362.01	229.47
362.39	229.49
362.77	229.53
363.15	229.50
363.53	229.55
363.91	229.54
364.29	229.59
364.67	229.52
365.05	229.55
365.43	229.56
365.81	229.57
366.19	229.61
366.57	229.68
366.95	229.67
367.33	229.61
367.71	229.59
368.09	229.55
368.47	229.52
368.85	229.42
369.23	229.43
369.61	229.37
369.99	229.35
370.37	229.30
370.75	229.30
371.13	229.24
371.51	229.18
371.89	229.14
372.27	229.11
372.65	229.06
373.03	229.01
373.41	228.96
373.78	228.90
374.16	228.79
374.54	228.66
374.92	228.60
375.30	228.55
375.68	228.43
376.06	228.40
376.44	228.34
376.82	228.28
377.19	228.18
377.57	228.15
377.95	228.06
378.33	227.98
378.71	227.88
379.09	227.82
379.47	227.72
379.84	227.63
380.22	227.53
380.60	227.44
380.98	227.35
381.36	227.27
381.73	227.16
382.11	227.12
382.49	227.06
382.87	226.95
383.25	226.90
383.62	226.98
384.00	226.87
384.38	226.79
384.76	226.78
385.13	226.77
385.51	226.73
385.89	226.70
386.27	226.68
386.64	226.65
387.02	226.60
387.40	226.58
387.78	226.55
388.15	226.51
388.53	226.46
388.91	226.46
389.29	226.42
389.66	226.44
390.04	226.40
390.42	226.38
390.79	226.39
391.17	226.35
391.55	226.26
391.92	226.26
392.30	226.27
392.68	226.26
393.05	226.24
393.43	226.23
393.81	226.23
394.18	226.22
394.56	226.21
394.94	226.27
395.31	226.30
395.69	226.36
396.06	226.41
396.44	226.46
396.82	226.50
397.19	226.61
397.57	226.65
397.95	226.72
398.32	226.76
398.70	226.83
399.07	226.96
399.45	227.01
399.82	227.08
400.20	227.16
400.58	227.24
400.95	227.31
401.33	227.43
401.70	227.57
402.08	227.66
402.45	227.77
402.83	227.85
403.20	227.96
403.58	228.10
403.95	228.22
404.33	228.39
404.71	228.49
405.08	228.68
405.46	228.82
405.83	228.96
406.21	229.13
406.58	229.31
406.96	229.43
407.33	229.63
407.70	229.80
408.08	230.06
408.45	230.27
408.83	230.49
409.20	230.70
409.58	230.91
409.95	231.17
410.33	231.44
410.70	231.71
411.08	231.99
411.45	232.27
411.82	232.59
412.20	232.92
412.57	233.33
412.95	233.61
413.32	234.02
413.69	234.44
414.07	234.89
414.44	235.35
414.82	235.85
415.19	236.41
415.56	236.98
415.94	237.54
416.31	238.20
416.68	238.84
417.06	239.54
417.43	240.22
417.81	240.99
418.18	241.76
418.55	242.61
418.93	243.53
419.30	244.42
419.67	245.39
420.04	246.38
420.42	247.39
420.79	248.57
421.16	249.73
421.54	250.95
421.91	252.18
422.28	253.47
422.66	254.80
423.03	256.12
423.40	257.43
423.77	258.83
424.15	260.25
424.52	261.75
424.89	263.34
425.26	264.90
425.64	266.36
426.01	267.95
426.38	269.60
426.75	271.27
427.13	272.98
427.50	274.74
427.87	276.57
428.24	278.42
428.61	280.18
428.99	282.10
429.36	284.17
429.73	286.22
430.10	288.19
430.47	290.30
430.85	292.38
431.22	294.65
431.59	297.03
431.96	299.30
432.33	301.78
432.70	304.19
433.08	307.02
433.45	309.66
433.82	312.29
434.19	315.18
434.56	317.99
434.93	320.68
435.30	323.33
435.68	326.25
436.05	329.12
436.42	331.92
436.79	334.47
437.16	337.21
437.53	340.12
437.90	342.98
438.27	345.69
438.64	348.56
439.01	351.16
439.38	353.40
439.75	355.57
440.13	358.07
440.50	360.42
440.87	362.26
441.24	364.22
441.61	366.40
441.98	367.91
442.35	369.73
442.72	371.61
443.09	373.39
443.46	374.38
443.83	375.00
444.20	375.52
444.57	376.34
444.94	376.63
445.31	376.90
445.68	377.22
446.05	377.32
446.42	376.93
446.79	376.52
447.16	376.12
447.53	375.81
447.90	374.62
448.27	373.47
448.64	371.86
449.01	370.72
449.37	368.74
449.74	366.82
450.11	364.54
450.48	362.06
450.85	359.56
451.22	357.46
451.59	355.39
451.96	353.42
452.33	350.81
452.70	348.39
453.07	345.57
453.43	342.65
453.80	339.88
454.17	337.20
454.54	334.62
454.91	331.86
455.28	329.16
455.65	326.69
456.02	324.27
456.38	322.13
456.75	319.45
457.12	317.19
457.49	314.95
457.86	312.78
458.23	310.86
458.59	308.79
458.96	306.63
459.33	304.74
459.70	302.87
460.07	301.34
460.43	299.66
460.80	298.04
461.17	296.63
461.54	295.12
461.91	293.67
462.27	292.25
462.64	291.00
463.01	289.63
463.38	288.35
463.74	286.92
464.11	285.75
464.48	284.72
464.85	283.62
465.21	282.75
465.58	281.84
465.95	280.75
466.32	279.81
466.68	278.94
467.05	278.06
467.42	277.17
467.78	276.26
468.15	275.38
468.52	274.69
468.88	273.78
469.25	272.99
469.62	272.37
469.98	271.66
470.35	271.02
470.72	270.38
471.08	269.70
471.45	269.14
471.82	268.60
472.18	268.01
472.55	267.57
472.92	267.03
473.28	266.52
473.65	266.08
474.02	265.63
474.38	265.28
474.75	264.96
475.11	264.59
475.48	264.31
475.85	264.05
476.21	263.80
476.58	263.63
476.94	263.47
477.31	263.26
477.67	263.06
478.04	262.95
478.41	262.93
478.77	262.97
479.14	262.91
479.50	262.89
479.87	262.95
480.23	263.02
480.60	263.08
480.96	263.21
481.33	263.41
481.69	263.63
482.06	263.81
482.42	263.98
482.79	264.23
483.15	264.55
483.52	264.94
483.88	265.32
484.25	265.72
484.61	266.16
484.98	266.64
485.34	267.25
485.71	267.83
486.07	268.44
486.44	269.01
486.80	269.69
487.17	270.42
487.53	271.23
487.90	272.07
488.26	273.02
488.62	274.01
488.99	275.03
489.35	276.07
489.72	277.23
490.08	278.45
490.44	279.71
490.81	281.06
491.17	282.41
491.54	283.90
491.90	285.46
492.26	287.10
492.63	288.84
492.99	290.60
493.36	292.51
493.72	294.56
494.08	296.66
494.45	298.96
494.81	301.34
495.17	303.80
495.54	306.40
495.90	309.09
496.26	311.93
496.63	314.87
496.99	317.99
497.35	321.21
497.72	324.58
498.08	328.09
498.44	331.72
498.80	335.62
499.17	339.63
499.53	343.77
499.89	348.12
500.26	352.64
500.62	357.34
500.98	362.31
501.34	367.37
501.71	372.75
502.07	378.19
502.43	383.82
502.79	389.62
503.16	395.66
503.52	401.90
503.88	408.31
504.24	414.92
504.60	421.81
504.97	428.98
505.33	436.33
505.69	444.03
506.05	451.81
506.41	459.76
506.78	467.96
507.14	476.48
507.50	485.20
507.86	494.17
508.22	503.33
508.59	512.54
508.95	522.10
509.31	531.91
509.67	542.01
510.03	552.32
510.39	562.89
510.75	573.72
511.12	584.73
511.48	596.08
511.84	607.51
512.20	619.10
512.56	631.06
512.92	643.24
513.28	655.59
513.64	668.14
514.00	680.84
514.37	693.78
514.73	706.78
515.09	719.82
515.45	733.20
515.81	746.81
516.17	760.77
516.53	774.90
516.89	789.08
517.25	803.28
517.61	817.77
517.97	832.22
518.33	846.64
518.69	861.39
519.05	876.34
519.41	891.54
519.77	907.13
520.13	922.55
520.49	937.91
520.85	953.40
521.21	969.10
521.57	985.39
521.93	1001.25
522.29	1017.73
522.65	1034.03
523.01	1050.35
523.37	1066.45
523.73	1082.73
524.09	1098.91
524.45	1115.21
524.81	1131.87
525.17	1148.67
525.53	1165.74
525.89	1182.72
526.25	1199.67
526.61	1216.21
526.97	1233.06
527.33	1249.59
527.68	1266.36
528.04	1282.96
528.40	1299.67
528.76	1316.79
529.12	1333.35
529.48	1350.19
529.84	1366.33
530.20	1383.06
530.56	1400.01
530.91	1417.39
531.27	1434.19
531.63	1450.76
531.99	1467.47
532.35	1483.63
532.71	1499.53
533.07	1515.77
533.42	1531.57
533.78	1547.63
534.14	1563.79
534.50	1579.08
534.86	1595.00
535.21	1610.16
535.57	1626.30
535.93	1641.80
536.29	1656.66
536.65	1671.81
537.00	1686.73
537.36	1701.97
537.72	1716.56
538.08	1731.07
538.44	1745.10
538.79	1758.97
539.15	1772.71
539.51	1786.51
539.87	1800.83
540.22	1814.73
540.58	1828.62
540.94	1842.09
541.29	1855.12
541.65	1867.96
542.01	1881.45
542.37	1893.64
542.72	1906.13
543.08	1917.75
543.44	1930.24
543.79	1941.58
544.15	1952.70
544.51	1964.23
544.87	1975.36
545.22	1986.21
545.58	1996.51
545.94	2006.41
546.29	2016.44
546.65	2026.36
547.01	2035.53
547.36	2044.26
547.72	2052.67
548.07	2060.37
548.43	2068.56
548.79	2076.48
549.14	2084.06
549.50	2091.43
549.86	2099.27
550.21	2106.64
550.57	2113.88
550.92	2120.51
551.28	2127.62
551.64	2134.76
551.99	2141.44
552.35	2147.48
552.70	2153.58
553.06	2159.44
553.41	2165.70
553.77	2171.71
554.13	2177.65
554.48	2183.79
554.84	2189.23
555.19	2194.59
555.55	2199.95
555.90	2204.43
556.26	2209.39
556.61	2214.15
556.97	2218.31
557.32	2222.47
557.68	2226.48
558.03	2230.85
558.39	2234.42
558.74	2238.91
559.10	2242.72
559.45	2246.21
559.81	2250.49
560.16	2254.43
560.52	2257.72
560.87	2261.03
561.23	2263.57
561.58	2266.49
561.94	2269.14
562.29	2271.58
562.64	2274.31
563.00	2276.91
563.35	2280.57
563.71	2283.56
564.06	2286.65
564.42	2289.55
564.77	2292.07
565.12	2294.36
565.48	2296.08
565.83	2298.00
566.19	2299.35
566.54	2300.29
566.89	2301.50
567.25	2302.21
567.60	2303.49
567.96	2305.10
568.31	2305.81
568.66	2306.98
569.02	2307.54
569.37	2307.74
569.72	2308.42
570.08	2308.43
570.43	2308.31
570.78	2307.46
571.14	2305.87
571.49	2304.52
571.84	2303.99
572.20	2302.70
572.55	2301.56
572.90	2300.02
573.26	2298.48
573.61	2296.71
573.96	2294.82
574.31	2291.77
574.67	2288.43
575.02	2284.57
575.37	2281.11
575.72	2277.35
576.08	2273.90
576.43	2270.48
576.78	2266.73
577.13	2263.64
577.49	2260.47
577.84	2256.96
578.19	2253.24
578.54	2249.64
578.90	2245.31
579.25	2239.87
579.60	2234.87
579.95	2229.97
580.30	2224.93
580.66	2219.74
581.01	2214.84
581.36	2209.88
581.71	2205.68
582.06	2201.43
582.42	2197.06
582.77	2191.79
583.12	2187.09
583.47	2182.34
583.82	2177.38
584.17	2172.14
584.53	2166.38
584.88	2160.58
585.23	2154.55
585.58	2148.99
585.93	2143.41
586.28	2138.63
586.63	2133.33
586.98	2128.17
587.34	2123.37
587.69	2118.29
588.04	2112.94
588.39	2106.95
588.74	2100.35
589.09	2094.04
589.44	2087.06
589.79	2080.74
590.14	2075.09
590.49	2068.42
590.84	2061.89
591.19	2055.65
591.54	2049.09
591.89	2041.66
592.25	2034.98
592.60	2027.72
592.95	2020.11
593.30	2012.82
593.65	2005.12
594.00	1998.15
594.35	1990.85
594.70	1982.57
595.05	1975.41
595.40	1968.17
595.75	1960.61
596.10	1954.27
596.45	1947.40
596.80	1941.24
597.15	1934.74
597.50	1927.56
597.85	1921.12
598.19	1914.50
598.54	1907.48
598.89	1900.78
599.24	1894.99
599.59	1888.17
599.94	1882.04
600.29	1875.68
600.64	1868.91
600.99	1861.40
601.34	1854.45
601.69	1847.39
602.04	1840.52
602.39	1833.05
602.74	1826.17
603.08	1819.51
603.43	1812.81
603.78	1805.53
604.13	1798.25
604.48	1790.98
604.83	1784.12
605.18	1777.17
605.53	1769.04
605.87	1760.92
606.22	1753.74
606.57	1745.65
606.92	1738.40
607.27	1731.14
607.62	1724.21
607.96	1716.88
608.31	1710.35
608.66	1702.75
609.01	1695.23
609.36	1687.58
609.70	1679.68
610.05	1671.58
610.40	1663.87
610.75	1655.35
611.10	1647.79
611.44	1639.53
611.79	1631.36
612.14	1622.59
612.49	1613.39
612.83	1605.22
613.18	1597.11
613.53	1588.87
613.88	1580.50
614.22	1572.14
614.57	1563.55
614.92	1555.40
615.27	1547.86
615.61	1539.38
615.96	1531.37
616.31	1523.68
616.65	1516.32
617.00	1508.76
617.35	1501.07
617.70	1492.75
618.04	1484.33
618.39	1476.05
618.74	1468.30
619.08	1460.02
619.43	1452.41
619.78	1445.62
620.12	1438.33
620.47	1430.76
620.82	1422.64
621.16	1415.08
621.51	1407.40
621.85	1399.78
622.20	1391.38
622.55	1383.02
622.89	1375.20
623.24	1367.44
623.59	1360.06
623.93	1352.62
624.28	1345.32
624.62	1337.79
624.97	1330.55
625.32	1323.79
625.66	1316.74
626.01	1309.61
626.35	1302.11
626.70	1294.42
627.04	1286.56
627.39	1278.75
627.73	1271.31
628.08	1264.38
628.43	1257.10
628.77	1249.68
629.12	1242.15
629.46	1234.93
629.81	1227.63
630.15	1220.44
630.50	1213.11
630.84	1204.99
631.19	1197.07
631.53	1189.50
631.88	1181.81
632.22	1174.29
632.57	1167.07
632.91	1159.51
633.26	1152.00
633.60	1144.70
633.95	1137.61
634.29	1130.54
634.64	1123.79
634.98	1116.54
635.32	1109.37
635.67	1102.89
636.01	1096.33
636.36	1089.54
636.70	1082.96
637.05	1076.33
637.39	1069.94
637.73	1063.46
638.08	1057.59
638.42	1051.55
638.77	1045.13
639.11	1038.68
639.45	1032.27
639.80	1025.47
640.14	1019.03
640.49	1012.56
640.83	1006.38
641.17	1000.22
641.52	993.99
641.86	987.65
642.20	981.86
642.55	975.67
642.89	969.13
643.23	962.60
643.58	956.81
643.92	950.67
644.26	944.64
644.61	938.60
644.95	932.58
645.29	925.94
645.64	919.24
645.98	913.01
646.32	907.24
646.66	901.21
647.01	895.52
647.35	889.84
647.69	884.00
648.04	878.43
648.38	872.60
648.72	866.57
649.06	860.53
649.41	854.51
649.75	848.43
650.09	842.43
650.43	836.63
650.78	830.41
651.12	824.39
651.46	818.64
651.80	812.81
652.14	807.46
652.49	802.13
652.83	796.96
653.17	791.15
653.51	785.29
653.85	779.87
654.20	774.21
654.54	768.20
654.88	762.48
655.22	756.53
655.56	750.80
655.90	745.32
656.25	739.97
656.59	734.72
656.93	729.66
657.27	724.51
657.61	719.07
657.95	714.08
658.29	709.02
658.64	703.79
658.98	698.46
659.32	692.87
659.66	687.65
660.00	682.37
660.34	677.53
660.68	672.69
661.02	667.64
661.36	662.92
661.70	658.41
662.05	654.05
662.39	649.76
662.73	645.26
663.07	640.88
663.41	636.47
663.75	631.95
664.09	627.43
664.43	623.09
664.77	618.95
665.11	614.63
665.45	610.49
665.79	606.42
666.13	602.33
666.47	598.32
666.81	594.15
667.15	589.95
667.49	586.01
667.83	582.14
668.17	578.20
668.51	574.21
668.85	570.24
669.19	566.37
669.53	562.53
669.87	558.72
670.21	555.04
670.55	551.41
670.89	548.00
671.23	544.52
671.57	540.97
671.91	537.48
672.25	534.01
672.58	530.57
672.92	527.16
673.26	523.98
673.60	520.83
673.94	517.72
674.28	514.89
674.62	511.93
674.96	508.83
675.30	505.97
675.64	502.98
675.97	500.23
676.31	497.38
676.65	494.47
676.99	491.76
677.33	488.91
677.67	486.08
678.01	483.04
678.34	480.06
678.68	477.21
679.02	474.40
679.36	471.69
679.70	468.92
680.04	466.09
680.37	463.26
680.71	460.46
681.05	457.86
681.39	455.10
681.73	452.49
682.06	450.01
682.40	447.47
682.74	444.96
683.08	442.35
683.42	439.72
683.75	437.18
684.09	434.66
684.43	432.19
684.77	429.73
685.10	427.33
685.44	425.02
685.78	422.69
686.12	420.42
686.45	418.11
686.79	415.82
687.13	413.72
687.46	411.52
687.80	409.37
688.14	407.15
688.48	405.11
688.81	402.81
689.15	400.65
689.49	398.50
689.82	396.42
690.16	394.35
690.50	392.41
690.83	390.48
691.17	388.48
691.51	386.58
691.84	384.74
692.18	382.85
692.52	380.90
692.85	379.04
693.19	377.15
693.52	375.26
693.86	373.43
694.20	371.62
694.53	369.83
694.87	367.98
695.21	366.19
695.54	364.36
695.88	362.68
696.21	360.93
696.55	359.25
696.88	357.56
697.22	355.87
697.56	354.24
697.89	352.56
698.23	350.96
698.56	349.37
698.90	347.78
699.23	346.14
699.57	344.59
699.90	343.01
700.24	341.48
700.58	340.04
700.91	338.57
701.25	337.17
701.58	335.83
701.92	334.51
702.25	333.16
702.59	331.85
702.92	330.56
703.26	329.33
703.59	328.07
703.93	326.93
704.26	325.77
704.60	324.49
704.93	323.24
705.26	322.00
705.60	320.79
705.93	319.63
706.27	318.62
706.60	317.60
706.94	316.54
707.27	315.44
707.61	314.34
707.94	313.33
708.27	312.22
708.61	311.16
708.94	310.12
709.28	309.10
709.61	308.10
709.94	307.14
710.28	306.08
710.61	305.15
710.95	304.08
711.28	303.13
711.61	302.19
711.95	301.30
712.28	300.34
712.61	299.41
712.95	298.47
713.28	297.60
713.61	296.67
713.95	295.82
714.28	294.99
714.61	294.14
714.95	293.31
715.28	292.43
715.61	291.57
715.95	290.73
716.28	289.92
716.61	289.11
716.95	288.31
717.28	287.56
717.61	286.71
717.94	285.94
718.28	285.15
718.61	284.44
718.94	283.72
719.27	283.13
719.61	282.49
719.94	281.81
720.27	281.06
720.60	280.41
720.94	279.74
721.27	279.13
721.60	278.53
721.93	277.92
722.27	277.34
722.60	276.74
722.93	276.17
723.26	275.63
723.59	275.09
723.93	274.51
724.26	273.91
724.59	273.36
724.92	272.85
725.25	272.32
725.59	271.75
725.92	271.25
726.25	270.68
726.58	270.13
726.91	269.61
727.24	269.14
727.57	268.66
727.91	268.14
728.24	267.67
728.57	267.15
728.90	266.69
729.23	266.20
729.56	265.76
729.89	265.25
730.22	264.71
730.55	264.21
730.89	263.77
731.22	263.33
731.55	262.90
731.88	262.43
732.21	262.01
732.54	261.59
732.87	261.17
733.20	260.77
733.53	260.38
733.86	260.04
734.19	259.64
734.52	259.31
734.85	259.03
735.18	258.61
735.51	258.30
735.84	257.94
736.17	257.59
736.50	257.24
736.83	257.01
737.16	256.73
737.49	256.36
737.82	256.02
738.15	255.69
738.48	255.36
738.81	255.05
739.14	254.70
739.47	254.39
739.80	254.09
740.13	253.81
740.46	253.51
740.79	253.18
741.12	252.86
741.45	252.52
741.78	252.14
742.11	251.87
742.44	251.52
742.77	251.24
743.10	250.96
743.43	250.63
743.75	250.29
744.08	250.13
744.41	249.89
744.74	249.61
745.07	249.38
745.40	249.16
745.73	248.94
746.06	248.70
746.39	248.42
746.71	248.13
747.04	247.82
747.37	247.56
747.70	247.29
748.03	247.07
748.36	246.87
748.68	246.65
749.01	246.39
749.34	246.18
749.67	245.94
750.00	245.74
750.33	245.60
750.65	245.37
750.98	245.01
751.31	244.79
751.64	244.58
751.97	244.41
752.29	244.16
752.62	243.89
752.95	243.68
753.28	243.50
753.60	243.31
753.93	243.17
754.26	242.97
754.59	242.78
754.91	242.57
755.24	242.32
755.57	242.11
755.90	241.97
756.22	241.78
756.55	241.58
756.88	241.34
757.20	241.08
757.53	240.89
757.86	240.75
758.19	240.58
758.51	240.40
758.84	240.18
759.17	240.04
759.49	239.91
759.82	239.79
760.15	239.63
760.47	239.47
760.80	239.29
761.13	239.15
761.45	239.01
761.78	238.85
762.11	238.71
762.43	238.55
762.76	238.38
763.08	238.25
763.41	238.13
763.74	238.00
764.06	237.90
764.39	237.74
764.71	237.57
765.04	237.43
765.37	237.28
765.69	237.17
766.02	237.04
766.34	236.88
766.67	236.71
767.00	236.61
767.32	236.51
767.65	236.45
767.97	236.35
768.30	236.20
768.62	236.10
768.95	235.98
769.27	235.87
769.60	235.78
769.92	235.66
770.25	235.54
770.57	235.46
770.90	235.30
771.22	235.19
771.55	235.12
771.87	235.05
772.20	234.95
772.52	234.90
772.85	234.92
773.17	234.81
773.50	234.73
773.82	234.64
774.15	234.53
774.47	234.38
774.80	234.27
775.12	234.20
775.45	234.07
775.77	233.99
776.09	233.94
776.42	233.86
776.74	233.81
777.07	233.72
777.39	233.63
777.72	233.58
778.04	233.54
778.36	233.46
778.69	233.39
779.01	233.36
779.33	233.20
779.66	233.03
779.98	233.01
780.31	232.97
780.63	232.93
780.95	232.91
781.28	232.88
781.60	232.83
781.92	232.80
782.25	232.78
782.57	232.74
782.89	232.67
783.22	232.64
783.54	232.57
783.86	232.55
784.19	232.52
784.51	232.52
784.83	232.45
785.16	232.42
785.48	232.41
785.80	232.35
786.12	232.34
786.45	232.32
786.77	232.27
787.09	232.23
787.42	232.19
787.74	232.13
788.06	232.08
788.38	232.06
788.71	232.02
789.03	231.98
789.35	231.98
789.67	231.95
789.99	231.92
790.32	231.87
790.64	231.86
790.96	231.86
791.28	231.78
791.61	231.78
791.93	231.76
792.25	231.71
792.57	231.77
792.89	231.72
793.21	231.65
793.54	231.61
793.86	231.56
794.18	231.48
794.50	231.42
794.82	231.39
795.14	231.35
795.47	231.33
795.79	231.30
796.11	231.21
796.43	231.17
796.75	231.10
797.07	231.08
797.39	231.02
797.71	230.91
798.04	230.86
798.36	230.83
798.68	230.77
799.00	230.73
799.32	230.64
799.64	230.61
799.96	230.57
800.28	230.57
800.60	230.52
800.92	230.49
801.24	230.51
801.56	230.47
801.89	230.43
802.21	230.36
802.53	230.32
802.85	230.31
803.17	230.31
803.49	230.26
803.81	230.18
804.13	230.13
804.45	230.10
804.77	230.07
805.09	229.97
805.41	229.92
805.73	229.87
806.05	229.78
806.37	229.75
806.69	229.71
807.01	229.65
807.33	229.63
807.65	229.55
807.97	229.51
808.28	229.45
808.60	229.39
808.92	229.36
809.24	229.39
809.56	229.34
809.88	229.28
810.20	229.29
810.52	229.29
810.84	229.26
811.16	229.22
811.48	229.20
811.80	229.24
812.12	229.22
812.43	229.20
812.75	229.19
813.07	229.17
813.39	229.17
813.71	229.15
814.03	229.12
814.35	229.15
814.67	229.08
814.98	229.08
815.30	229.08
815.62	229.07
815.94	228.98
816.26	229.01
816.58	228.96
816.89	228.91
817.21	228.87
817.53	228.87
817.85	228.88
818.17	228.85
818.48	228.79
818.80	228.76
819.12	228.74
819.44	228.71
819.76	228.67
820.07	228.66
820.39	228.63
820.71	228.61
821.03	228.59
821.34	228.58
821.66	228.59
821.98	228.60
822.30	228.56
822.61	228.62
822.93	228.60
823.25	228.58
823.57	228.57
823.88	228.59
824.20	228.56
824.52	228.57
824.83	228.59
825.15	228.55
825.47	228.57
825.79	228.60
826.10	228.63
826.42	228.61
826.74	228.60
827.05	228.59
827.37	228.61
827.69	228.59
828.00	228.59
828.32	228.56
828.64	228.53
828.95	228.59
829.27	228.55
829.58	228.53
829.90	228.57
830.22	228.58
830.53	228.57
830.85	228.57
831.17	228.53
831.48	228.53
831.80	228.54
832.11	228.51
832.43	228.47
832.75	228.45
833.06	228.54
833.38	228.52
833.69	228.52
834.01	228.53
834.32	228.53
834.64	228.56
834.96	228.54
835.27	228.52
835.59	228.45
835.90	228.43
836.22	228.34
836.53	228.31
836.85	228.25
837.16	228.32
837.48	228.30
837.79	228.29
838.11	228.25
838.42	228.23
838.74	228.22
839.05	228.18
839.37	228.16
839.68	228.07
840.00	228.06
840.31	228.02
840.63	227.99
840.94	227.94
841.26	227.89
841.57	227.88
841.88	227.90
842.20	227.88
842.51	227.86
842.83	227.87
843.14	227.92
843.46	227.94
843.77	227.88
844.08	227.85
844.40	227.83
844.71	227.82
845.03	227.83
845.34	227.81
845.65	227.79
845.97	227.76
846.28	227.76
846.60	227.76
846.91	227.76
847.22	227.72
847.54	227.73
847.85	227.72
848.16	227.72
848.48	227.72
848.79	227.73
849.10	227.72
849.42	227.74
849.73	227.63
850.04	227.61
850.36	227.56
850.67	227.58
850.98	227.59
851.30	227.60
851.61	227.59
851.92	227.59
852.23	227.62
852.55	227.67
852.86	227.67
853.17	227.66
853.49	227.69
853.80	227.71
854.11	227.72
854.42	227.72
854.74	227.70
855.05	227.66
855.36	227.62
855.67	227.65
855.99	227.67
856.30	227.83
856.61	227.84
856.92	227.84
857.23	227.83
857.55	227.82
857.86	227.81
858.17	227.83
858.48	227.80
858.79	227.80
859.11	227.80
859.42	227.81
859.73	227.79
860.04	227.80
860.35	227.76
860.66	227.75
860.98	227.74
861.29	227.80
861.60	227.78
861.91	227.82
862.22	227.80
862.53	227.76
862.84	227.61
863.16	227.62
863.47	227.62
863.78	227.64
864.09	227.66
864.40	227.66
864.71	227.69
865.02	227.67
865.33	227.69
865.64	227.67
865.95	227.65
866.27	227.74
866.58	227.69
866.89	227.74
867.20	227.73
867.51	227.68
867.82	227.61
868.13	227.64
868.44	227.56
868.75	227.58
869.06	227.58
869.37	227.60
869.68	227.56
869.99	227.56
870.30	227.58
870.61	227.59
870.92	227.56
871.23	227.55
871.54	227.61
871.85	227.60
872.16	227.62
872.47	227.62
872.78	227.53
873.09	227.52
873.40	227.49
873.71	227.51
874.02	227.53
874.33	227.55
874.64	227.51
874.95	227.54
875.26	227.48
875.56	227.49
875.87	227.49
876.18	227.50
876.49	227.59
876.80	227.55
877.11	227.49
877.42	227.49
877.73	227.45
878.04	227.42
878.35	227.40
878.66	227.37
878.96	227.36
879.27	227.39
879.58	227.38
879.89	227.37
880.20	227.36
880.51	227.39
880.82	227.40
881.12	227.40
881.43	227.39
881.74	227.45
882.05	227.40
882.36	227.41
882.67	227.41
882.97	227.32
883.28	227.28
883.59	227.28
883.90	227.27
884.21	227.29
884.51	227.29
884.82	227.27
885.13	227.28
885.44	227.28
885.74	227.25
886.05	227.28
886.36	227.31
886.67	227.28
886.98	227.29
887.28	227.28
887.59	227.25
887.90	227.26
888.20	227.23
888.51	227.27
888.82	227.21
889.13	227.21
889.43	227.26
889.74	227.24
890.05	227.26
890.35	227.30
890.66	227.28
890.97	227.26
891.28	227.24
891.58	227.26
891.89	227.24
892.20	227.23
892.50	227.19
892.81	227.17
893.12	227.18
893.42	227.13
893.73	227.13
894.04	227.19
894.34	227.21
894.65	227.20
894.95	227.19
895.26	227.21
895.57	227.26
895.87	227.16
896.18	227.19
896.48	227.17
896.79	227.14
897.10	227.17
897.40	227.18
897.71	227.21
898.01	227.20
898.32	227.16
898.63	227.16
898.93	227.18
899.24	227.17
899.54	227.14
899.85	227.14
900.15	227.13
900.46	227.13
900.76	227.14
901.07	227.14
901.38	227.16
901.68	227.18
901.99	227.14
902.29	227.19
902.60	227.19
902.90	227.20
903.21	227.19
903.51	227.18
903.82	227.19
904.12	227.18
904.43	227.16
904.73	227.18
905.03	227.15
905.34	227.23
905.64	227.23
905.95	227.27
906.25	227.31
906.56	227.31
906.86	227.29
907.17	227.27
907.47	227.26
907.77	227.25
908.08	227.23
908.38	227.23
908.69	227.23
908.99	227.30
909.30	227.31
909.60	227.33
909.90	227.33
910.21	227.29
910.51	227.31
910.81	227.35
911.12	227.34
911.42	227.35
911.73	227.28
912.03	227.27
912.33	227.27
912.64	227.24
912.94	227.23
913.24	227.23
913.55	227.25
913.85	227.26
914.15	227.27
914.46	227.27
914.76	227.26
915.06	227.28
915.37	227.19
915.67	227.18
915.97	227.18
916.27	227.15
916.58	227.19
916.88	227.16
917.18	227.13
917.49	227.20
917.79	227.22
918.09	227.22
918.39	227.24
918.70	227.23
919.00	227.23
919.30	227.27
919.60	227.28
919.91	227.23
920.21	227.22
920.51	227.20
920.81	227.19
921.12	227.19
921.42	227.13
921.72	227.15
922.02	227.14
922.32	227.12
922.63	227.14
922.93	227.15
923.23	227.14
923.53	227.14
923.83	227.09
924.13	227.08
924.44	227.08
924.74	227.10
925.04	227.08
925.34	227.09
925.64	227.05
925.94	227.03
926.24	227.09
926.55	227.10
926.85	227.11
927.15	227.09
927.45	227.06
927.75	227.09
928.05	227.10
928.35	227.10
928.65	227.13
928.95	227.14
929.26	227.11
929.56	227.13
929.86	227.13
930.16	227.11
930.46	227.08
930.76	227.09
931.06	227.05
931.36	227.06
931.66	227.07
931.96	227.12
932.26	227.09
932.56	227.04
932.86	227.03
933.16	227.05
933.46	227.06
933.76	227.09
934.06	227.12
934.36	227.15
934.66	227.16
934.96	227.14
935.26	227.13
935.56	227.15
935.86	227.11
936.16	227.14
936.46	227.18
936.76	227.20
937.06	227.19
937.36	227.20
937.66	227.21
937.96	227.22
938.26	227.21
938.56	227.22
938.86	227.23
939.16	227.26
939.46	227.26
939.76	227.26
940.06	227.26
940.35	227.21
940.65	227.16
940.95	227.13
941.25	227.12
941.55	227.13
941.85	227.14
942.15	227.17
942.45	227.18
942.75	227.14
943.04	227.12
943.34	227.13
943.64	227.11
943.94	227.11
944.24	227.09
944.54	227.08
944.84	227.09
945.13	227.06
945.43	227.03
945.73	227.01
946.03	227.00
946.33	226.98
946.62	226.98
946.92	227.01
947.22	227.05
947.52	227.06
947.82	227.04
948.11	227.03
948.41	227.01
948.71	226.99
949.01	227.00
949.31	227.03
949.60	227.03
949.90	227.04
950.20	227.03
950.50	227.03
950.79	227.00
951.09	227.02
951.39	227.06
951.69	227.07
951.98	227.10
952.28	227.12
952.58	227.13
952.87	227.15
953.17	227.14
953.47	227.12
953.76	227.13
954.06	227.12
954.36	227.10
954.66	227.12
954.95	227.12
955.25	227.11
955.55	227.08
955.84	227.09
956.14	227.11
956.44	227.10
956.73	227.07
957.03	227.09
957.32	227.08
957.62	227.08
957.92	227.09
958.21	227.07
958.51	227.17
958.81	227.19
959.10	227.20
959.40	227.21
959.69	227.20
959.99	227.19
960.29	227.20
960.58	227.18
960.88	227.20
961.17	227.17
961.47	227.19
961.76	227.20
962.06	227.19
962.36	227.20
962.65	227.22
962.95	227.24
963.24	227.25
963.54	227.23
963.83	227.25
964.13	227.23
964.42	227.22
964.72	227.13
965.01	227.11
965.31	227.09
965.60	227.09
965.90	227.17
966.19	227.13
966.49	227.14
966.78	227.15
967.08	227.16
967.37	227.17
967.67	227.17
967.96	227.17
968.26	227.16
968.55	227.14
968.85	227.10
969.14	227.09
969.43	227.05
969.73	227.04
970.02	227.02
970.32	227.01
970.61	227.00
970.91	226.96
971.20	226.93
971.49	226.93
971.79	226.91
972.08	226.83
972.38	226.85
972.67	226.86
972.96	226.90
973.26	226.88
973.55	226.89
973.85	226.86
974.14	226.84
974.43	226.86
974.73	226.86
975.02	226.86
975.31	226.87
975.61	226.89
975.90	226.89
976.19	226.89
976.49	226.89
976.78	226.88
977.07	226.91
977.37	226.90
977.66	226.91
977.95	226.91
978.24	226.92
978.54	226.92
978.83	226.88
979.12	226.82
979.42	226.84
979.71	226.86
980.00	226.87
980.29	226.86
980.59	226.83
980.88	226.86
981.17	226.86
981.46	226.85
981.76	226.89
982.05	226.90
982.34	226.87
982.63	226.91
982.93	226.93
983.22	226.92
983.51	226.95
983.80	226.98
984.09	226.98
984.39	226.99
984.68	227.00
984.97	227.01
985.26	227.04
985.55	227.06
985.85	227.01
986.14	227.01
986.43	227.06
986.72	227.06
987.01	227.03
987.30	227.06
987.59	227.08
987.89	227.06
988.18	227.06
988.47	227.09
988.76	227.08
989.05	227.12
989.34	227.16
989.63	227.20
989.92	227.19
990.22	227.20
990.51	227.19
990.80	227.17
991.09	227.18
991.38	227.19
991.67	227.17
991.96	227.15
992.25	227.21
992.54	227.18
992.83	227.19
993.12	227.19
993.41	227.18
993.70	227.22
993.99	227.26
994.28	227.27
994.58	227.27
994.87	227.23
995.16	227.22
995.45	227.18
995.74	227.13
996.03	227.14
996.32	227.18
996.61	227.19
996.90	227.22
997.19	227.23
997.48	227.20
997.77	227.20
998.06	227.24
998.34	227.19
998.63	227.18
998.92	227.21
999.21	227.23
999.50	227.21
999.79	227.18
1000.08	227.16
1000.37	227.16
1000.66	227.18
1000.95	227.24
1001.24	227.22
1001.53	227.24
1001.82	227.23
1002.11	227.21
1002.40	227.18
1002.68	227.20
1002.97	227.24
1003.26	227.22
1003.55	227.20
1003.84	227.21
1004.13	227.25
1004.42	227.23
1004.71	227.25
1004.99	227.22
1005.28	227.24
1005.57	227.24
1005.86	227.21
1006.15	227.19
1006.44	227.18
1006.72	227.19
1007.01	227.16
1007.30	227.15
1007.59	227.11
1007.88	227.13
1008.17	227.14
1008.45	227.10
1008.74	227.08
1009.03	227.06
1009.32	227.05
1009.60	227.05
1009.89	227.00
1010.18	226.93
1010.47	226.93
1010.76	226.89
1011.04	226.87
1011.33	226.88
1011.62	226.87
1011.91	226.86
1012.19	226.87
1012.48	226.84
1012.77	226.82
1013.05	226.85
1013.34	226.86
1013.63	226.87
1013.92	226.85
1014.20	226.85
1014.49	226.85
1014.78	226.83
1015.06	226.78
1015.35	226.79
1015.64	226.80
1015.92	226.84
1016.21	226.85
1016.50	226.88
1016.78	226.91
1017.07	226.91
1017.36	226.87
1017.64	226.89
1017.93	226.86
1018.22	226.85
1018.50	226.88
1018.79	226.89
1019.08	226.83
1019.36	226.84
1019.65	226.84
1019.93	226.87
1020.22	226.87
1020.51	226.92
1020.79	226.91
1021.08	226.72
1021.36	227.26
1021.65	226.98
1021.94	226.47
1022.22	227.12
1022.51	226.90
1022.79	227.36
1023.08	227.10
1023.36	227.76
1023.65	226.46
>>>>>End Processed Spectral Data<<<<<
