SpectraSuite Data File
++++++++++++++++++++++++++++++++++++
Date: Fri Feb 01 14:49:11 EST 2013
User: group
Dark Spectrum Present: No
Reference Spectrum Present: No
Number of Sampled Component Spectra: 1
Spectrometers: USB2E7196
Integration Time (usec): 35000 (USB2E7196)
Spectra Averaged: 100 (USB2E7196)
Boxcar Smoothing: 10 (USB2E7196)
Correct for Electrical Dark: No (USB2E7196)
Strobe/Lamp Enabled: No (USB2E7196)
Correct for Detector Non-linearity: No (USB2E7196)
Correct for Stray Light: No (USB2E7196)
Number of Pixels in Processed Spectrum: 2048
>>>>>Begin Processed Spectral Data<<<<<
339.09	0.00
339.48	215.73
339.86	216.61
340.24	219.11
340.63	219.92
341.01	222.76
341.39	222.88
341.78	224.68
342.16	225.76
342.54	225.88
342.93	214.31
343.31	225.13
343.69	225.71
344.07	226.22
344.46	226.63
344.84	227.01
345.22	227.28
345.60	227.53
345.99	227.68
346.37	227.75
346.75	227.83
347.13	227.88
347.52	227.93
347.90	227.99
348.28	228.04
348.66	228.05
349.05	228.02
349.43	228.03
349.81	228.07
350.19	228.09
350.57	228.14
350.96	228.20
351.34	228.25
351.72	228.30
352.10	228.39
352.48	228.45
352.87	228.53
353.25	228.55
353.63	228.60
354.01	228.66
354.39	228.76
354.77	228.83
355.15	228.94
355.54	229.00
355.92	229.01
356.30	229.06
356.68	229.19
357.06	229.25
357.44	229.33
357.82	229.39
358.20	229.44
358.58	229.50
358.97	229.53
359.35	229.61
359.73	229.68
360.11	229.72
360.49	229.76
360.87	229.79
361.25	229.86
361.63	229.94
362.01	229.97
362.39	230.03
362.77	230.08
363.15	230.09
363.53	230.12
363.91	230.14
364.29	230.13
364.67	230.07
365.05	230.12
365.43	230.12
365.81	230.13
366.19	230.15
366.57	230.16
366.95	230.15
367.33	230.13
367.71	230.11
368.09	230.07
368.47	230.07
368.85	230.01
369.23	229.99
369.61	229.90
369.99	229.91
370.37	229.86
370.75	229.86
371.13	229.81
371.51	229.73
371.89	229.70
372.27	229.67
372.65	229.63
373.03	229.55
373.41	229.49
373.78	229.42
374.16	229.35
374.54	229.25
374.92	229.17
375.30	229.06
375.68	228.96
376.06	228.90
376.44	228.79
376.82	228.74
377.19	228.64
377.57	228.59
377.95	228.47
378.33	228.37
378.71	228.23
379.09	228.17
379.47	228.09
379.84	227.96
380.22	227.87
380.60	227.77
380.98	227.68
381.36	227.57
381.73	227.46
382.11	227.39
382.49	227.33
382.87	227.25
383.25	227.24
383.62	227.28
384.00	227.22
384.38	227.15
384.76	227.13
385.13	227.12
385.51	227.03
385.89	226.98
386.27	226.95
386.64	226.92
387.02	226.82
387.40	226.78
387.78	226.80
388.15	226.77
388.53	226.73
388.91	226.70
389.29	226.68
389.66	226.70
390.04	226.65
390.42	226.65
390.79	226.64
391.17	226.61
391.55	226.49
391.92	226.50
392.30	226.55
392.68	226.50
393.05	226.54
393.43	226.56
393.81	226.58
394.18	226.57
394.56	226.61
394.94	226.67
395.31	226.70
395.69	226.77
396.06	226.84
396.44	226.89
396.82	226.93
397.19	227.07
397.57	227.10
397.95	227.19
398.32	227.23
398.70	227.32
399.07	227.43
399.45	227.52
399.82	227.59
400.20	227.65
400.58	227.75
400.95	227.78
401.33	227.92
401.70	228.10
402.08	228.23
402.45	228.35
402.83	228.49
403.20	228.62
403.58	228.72
403.95	228.88
404.33	229.02
404.71	229.16
405.08	229.33
405.46	229.49
405.83	229.68
406.21	229.85
406.58	230.02
406.96	230.19
407.33	230.38
407.70	230.60
408.08	230.86
408.45	231.09
408.83	231.34
409.20	231.55
409.58	231.73
409.95	231.97
410.33	232.24
410.70	232.51
411.08	232.84
411.45	233.15
411.82	233.45
412.20	233.82
412.57	234.26
412.95	234.56
413.32	234.98
413.69	235.39
414.07	235.83
414.44	236.32
414.82	236.79
415.19	237.34
415.56	237.86
415.94	238.42
416.31	239.08
416.68	239.69
417.06	240.39
417.43	241.07
417.81	241.83
418.18	242.59
418.55	243.46
418.93	244.31
419.30	245.18
419.67	246.10
420.04	247.06
420.42	248.03
420.79	249.22
421.16	250.37
421.54	251.53
421.91	252.71
422.28	253.94
422.66	255.28
423.03	256.58
423.40	257.91
423.77	259.29
424.15	260.68
424.52	262.16
424.89	263.77
425.26	265.31
425.64	266.78
426.01	268.33
426.38	269.94
426.75	271.57
427.13	273.29
427.50	275.11
427.87	276.98
428.24	278.83
428.61	280.54
428.99	282.46
429.36	284.53
429.73	286.57
430.10	288.58
430.47	290.59
430.85	292.67
431.22	294.91
431.59	297.29
431.96	299.55
432.33	302.02
432.70	304.40
433.08	307.21
433.45	309.86
433.82	312.44
434.19	315.32
434.56	318.11
434.93	320.76
435.30	323.35
435.68	326.18
436.05	329.00
436.42	331.76
436.79	334.28
437.16	336.99
437.53	339.85
437.90	342.63
438.27	345.41
438.64	348.23
439.01	350.80
439.38	353.03
439.75	355.17
440.13	357.64
440.50	359.98
440.87	361.84
441.24	363.75
441.61	365.95
441.98	367.44
442.35	369.29
442.72	371.16
443.09	372.96
443.46	374.00
443.83	374.56
444.20	375.11
444.57	375.96
444.94	376.23
445.31	376.54
445.68	376.94
446.05	376.99
446.42	376.65
446.79	376.27
447.16	375.82
447.53	375.53
447.90	374.38
448.27	373.19
448.64	371.61
449.01	370.46
449.37	368.52
449.74	366.64
450.11	364.41
450.48	361.92
450.85	359.38
451.22	357.24
451.59	355.25
451.96	353.31
452.33	350.70
452.70	348.36
453.07	345.59
453.43	342.66
453.80	339.90
454.17	337.19
454.54	334.62
454.91	331.92
455.28	329.25
455.65	326.75
456.02	324.31
456.38	322.14
456.75	319.50
457.12	317.25
457.49	315.02
457.86	312.83
458.23	310.99
458.59	308.97
458.96	306.91
459.33	305.04
459.70	303.17
460.07	301.67
460.43	299.93
460.80	298.30
461.17	296.89
461.54	295.41
461.91	293.99
462.27	292.57
462.64	291.34
463.01	289.95
463.38	288.66
463.74	287.31
464.11	286.16
464.48	285.14
464.85	284.03
465.21	283.17
465.58	282.25
465.95	281.13
466.32	280.22
466.68	279.33
467.05	278.45
467.42	277.53
467.78	276.55
468.15	275.69
468.52	274.99
468.88	274.08
469.25	273.28
469.62	272.62
469.98	271.90
470.35	271.21
470.72	270.64
471.08	270.00
471.45	269.43
471.82	268.84
472.18	268.23
472.55	267.76
472.92	267.20
473.28	266.70
473.65	266.25
474.02	265.76
474.38	265.35
474.75	265.01
475.11	264.66
475.48	264.39
475.85	264.10
476.21	263.86
476.58	263.68
476.94	263.50
477.31	263.35
477.67	263.18
478.04	263.10
478.41	263.00
478.77	263.01
479.14	262.95
479.50	262.98
479.87	263.03
480.23	263.06
480.60	263.10
480.96	263.18
481.33	263.36
481.69	263.58
482.06	263.72
482.42	263.89
482.79	264.15
483.15	264.48
483.52	264.87
483.88	265.21
484.25	265.60
484.61	266.02
484.98	266.45
485.34	267.05
485.71	267.59
486.07	268.20
486.44	268.78
486.80	269.45
487.17	270.18
487.53	271.03
487.90	271.85
488.26	272.76
488.62	273.77
488.99	274.78
489.35	275.83
489.72	276.99
490.08	278.17
490.44	279.39
490.81	280.71
491.17	282.08
491.54	283.55
491.90	285.06
492.26	286.75
492.63	288.47
492.99	290.21
493.36	292.08
493.72	294.10
494.08	296.18
494.45	298.43
494.81	300.75
495.17	303.13
495.54	305.73
495.90	308.43
496.26	311.21
496.63	314.13
496.99	317.16
497.35	320.38
497.72	323.79
498.08	327.26
498.44	330.91
498.80	334.82
499.17	338.80
499.53	342.93
499.89	347.21
500.26	351.68
500.62	356.35
500.98	361.30
501.34	366.31
501.71	371.52
502.07	376.88
502.43	382.45
502.79	388.22
503.16	394.20
503.52	400.45
503.88	406.77
504.24	413.30
504.60	420.19
504.97	427.29
505.33	434.55
505.69	442.21
506.05	449.85
506.41	457.64
506.78	465.76
507.14	474.20
507.50	482.85
507.86	491.83
508.22	500.94
508.59	510.07
508.95	519.66
509.31	529.45
509.67	539.50
510.03	549.70
510.39	560.16
510.75	570.94
511.12	581.84
511.48	593.07
511.84	604.48
512.20	615.88
512.56	627.76
512.92	639.90
513.28	652.21
513.64	664.75
514.00	677.38
514.37	690.35
514.73	703.38
515.09	716.48
515.45	729.74
515.81	743.33
516.17	757.31
516.53	771.45
516.89	785.57
517.25	799.78
517.61	814.27
517.97	828.72
518.33	843.19
518.69	857.92
519.05	872.92
519.41	888.06
519.77	903.68
520.13	919.18
520.49	934.58
520.85	949.95
521.21	965.69
521.57	981.96
521.93	997.81
522.29	1014.19
522.65	1030.48
523.01	1046.73
523.37	1062.69
523.73	1078.87
524.09	1094.94
524.45	1111.38
524.81	1128.02
525.17	1144.88
525.53	1161.87
525.89	1178.81
526.25	1195.68
526.61	1212.19
526.97	1229.06
527.33	1245.50
527.68	1262.11
528.04	1278.67
528.40	1295.35
528.76	1312.42
529.12	1329.16
529.48	1345.92
529.84	1362.03
530.20	1378.77
530.56	1395.81
530.91	1413.34
531.27	1430.19
531.63	1446.71
531.99	1463.38
532.35	1479.51
532.71	1495.36
533.07	1511.79
533.42	1527.67
533.78	1543.66
534.14	1559.90
534.50	1575.15
534.86	1591.15
535.21	1606.37
535.57	1622.45
535.93	1637.97
536.29	1652.72
536.65	1667.85
537.00	1682.79
537.36	1698.08
537.72	1712.51
538.08	1726.98
538.44	1740.89
538.79	1754.78
539.15	1768.60
539.51	1782.29
539.87	1796.82
540.22	1810.70
540.58	1824.37
540.94	1837.85
541.29	1850.89
541.65	1863.68
542.01	1877.11
542.37	1889.41
542.72	1901.94
543.08	1913.57
543.44	1926.02
543.79	1937.41
544.15	1948.37
544.51	1959.91
544.87	1970.88
545.22	1981.68
545.58	1991.87
545.94	2001.44
546.29	2011.43
546.65	2021.13
547.01	2030.30
547.36	2038.91
547.72	2047.34
548.07	2055.22
548.43	2063.29
548.79	2071.27
549.14	2078.82
549.50	2086.12
549.86	2093.89
550.21	2101.12
550.57	2108.37
550.92	2115.04
551.28	2122.08
551.64	2129.08
551.99	2135.50
552.35	2141.60
552.70	2147.57
553.06	2153.35
553.41	2159.61
553.77	2165.37
554.13	2171.25
554.48	2177.22
554.84	2182.51
555.19	2187.66
555.55	2192.61
555.90	2197.04
556.26	2201.66
556.61	2206.08
556.97	2210.07
557.32	2214.06
557.68	2218.11
558.03	2222.15
558.39	2225.67
558.74	2229.99
559.10	2233.69
559.45	2237.14
559.81	2241.40
560.16	2244.97
560.52	2248.22
560.87	2251.79
561.23	2254.37
561.58	2257.33
561.94	2259.95
562.29	2262.17
562.64	2264.82
563.00	2267.27
563.35	2270.57
563.71	2273.62
564.06	2276.74
564.42	2279.58
564.77	2281.91
565.12	2283.97
565.48	2285.71
565.83	2287.40
566.19	2288.68
566.54	2289.41
566.89	2290.54
567.25	2290.79
567.60	2292.22
567.96	2293.62
568.31	2293.92
568.66	2294.64
569.02	2294.93
569.37	2294.89
569.72	2295.60
570.08	2295.33
570.43	2295.06
570.78	2293.99
571.14	2292.11
571.49	2290.55
571.84	2289.85
572.20	2288.27
572.55	2286.84
572.90	2284.99
573.26	2283.16
573.61	2281.09
573.96	2278.91
574.31	2275.54
574.67	2272.27
575.02	2268.22
575.37	2264.53
575.72	2260.59
576.08	2257.07
576.43	2253.50
576.78	2249.67
577.13	2245.98
577.49	2242.63
577.84	2238.84
578.19	2235.08
578.54	2231.30
578.90	2226.78
579.25	2221.20
579.60	2216.07
579.95	2210.81
580.30	2205.46
580.66	2200.18
581.01	2195.08
581.36	2190.00
581.71	2185.56
582.06	2181.08
582.42	2176.53
582.77	2171.14
583.12	2166.42
583.47	2161.70
583.82	2156.51
584.17	2151.18
584.53	2145.68
584.88	2139.86
585.23	2134.04
585.58	2128.31
585.93	2122.67
586.28	2117.81
586.63	2112.46
586.98	2107.36
587.34	2102.62
587.69	2097.64
588.04	2092.19
588.39	2086.30
588.74	2079.66
589.09	2073.37
589.44	2066.36
589.79	2060.07
590.14	2054.28
590.49	2047.42
590.84	2040.67
591.19	2034.48
591.54	2027.63
591.89	2020.02
592.25	2013.08
592.60	2005.74
592.95	1998.11
593.30	1990.72
593.65	1982.95
594.00	1975.70
594.35	1968.26
594.70	1960.03
595.05	1952.87
595.40	1945.46
595.75	1937.90
596.10	1931.70
596.45	1924.78
596.80	1918.46
597.15	1911.86
597.50	1904.83
597.85	1898.48
598.19	1891.94
598.54	1884.88
598.89	1878.34
599.24	1872.37
599.59	1865.63
599.94	1859.30
600.29	1852.81
600.64	1846.10
600.99	1838.50
601.34	1831.80
601.69	1824.85
602.04	1817.96
602.39	1810.62
602.74	1803.86
603.08	1797.13
603.43	1790.47
603.78	1783.26
604.13	1776.15
604.48	1768.90
604.83	1761.97
605.18	1755.01
605.53	1747.03
605.87	1738.92
606.22	1731.59
606.57	1723.75
606.92	1716.42
607.27	1709.43
607.62	1702.70
607.96	1695.55
608.31	1689.16
608.66	1681.49
609.01	1673.97
609.36	1666.64
609.70	1658.69
610.05	1650.80
610.40	1643.25
610.75	1634.99
611.10	1627.52
611.44	1619.27
611.79	1611.21
612.14	1602.69
612.49	1593.59
612.83	1585.35
613.18	1577.46
613.53	1569.43
613.88	1560.94
614.22	1552.93
614.57	1544.49
614.92	1536.67
615.27	1529.33
615.61	1521.00
615.96	1513.10
616.31	1505.64
616.65	1498.26
617.00	1490.66
617.35	1482.93
617.70	1474.64
618.04	1466.25
618.39	1458.13
618.74	1450.57
619.08	1442.56
619.43	1435.12
619.78	1428.43
620.12	1421.32
620.47	1413.95
620.82	1406.05
621.16	1398.83
621.51	1391.29
621.85	1383.78
622.20	1375.33
622.55	1367.08
622.89	1359.43
623.24	1352.04
623.59	1344.72
623.93	1337.40
624.28	1330.35
624.62	1323.09
624.97	1316.00
625.32	1309.31
625.66	1302.41
626.01	1295.35
626.35	1287.94
626.70	1280.31
627.04	1272.61
627.39	1264.89
627.73	1257.52
628.08	1250.73
628.43	1243.60
628.77	1236.33
629.12	1228.81
629.46	1221.68
629.81	1214.33
630.15	1207.33
630.50	1199.98
630.84	1191.83
631.19	1183.96
631.53	1176.43
631.88	1168.87
632.22	1161.42
632.57	1154.17
632.91	1146.75
633.26	1139.40
633.60	1132.13
633.95	1125.10
634.29	1118.17
634.64	1111.55
634.98	1104.38
635.32	1097.36
635.67	1090.81
636.01	1084.34
636.36	1077.70
636.70	1071.26
637.05	1064.79
637.39	1058.39
637.73	1052.09
638.08	1046.44
638.42	1040.51
638.77	1034.40
639.11	1028.05
639.45	1021.80
639.80	1015.25
640.14	1008.93
640.49	1002.46
640.83	996.31
641.17	990.24
641.52	983.97
641.86	977.75
642.20	971.97
642.55	965.77
642.89	959.41
643.23	952.92
643.58	947.28
643.92	941.22
644.26	935.23
644.61	929.23
644.95	923.26
645.29	916.74
645.64	910.11
645.98	903.78
646.32	898.06
646.66	892.11
647.01	886.47
647.35	880.83
647.69	875.05
648.04	869.58
648.38	863.80
648.72	857.92
649.06	851.94
649.41	846.13
649.75	840.12
650.09	834.12
650.43	828.40
650.78	822.20
651.12	816.33
651.46	810.76
651.80	805.03
652.14	799.69
652.49	794.38
652.83	789.30
653.17	783.63
653.51	777.87
653.85	772.45
654.20	766.78
654.54	760.80
654.88	755.19
655.22	749.38
655.56	743.77
655.90	738.37
656.25	733.11
656.59	727.80
656.93	722.86
657.27	717.92
657.61	712.54
657.95	707.56
658.29	702.56
658.64	697.27
658.98	692.12
659.32	686.75
659.66	681.67
660.00	676.45
660.34	671.69
660.68	666.89
661.02	662.02
661.36	657.45
661.70	653.13
662.05	648.91
662.39	644.66
662.73	640.27
663.07	636.00
663.41	631.58
663.75	627.13
664.09	622.64
664.43	618.33
664.77	614.33
665.11	610.16
665.45	606.03
665.79	602.07
666.13	597.97
666.47	593.89
666.81	589.78
667.15	585.69
667.49	581.77
667.83	577.98
668.17	574.06
668.51	570.03
668.85	566.03
669.19	562.18
669.53	558.38
669.87	554.62
670.21	551.04
670.55	547.60
670.89	544.27
671.23	540.89
671.57	537.41
671.91	533.94
672.25	530.54
672.58	527.15
672.92	523.77
673.26	520.71
673.60	517.68
673.94	514.62
674.28	511.80
674.62	508.89
674.96	505.87
675.30	503.00
675.64	500.15
675.97	497.41
676.31	494.61
676.65	491.78
676.99	489.06
677.33	486.15
677.67	483.35
678.01	480.30
678.34	477.31
678.68	474.48
679.02	471.70
679.36	468.91
679.70	466.16
680.04	463.45
680.37	460.60
680.71	457.82
681.05	455.18
681.39	452.49
681.73	449.91
682.06	447.49
682.40	444.97
682.74	442.47
683.08	439.91
683.42	437.32
683.75	434.82
684.09	432.32
684.43	429.88
684.77	427.45
685.10	425.17
685.44	422.94
685.78	420.65
686.12	418.42
686.45	416.21
686.79	413.98
687.13	411.79
687.46	409.69
687.80	407.56
688.14	405.40
688.48	403.44
688.81	401.19
689.15	398.99
689.49	396.89
689.82	394.85
690.16	392.86
690.50	390.99
690.83	389.10
691.17	387.13
691.51	385.28
691.84	383.46
692.18	381.55
692.52	379.58
692.85	377.69
693.19	375.84
693.52	374.03
693.86	372.25
694.20	370.55
694.53	368.74
694.87	366.91
695.21	365.18
695.54	363.36
695.88	361.70
696.21	360.01
696.55	358.34
696.88	356.68
697.22	355.05
697.56	353.42
697.89	351.77
698.23	350.16
698.56	348.57
698.90	347.01
699.23	345.42
699.57	343.89
699.90	342.36
700.24	340.83
700.58	339.28
700.91	337.84
701.25	336.41
701.58	335.04
701.92	333.67
702.25	332.30
702.59	330.90
702.92	329.57
703.26	328.29
703.59	327.02
703.93	325.82
704.26	324.59
704.60	323.34
704.93	322.08
705.26	320.89
705.60	319.73
705.93	318.57
706.27	317.54
706.60	316.49
706.94	315.46
707.27	314.37
707.61	313.36
707.94	312.33
708.27	311.25
708.61	310.22
708.94	309.24
709.28	308.30
709.61	307.38
709.94	306.42
710.28	305.40
710.61	304.49
710.95	303.48
711.28	302.62
711.61	301.69
711.95	300.82
712.28	299.90
712.61	298.99
712.95	298.08
713.28	297.19
713.61	296.31
713.95	295.46
714.28	294.65
714.61	293.78
714.95	292.94
715.28	292.05
715.61	291.15
715.95	290.28
716.28	289.43
716.61	288.64
716.95	287.85
717.28	287.16
717.61	286.36
717.94	285.62
718.28	284.78
718.61	284.04
718.94	283.30
719.27	282.68
719.61	282.02
719.94	281.38
720.27	280.71
720.60	280.07
720.94	279.41
721.27	278.81
721.60	278.27
721.93	277.68
722.27	277.20
722.60	276.69
722.93	276.14
723.26	275.58
723.59	275.00
723.93	274.45
724.26	273.87
724.59	273.34
724.92	272.80
725.25	272.34
725.59	271.88
725.92	271.43
726.25	270.91
726.58	270.40
726.91	269.93
727.24	269.44
727.57	268.98
727.91	268.48
728.24	268.04
728.57	267.53
728.90	267.10
729.23	266.58
729.56	266.15
729.89	265.70
730.22	265.27
730.55	264.82
730.89	264.41
731.22	263.99
731.55	263.55
731.88	263.13
732.21	262.72
732.54	262.26
732.87	261.81
733.20	261.40
733.53	261.02
733.86	260.61
734.19	260.22
734.52	259.84
734.85	259.57
735.18	259.17
735.51	258.78
735.84	258.40
736.17	258.06
736.50	257.67
736.83	257.45
737.16	257.10
737.49	256.77
737.82	256.44
738.15	256.10
738.48	255.77
738.81	255.45
739.14	255.11
739.47	254.77
739.80	254.48
740.13	254.19
740.46	253.85
740.79	253.50
741.12	253.17
741.45	252.84
741.78	252.49
742.11	252.20
742.44	251.91
742.77	251.65
743.10	251.34
743.43	251.01
743.75	250.59
744.08	250.44
744.41	250.17
744.74	249.87
745.07	249.59
745.40	249.35
745.73	249.09
746.06	248.82
746.39	248.58
746.71	248.29
747.04	248.01
747.37	247.75
747.70	247.52
748.03	247.31
748.36	247.08
748.68	246.84
749.01	246.58
749.34	246.35
749.67	246.10
750.00	245.87
750.33	245.79
750.65	245.61
750.98	245.27
751.31	245.07
751.64	244.87
751.97	244.71
752.29	244.51
752.62	244.30
752.95	244.12
753.28	243.92
753.60	243.78
753.93	243.62
754.26	243.43
754.59	243.27
754.91	243.02
755.24	242.87
755.57	242.70
755.90	242.55
756.22	242.39
756.55	242.19
756.88	242.06
757.20	241.80
757.53	241.61
757.86	241.46
758.19	241.31
758.51	241.18
758.84	241.00
759.17	240.85
759.49	240.73
759.82	240.59
760.15	240.47
760.47	240.32
760.80	240.13
761.13	240.03
761.45	239.89
761.78	239.79
762.11	239.64
762.43	239.47
762.76	239.32
763.08	239.21
763.41	239.08
763.74	238.94
764.06	238.81
764.39	238.67
764.71	238.55
765.04	238.40
765.37	238.24
765.69	238.08
766.02	237.93
766.34	237.76
766.67	237.63
767.00	237.51
767.32	237.46
767.65	237.42
767.97	237.29
768.30	237.15
768.62	237.05
768.95	236.94
769.27	236.82
769.60	236.73
769.92	236.58
770.25	236.48
770.57	236.35
770.90	236.23
771.22	236.16
771.55	236.05
771.87	235.96
772.20	235.88
772.52	235.85
772.85	235.89
773.17	235.80
773.50	235.69
773.82	235.55
774.15	235.38
774.47	235.24
774.80	235.12
775.12	235.02
775.45	234.93
775.77	234.83
776.09	234.78
776.42	234.65
776.74	234.59
777.07	234.48
777.39	234.39
777.72	234.32
778.04	234.19
778.36	234.08
778.69	234.01
779.01	233.92
779.33	233.75
779.66	233.56
779.98	233.50
780.31	233.43
780.63	233.40
780.95	233.38
781.28	233.30
781.60	233.24
781.92	233.19
782.25	233.14
782.57	233.08
782.89	233.01
783.22	232.99
783.54	232.90
783.86	232.86
784.19	232.80
784.51	232.78
784.83	232.73
785.16	232.68
785.48	232.58
785.80	232.54
786.12	232.51
786.45	232.45
786.77	232.39
787.09	232.36
787.42	232.28
787.74	232.22
788.06	232.23
788.38	232.18
788.71	232.10
789.03	232.04
789.35	232.01
789.67	231.92
789.99	231.88
790.32	231.86
790.64	231.81
790.96	231.87
791.28	231.79
791.61	231.77
791.93	231.77
792.25	231.73
792.57	231.78
792.89	231.74
793.21	231.71
793.54	231.68
793.86	231.61
794.18	231.57
794.50	231.55
794.82	231.48
795.14	231.49
795.47	231.52
795.79	231.50
796.11	231.44
796.43	231.45
796.75	231.42
797.07	231.37
797.39	231.38
797.71	231.29
798.04	231.29
798.36	231.27
798.68	231.24
799.00	231.26
799.32	231.19
799.64	231.18
799.96	231.16
800.28	231.18
800.60	231.14
800.92	231.13
801.24	231.07
801.56	231.05
801.89	230.97
802.21	230.90
802.53	230.87
802.85	230.89
803.17	230.89
803.49	230.83
803.81	230.80
804.13	230.77
804.45	230.73
804.77	230.71
805.09	230.68
805.41	230.65
805.73	230.59
806.05	230.55
806.37	230.51
806.69	230.50
807.01	230.44
807.33	230.45
807.65	230.40
807.97	230.41
808.28	230.36
808.60	230.35
808.92	230.31
809.24	230.34
809.56	230.31
809.88	230.25
810.20	230.24
810.52	230.25
810.84	230.23
811.16	230.17
811.48	230.15
811.80	230.15
812.12	230.11
812.43	230.12
812.75	230.08
813.07	230.06
813.39	230.01
813.71	229.98
814.03	229.95
814.35	229.94
814.67	229.84
814.98	229.83
815.30	229.81
815.62	229.76
815.94	229.66
816.26	229.65
816.58	229.61
816.89	229.60
817.21	229.52
817.53	229.49
817.85	229.47
818.17	229.42
818.48	229.33
818.80	229.29
819.12	229.25
819.44	229.21
819.76	229.15
820.07	229.14
820.39	229.12
820.71	229.07
821.03	229.04
821.34	229.05
821.66	229.06
821.98	229.03
822.30	229.02
822.61	229.07
822.93	229.00
823.25	228.98
823.57	228.96
823.88	228.97
824.20	228.96
824.52	228.97
824.83	228.97
825.15	228.98
825.47	228.97
825.79	228.97
826.10	228.96
826.42	228.95
826.74	228.93
827.05	228.91
827.37	228.90
827.69	228.90
828.00	228.88
828.32	228.84
828.64	228.82
828.95	228.85
829.27	228.85
829.58	228.86
829.90	228.88
830.22	228.88
830.53	228.85
830.85	228.81
831.17	228.80
831.48	228.80
831.80	228.77
832.11	228.79
832.43	228.78
832.75	228.78
833.06	228.86
833.38	228.85
833.69	228.85
834.01	228.86
834.32	228.88
834.64	228.88
834.96	228.91
835.27	228.92
835.59	228.89
835.90	228.81
836.22	228.80
836.53	228.77
836.85	228.78
837.16	228.86
837.48	228.85
837.79	228.87
838.11	228.85
838.42	228.84
838.74	228.87
839.05	228.84
839.37	228.83
839.68	228.75
840.00	228.74
840.31	228.78
840.63	228.75
840.94	228.71
841.26	228.70
841.57	228.68
841.88	228.68
842.20	228.68
842.51	228.70
842.83	228.71
843.14	228.79
843.46	228.75
843.77	228.71
844.08	228.73
844.40	228.72
844.71	228.70
845.03	228.71
845.34	228.68
845.65	228.69
845.97	228.68
846.28	228.70
846.60	228.71
846.91	228.68
847.22	228.66
847.54	228.67
847.85	228.66
848.16	228.65
848.48	228.61
848.79	228.67
849.10	228.66
849.42	228.65
849.73	228.58
850.04	228.56
850.36	228.51
850.67	228.49
850.98	228.45
851.30	228.46
851.61	228.44
851.92	228.43
852.23	228.44
852.55	228.44
852.86	228.43
853.17	228.39
853.49	228.34
853.80	228.34
854.11	228.33
854.42	228.34
854.74	228.32
855.05	228.28
855.36	228.19
855.67	228.15
855.99	228.11
856.30	228.21
856.61	228.18
856.92	228.15
857.23	228.15
857.55	228.16
857.86	228.14
858.17	228.17
858.48	228.14
858.79	228.09
859.11	228.08
859.42	228.06
859.73	228.07
860.04	228.07
860.35	228.06
860.66	228.00
860.98	227.97
861.29	227.94
861.60	227.96
861.91	227.96
862.22	227.94
862.53	227.90
862.84	227.78
863.16	227.78
863.47	227.77
863.78	227.74
864.09	227.70
864.40	227.68
864.71	227.63
865.02	227.62
865.33	227.57
865.64	227.55
865.95	227.53
866.27	227.59
866.58	227.57
866.89	227.59
867.20	227.61
867.51	227.56
867.82	227.62
868.13	227.64
868.44	227.60
868.75	227.61
869.06	227.64
869.37	227.66
869.68	227.65
869.99	227.65
870.30	227.69
870.61	227.77
870.92	227.75
871.23	227.77
871.54	227.81
871.85	227.88
872.16	227.91
872.47	227.94
872.78	227.89
873.09	227.92
873.40	227.94
873.71	227.96
874.02	228.01
874.33	228.01
874.64	228.00
874.95	228.03
875.26	228.06
875.56	228.09
875.87	228.08
876.18	228.09
876.49	228.22
876.80	228.22
877.11	228.19
877.42	228.21
877.73	228.24
878.04	228.28
878.35	228.29
878.66	228.30
878.96	228.32
879.27	228.33
879.58	228.33
879.89	228.33
880.20	228.39
880.51	228.39
880.82	228.42
881.12	228.43
881.43	228.43
881.74	228.44
882.05	228.45
882.36	228.48
882.67	228.52
882.97	228.39
883.28	228.40
883.59	228.39
883.90	228.41
884.21	228.42
884.51	228.38
884.82	228.36
885.13	228.34
885.44	228.36
885.74	228.34
886.05	228.35
886.36	228.35
886.67	228.32
886.98	228.33
887.28	228.31
887.59	228.30
887.90	228.34
888.20	228.32
888.51	228.34
888.82	228.34
889.13	228.34
889.43	228.44
889.74	228.40
890.05	228.39
890.35	228.38
890.66	228.37
890.97	228.35
891.28	228.32
891.58	228.30
891.89	228.29
892.20	228.30
892.50	228.27
892.81	228.24
893.12	228.22
893.42	228.20
893.73	228.17
894.04	228.15
894.34	228.14
894.65	228.16
894.95	228.09
895.26	228.04
895.57	228.07
895.87	227.96
896.18	227.97
896.48	227.94
896.79	227.94
897.10	227.92
897.40	227.88
897.71	227.87
898.01	227.86
898.32	227.82
898.63	227.78
898.93	227.78
899.24	227.75
899.54	227.72
899.85	227.69
900.15	227.67
900.46	227.66
900.76	227.60
901.07	227.56
901.38	227.56
901.68	227.58
901.99	227.51
902.29	227.52
902.60	227.51
902.90	227.51
903.21	227.45
903.51	227.45
903.82	227.51
904.12	227.51
904.43	227.52
904.73	227.52
905.03	227.53
905.34	227.61
905.64	227.63
905.95	227.63
906.25	227.64
906.56	227.63
906.86	227.66
907.17	227.68
907.47	227.68
907.77	227.69
908.08	227.69
908.38	227.67
908.69	227.68
908.99	227.73
909.30	227.77
909.60	227.80
909.90	227.82
910.21	227.82
910.51	227.82
910.81	227.83
911.12	227.85
911.42	227.90
911.73	227.81
912.03	227.84
912.33	227.84
912.64	227.86
912.94	227.89
913.24	227.86
913.55	227.87
913.85	227.87
914.15	227.89
914.46	227.89
914.76	227.92
915.06	227.95
915.37	227.93
915.67	227.91
915.97	227.92
916.27	227.93
916.58	227.91
916.88	227.92
917.18	227.94
917.49	228.02
917.79	228.03
918.09	228.05
918.39	228.06
918.70	228.07
919.00	228.07
919.30	228.12
919.60	228.14
919.91	228.12
920.21	228.15
920.51	228.11
920.81	228.12
921.12	228.11
921.42	228.10
921.72	228.05
922.02	228.07
922.32	228.12
922.63	228.07
922.93	228.14
923.23	228.12
923.53	228.10
923.83	228.02
924.13	228.01
924.44	227.99
924.74	228.00
925.04	228.04
925.34	228.04
925.64	227.98
925.94	227.98
926.24	228.05
926.55	228.01
926.85	228.06
927.15	228.05
927.45	228.06
927.75	228.05
928.05	228.07
928.35	228.03
928.65	228.03
928.95	228.05
929.26	227.98
929.56	228.01
929.86	228.03
930.16	228.00
930.46	227.96
930.76	227.95
931.06	227.91
931.36	227.88
931.66	227.86
931.96	227.89
932.26	227.89
932.56	227.83
932.86	227.82
933.16	227.79
933.46	227.77
933.76	227.74
934.06	227.76
934.36	227.76
934.66	227.77
934.96	227.74
935.26	227.74
935.56	227.75
935.86	227.71
936.16	227.68
936.46	227.70
936.76	227.69
937.06	227.67
937.36	227.67
937.66	227.63
937.96	227.61
938.26	227.56
938.56	227.55
938.86	227.55
939.16	227.59
939.46	227.58
939.76	227.60
940.06	227.58
940.35	227.55
940.65	227.48
940.95	227.50
941.25	227.47
941.55	227.45
941.85	227.44
942.15	227.46
942.45	227.46
942.75	227.43
943.04	227.44
943.34	227.45
943.64	227.42
943.94	227.44
944.24	227.45
944.54	227.49
944.84	227.49
945.13	227.47
945.43	227.44
945.73	227.46
946.03	227.46
946.33	227.48
946.62	227.49
946.92	227.53
947.22	227.48
947.52	227.50
947.82	227.53
948.11	227.52
948.41	227.51
948.71	227.52
949.01	227.53
949.31	227.54
949.60	227.55
949.90	227.58
950.20	227.57
950.50	227.57
950.79	227.54
951.09	227.56
951.39	227.58
951.69	227.60
951.98	227.59
952.28	227.61
952.58	227.59
952.87	227.59
953.17	227.60
953.47	227.64
953.76	227.62
954.06	227.58
954.36	227.57
954.66	227.58
954.95	227.60
955.25	227.64
955.55	227.66
955.84	227.68
956.14	227.67
956.44	227.72
956.73	227.74
957.03	227.77
957.32	227.78
957.62	227.78
957.92	227.79
958.21	227.79
958.51	227.88
958.81	227.93
959.10	227.98
959.40	228.01
959.69	228.05
959.99	228.06
960.29	228.09
960.58	228.09
960.88	228.14
961.17	228.15
961.47	228.14
961.76	228.15
962.06	228.14
962.36	228.13
962.65	228.11
962.95	228.08
963.24	228.08
963.54	228.06
963.83	228.08
964.13	228.10
964.42	228.11
964.72	228.03
965.01	228.01
965.31	227.98
965.60	227.93
965.90	227.98
966.19	227.99
966.49	227.99
966.78	227.99
967.08	227.97
967.37	227.94
967.67	227.94
967.96	227.93
968.26	227.91
968.55	227.94
968.85	227.92
969.14	227.96
969.43	227.94
969.73	227.93
970.02	227.91
970.32	227.86
970.61	227.81
970.91	227.77
971.20	227.72
971.49	227.68
971.79	227.70
972.08	227.59
972.38	227.60
972.67	227.57
972.96	227.54
973.26	227.50
973.55	227.47
973.85	227.45
974.14	227.43
974.43	227.43
974.73	227.39
975.02	227.39
975.31	227.34
975.61	227.30
975.90	227.29
976.19	227.26
976.49	227.28
976.78	227.28
977.07	227.30
977.37	227.30
977.66	227.34
977.95	227.30
978.24	227.28
978.54	227.27
978.83	227.25
979.12	227.26
979.42	227.27
979.71	227.30
980.00	227.29
980.29	227.31
980.59	227.30
980.88	227.31
981.17	227.31
981.46	227.33
981.76	227.37
982.05	227.40
982.34	227.42
982.63	227.41
982.93	227.42
983.22	227.43
983.51	227.43
983.80	227.43
984.09	227.48
984.39	227.52
984.68	227.53
984.97	227.55
985.26	227.53
985.55	227.53
985.85	227.52
986.14	227.54
986.43	227.55
986.72	227.56
987.01	227.55
987.30	227.54
987.59	227.55
987.89	227.57
988.18	227.56
988.47	227.58
988.76	227.61
989.05	227.61
989.34	227.61
989.63	227.66
989.92	227.66
990.22	227.65
990.51	227.64
990.80	227.63
991.09	227.66
991.38	227.68
991.67	227.68
991.96	227.69
992.25	227.70
992.54	227.67
992.83	227.69
993.12	227.73
993.41	227.79
993.70	227.83
993.99	227.79
994.28	227.81
994.58	227.81
994.87	227.81
995.16	227.84
995.45	227.84
995.74	227.82
996.03	227.86
996.32	227.87
996.61	227.90
996.90	227.93
997.19	227.95
997.48	227.98
997.77	228.01
998.06	227.97
998.34	227.96
998.63	227.95
998.92	227.93
999.21	227.95
999.50	227.91
999.79	227.87
1000.08	227.89
1000.37	227.88
1000.66	227.88
1000.95	227.89
1001.24	227.89
1001.53	227.88
1001.82	227.86
1002.11	227.82
1002.40	227.83
1002.68	227.83
1002.97	227.86
1003.26	227.80
1003.55	227.79
1003.84	227.77
1004.13	227.84
1004.42	227.82
1004.71	227.83
1004.99	227.82
1005.28	227.82
1005.57	227.83
1005.86	227.77
1006.15	227.76
1006.44	227.74
1006.72	227.72
1007.01	227.66
1007.30	227.61
1007.59	227.58
1007.88	227.58
1008.17	227.58
1008.45	227.55
1008.74	227.50
1009.03	227.46
1009.32	227.48
1009.60	227.44
1009.89	227.44
1010.18	227.39
1010.47	227.39
1010.76	227.38
1011.04	227.37
1011.33	227.36
1011.62	227.36
1011.91	227.39
1012.19	227.40
1012.48	227.37
1012.77	227.37
1013.05	227.43
1013.34	227.46
1013.63	227.47
1013.92	227.44
1014.20	227.44
1014.49	227.43
1014.78	227.45
1015.06	227.38
1015.35	227.38
1015.64	227.41
1015.92	227.39
1016.21	227.40
1016.50	227.40
1016.78	227.42
1017.07	227.46
1017.36	227.44
1017.64	227.40
1017.93	227.41
1018.22	227.40
1018.50	227.42
1018.79	227.44
1019.08	227.41
1019.36	227.40
1019.65	227.39
1019.93	227.43
1020.22	227.44
1020.51	227.51
1020.79	227.50
1021.08	227.28
1021.36	227.06
1021.65	227.61
1021.94	227.91
1022.22	227.14
1022.51	227.07
1022.79	228.00
1023.08	227.63
1023.36	228.78
1023.65	227.12
>>>>>End Processed Spectral Data<<<<<
