SpectraSuite Data File
++++++++++++++++++++++++++++++++++++
Date: Fri Feb 01 14:59:23 EST 2013
User: group
Dark Spectrum Present: No
Reference Spectrum Present: No
Number of Sampled Component Spectra: 1
Spectrometers: USB2E7196
Integration Time (usec): 35000 (USB2E7196)
Spectra Averaged: 100 (USB2E7196)
Boxcar Smoothing: 10 (USB2E7196)
Correct for Electrical Dark: No (USB2E7196)
Strobe/Lamp Enabled: No (USB2E7196)
Correct for Detector Non-linearity: No (USB2E7196)
Correct for Stray Light: No (USB2E7196)
Number of Pixels in Processed Spectrum: 2048
>>>>>Begin Processed Spectral Data<<<<<
339.09	0.00
339.48	214.16
339.86	216.61
340.24	217.43
340.63	219.09
341.01	222.56
341.39	221.87
341.78	223.31
342.16	224.50
342.54	225.16
342.93	213.41
343.31	224.20
343.69	224.81
344.07	225.27
344.46	225.74
344.84	226.16
345.22	226.39
345.60	226.67
345.99	226.86
346.37	227.00
346.75	227.08
347.13	227.15
347.52	227.18
347.90	227.26
348.28	227.32
348.66	227.36
349.05	227.35
349.43	227.43
349.81	227.46
350.19	227.48
350.57	227.56
350.96	227.68
351.34	227.77
351.72	227.86
352.10	227.96
352.48	228.03
352.87	228.07
353.25	228.14
353.63	228.20
354.01	228.26
354.39	228.36
354.77	228.48
355.15	228.58
355.54	228.65
355.92	228.68
356.30	228.75
356.68	228.89
357.06	228.99
357.44	229.04
357.82	229.10
358.20	229.19
358.58	229.23
358.97	229.28
359.35	229.33
359.73	229.40
360.11	229.46
360.49	229.52
360.87	229.56
361.25	229.61
361.63	229.69
362.01	229.75
362.39	229.75
362.77	229.76
363.15	229.77
363.53	229.82
363.91	229.82
364.29	229.83
364.67	229.75
365.05	229.73
365.43	229.77
365.81	229.79
366.19	229.82
366.57	229.86
366.95	229.82
367.33	229.77
367.71	229.73
368.09	229.71
368.47	229.68
368.85	229.64
369.23	229.64
369.61	229.54
369.99	229.55
370.37	229.53
370.75	229.53
371.13	229.46
371.51	229.39
371.89	229.34
372.27	229.27
372.65	229.20
373.03	229.16
373.41	229.06
373.78	228.97
374.16	228.84
374.54	228.75
374.92	228.69
375.30	228.64
375.68	228.52
376.06	228.45
376.44	228.35
376.82	228.29
377.19	228.18
377.57	228.12
377.95	228.00
378.33	227.88
378.71	227.73
379.09	227.67
379.47	227.59
379.84	227.52
380.22	227.44
380.60	227.37
380.98	227.25
381.36	227.17
381.73	227.07
382.11	227.02
382.49	226.93
382.87	226.81
383.25	226.74
383.62	226.84
384.00	226.73
384.38	226.65
384.76	226.59
385.13	226.55
385.51	226.48
385.89	226.40
386.27	226.36
386.64	226.36
387.02	226.31
387.40	226.27
387.78	226.21
388.15	226.20
388.53	226.16
388.91	226.15
389.29	226.15
389.66	226.14
390.04	226.10
390.42	226.12
390.79	226.13
391.17	226.11
391.55	225.98
391.92	226.00
392.30	226.07
392.68	226.07
393.05	226.09
393.43	226.13
393.81	226.15
394.18	226.17
394.56	226.20
394.94	226.23
395.31	226.28
395.69	226.36
396.06	226.39
396.44	226.43
396.82	226.49
397.19	226.60
397.57	226.69
397.95	226.79
398.32	226.82
398.70	226.91
399.07	227.02
399.45	227.09
399.82	227.15
400.20	227.22
400.58	227.34
400.95	227.41
401.33	227.52
401.70	227.72
402.08	227.83
402.45	227.95
402.83	228.14
403.20	228.26
403.58	228.42
403.95	228.58
404.33	228.75
404.71	228.88
405.08	229.07
405.46	229.20
405.83	229.40
406.21	229.55
406.58	229.75
406.96	229.94
407.33	230.16
407.70	230.39
408.08	230.66
408.45	230.87
408.83	231.12
409.20	231.37
409.58	231.51
409.95	231.79
410.33	232.04
410.70	232.27
411.08	232.54
411.45	232.86
411.82	233.15
412.20	233.48
412.57	233.93
412.95	234.22
413.32	234.60
413.69	234.97
414.07	235.42
414.44	235.86
414.82	236.29
415.19	236.84
415.56	237.39
415.94	237.89
416.31	238.51
416.68	239.11
417.06	239.76
417.43	240.50
417.81	241.26
418.18	242.05
418.55	242.88
418.93	243.75
419.30	244.62
419.67	245.55
420.04	246.50
420.42	247.50
420.79	248.68
421.16	249.82
421.54	250.99
421.91	252.23
422.28	253.50
422.66	254.85
423.03	256.11
423.40	257.46
423.77	258.91
424.15	260.34
424.52	261.84
424.89	263.45
425.26	264.97
425.64	266.43
426.01	268.02
426.38	269.67
426.75	271.34
427.13	273.05
427.50	274.82
427.87	276.68
428.24	278.53
428.61	280.24
428.99	282.21
429.36	284.35
429.73	286.39
430.10	288.38
430.47	290.42
430.85	292.58
431.22	294.78
431.59	297.17
431.96	299.40
432.33	301.86
432.70	304.22
433.08	307.05
433.45	309.69
433.82	312.30
434.19	315.23
434.56	318.07
434.93	320.75
435.30	323.43
435.68	326.36
436.05	329.16
436.42	332.00
436.79	334.50
437.16	337.19
437.53	340.02
437.90	342.90
438.27	345.68
438.64	348.50
439.01	351.13
439.38	353.36
439.75	355.53
440.13	358.08
440.50	360.42
440.87	362.27
441.24	364.21
441.61	366.41
441.98	367.88
442.35	369.71
442.72	371.56
443.09	373.38
443.46	374.36
443.83	374.98
444.20	375.47
444.57	376.36
444.94	376.66
445.31	377.02
445.68	377.38
446.05	377.46
446.42	377.10
446.79	376.72
447.16	376.30
447.53	376.02
447.90	374.89
448.27	373.75
448.64	372.18
449.01	371.06
449.37	369.04
449.74	367.15
450.11	364.86
450.48	362.38
450.85	359.82
451.22	357.72
451.59	355.69
451.96	353.72
452.33	351.09
452.70	348.74
453.07	345.89
453.43	342.98
453.80	340.22
454.17	337.52
454.54	334.97
454.91	332.22
455.28	329.53
455.65	326.99
456.02	324.54
456.38	322.35
456.75	319.69
457.12	317.44
457.49	315.18
457.86	313.05
458.23	311.18
458.59	309.15
458.96	306.98
459.33	305.10
459.70	303.24
460.07	301.72
460.43	299.97
460.80	298.37
461.17	296.91
461.54	295.39
461.91	293.96
462.27	292.45
462.64	291.20
463.01	289.79
463.38	288.48
463.74	287.09
464.11	285.92
464.48	284.84
464.85	283.69
465.21	282.80
465.58	281.83
465.95	280.70
466.32	279.77
466.68	278.88
467.05	277.99
467.42	277.08
467.78	276.11
468.15	275.22
468.52	274.49
468.88	273.59
469.25	272.78
469.62	272.14
469.98	271.43
470.35	270.73
470.72	270.13
471.08	269.45
471.45	268.89
471.82	268.33
472.18	267.71
472.55	267.24
472.92	266.72
473.28	266.23
473.65	265.77
474.02	265.30
474.38	264.89
474.75	264.53
475.11	264.20
475.48	263.93
475.85	263.67
476.21	263.45
476.58	263.30
476.94	263.17
477.31	262.99
477.67	262.88
478.04	262.79
478.41	262.71
478.77	262.76
479.14	262.71
479.50	262.72
479.87	262.79
480.23	262.91
480.60	262.99
480.96	263.04
481.33	263.25
481.69	263.48
482.06	263.69
482.42	263.93
482.79	264.20
483.15	264.54
483.52	264.93
483.88	265.29
484.25	265.63
484.61	266.05
484.98	266.51
485.34	267.06
485.71	267.64
486.07	268.23
486.44	268.82
486.80	269.53
487.17	270.27
487.53	271.12
487.90	271.98
488.26	272.91
488.62	273.95
488.99	274.92
489.35	275.95
489.72	277.10
490.08	278.31
490.44	279.55
490.81	280.87
491.17	282.20
491.54	283.72
491.90	285.29
492.26	286.93
492.63	288.67
492.99	290.44
493.36	292.32
493.72	294.38
494.08	296.50
494.45	298.73
494.81	301.08
495.17	303.47
495.54	306.01
495.90	308.70
496.26	311.52
496.63	314.48
496.99	317.58
497.35	320.82
497.72	324.16
498.08	327.66
498.44	331.27
498.80	335.16
499.17	339.12
499.53	343.24
499.89	347.52
500.26	351.96
500.62	356.58
500.98	361.56
501.34	366.61
501.71	371.89
502.07	377.26
502.43	382.85
502.79	388.66
503.16	394.70
503.52	400.88
503.88	407.24
504.24	413.84
504.60	420.67
504.97	427.73
505.33	435.01
505.69	442.59
506.05	450.36
506.41	458.23
506.78	466.37
507.14	474.85
507.50	483.61
507.86	492.60
508.22	501.79
508.59	511.00
508.95	520.51
509.31	530.26
509.67	540.36
510.03	550.58
510.39	561.11
510.75	571.91
511.12	582.84
511.48	594.12
511.84	605.59
512.20	617.10
512.56	629.07
512.92	641.27
513.28	653.64
513.64	666.06
514.00	678.75
514.37	691.60
514.73	704.61
515.09	717.62
515.45	730.95
515.81	744.51
516.17	758.44
516.53	772.57
516.89	786.76
517.25	800.95
517.61	815.41
517.97	829.84
518.33	844.34
518.69	859.24
519.05	874.28
519.41	889.41
519.77	905.02
520.13	920.45
520.49	935.79
520.85	951.33
521.21	967.19
521.57	983.50
521.93	999.40
522.29	1015.95
522.65	1032.30
523.01	1048.62
523.37	1064.72
523.73	1081.01
524.09	1097.23
524.45	1113.68
524.81	1130.37
525.17	1147.31
525.53	1164.27
525.89	1181.17
526.25	1198.00
526.61	1214.45
526.97	1231.43
527.33	1247.89
527.68	1264.60
528.04	1281.19
528.40	1297.85
528.76	1314.96
529.12	1331.60
529.48	1348.61
529.84	1364.58
530.20	1381.23
530.56	1398.30
530.91	1415.88
531.27	1432.67
531.63	1449.25
531.99	1465.86
532.35	1481.88
532.71	1497.85
533.07	1514.22
533.42	1530.21
533.78	1546.26
534.14	1562.67
534.50	1578.02
534.86	1594.08
535.21	1609.29
535.57	1625.44
535.93	1641.04
536.29	1655.91
536.65	1671.24
537.00	1686.17
537.36	1701.66
537.72	1716.37
538.08	1730.78
538.44	1744.76
538.79	1758.88
539.15	1772.71
539.51	1786.58
539.87	1801.02
540.22	1814.88
540.58	1828.86
540.94	1842.35
541.29	1855.49
541.65	1868.22
542.01	1881.50
542.37	1893.90
542.72	1906.43
543.08	1918.37
543.44	1930.80
543.79	1942.21
544.15	1953.19
544.51	1964.71
544.87	1975.70
545.22	1986.49
545.58	1996.88
545.94	2006.68
546.29	2016.48
546.65	2026.19
547.01	2035.41
547.36	2044.32
547.72	2052.67
548.07	2060.49
548.43	2068.62
548.79	2076.60
549.14	2084.05
549.50	2091.39
549.86	2099.07
550.21	2106.40
550.57	2113.34
550.92	2119.85
551.28	2126.88
551.64	2133.83
551.99	2140.34
552.35	2146.41
552.70	2152.53
553.06	2158.46
553.41	2164.61
553.77	2170.59
554.13	2176.73
554.48	2182.85
554.84	2188.14
555.19	2193.49
555.55	2198.55
555.90	2203.03
556.26	2207.82
556.61	2212.61
556.97	2216.74
557.32	2220.84
557.68	2224.98
558.03	2229.27
558.39	2232.93
558.74	2237.48
559.10	2241.36
559.45	2244.92
559.81	2249.26
560.16	2252.97
560.52	2256.06
560.87	2259.62
561.23	2262.25
561.58	2265.10
561.94	2267.50
562.29	2269.92
562.64	2272.52
563.00	2275.19
563.35	2278.54
563.71	2281.58
564.06	2284.67
564.42	2287.52
564.77	2289.90
565.12	2291.90
565.48	2293.75
565.83	2295.50
566.19	2296.44
566.54	2297.30
566.89	2298.24
567.25	2298.62
567.60	2299.88
567.96	2301.50
568.31	2302.08
568.66	2302.90
569.02	2303.27
569.37	2303.47
569.72	2304.13
570.08	2303.99
570.43	2303.70
570.78	2302.78
571.14	2301.14
571.49	2299.77
571.84	2299.27
572.20	2297.82
572.55	2296.78
572.90	2295.05
573.26	2293.50
573.61	2291.75
573.96	2289.74
574.31	2286.66
574.67	2283.42
575.02	2279.65
575.37	2276.17
575.72	2272.06
576.08	2268.68
576.43	2265.46
576.78	2261.77
577.13	2258.44
577.49	2255.48
577.84	2251.93
578.19	2248.23
578.54	2244.35
578.90	2239.97
579.25	2234.37
579.60	2229.44
579.95	2224.24
580.30	2219.11
580.66	2213.92
581.01	2209.04
581.36	2204.05
581.71	2199.76
582.06	2195.28
582.42	2190.66
582.77	2185.21
583.12	2180.63
583.47	2175.72
583.82	2170.49
584.17	2165.18
584.53	2159.53
584.88	2153.58
585.23	2147.57
585.58	2142.07
585.93	2136.68
586.28	2131.75
586.63	2126.49
586.98	2121.28
587.34	2116.60
587.69	2111.60
588.04	2106.27
588.39	2100.25
588.74	2093.62
589.09	2087.39
589.44	2080.55
589.79	2074.42
590.14	2068.64
590.49	2061.87
590.84	2055.36
591.19	2049.04
591.54	2042.31
591.89	2034.73
592.25	2027.93
592.60	2020.63
592.95	2012.89
593.30	2005.36
593.65	1997.56
594.00	1990.43
594.35	1983.15
594.70	1974.90
595.05	1967.51
595.40	1960.05
595.75	1952.59
596.10	1946.23
596.45	1939.34
596.80	1933.08
597.15	1926.37
597.50	1919.12
597.85	1912.70
598.19	1906.08
598.54	1898.98
598.89	1892.35
599.24	1886.36
599.59	1879.39
599.94	1873.25
600.29	1866.81
600.64	1860.16
600.99	1852.67
601.34	1845.70
601.69	1838.62
602.04	1831.65
602.39	1824.28
602.74	1817.43
603.08	1810.82
603.43	1803.96
603.78	1796.70
604.13	1789.34
604.48	1782.00
604.83	1775.21
605.18	1768.08
605.53	1759.99
605.87	1752.02
606.22	1744.75
606.57	1736.87
606.92	1729.80
607.27	1722.42
607.62	1715.47
607.96	1708.15
608.31	1701.53
608.66	1693.91
609.01	1686.27
609.36	1678.78
609.70	1670.78
610.05	1662.68
610.40	1654.84
610.75	1646.66
611.10	1638.98
611.44	1630.75
611.79	1622.77
612.14	1614.16
612.49	1605.19
612.83	1597.02
613.18	1588.87
613.53	1580.75
613.88	1572.26
614.22	1564.01
614.57	1555.58
614.92	1547.66
615.27	1540.15
615.61	1531.83
615.96	1523.88
616.31	1516.42
616.65	1509.05
617.00	1501.49
617.35	1493.82
617.70	1485.53
618.04	1477.03
618.39	1468.81
618.74	1461.21
619.08	1452.93
619.43	1445.36
619.78	1438.46
620.12	1431.20
620.47	1423.67
620.82	1415.60
621.16	1408.32
621.51	1400.73
621.85	1393.16
622.20	1384.66
622.55	1376.37
622.89	1368.59
623.24	1361.10
623.59	1353.76
623.93	1346.37
624.28	1339.22
624.62	1331.77
624.97	1324.54
625.32	1317.94
625.66	1310.99
626.01	1303.72
626.35	1296.47
626.70	1288.78
627.04	1281.03
627.39	1273.32
627.73	1266.06
628.08	1259.20
628.43	1251.91
628.77	1244.48
629.12	1236.91
629.46	1229.74
629.81	1222.49
630.15	1215.35
630.50	1207.89
630.84	1199.69
631.19	1191.76
631.53	1184.30
631.88	1176.81
632.22	1169.38
632.57	1162.14
632.91	1154.68
633.26	1147.39
633.60	1139.92
633.95	1132.92
634.29	1125.96
634.64	1119.38
634.98	1111.98
635.32	1104.95
635.67	1098.40
636.01	1091.86
636.36	1085.16
636.70	1078.87
637.05	1072.25
637.39	1065.88
637.73	1059.55
638.08	1053.79
638.42	1047.79
638.77	1041.40
639.11	1034.82
639.45	1028.45
639.80	1021.66
640.14	1015.27
640.49	1008.82
640.83	1002.64
641.17	996.38
641.52	990.15
641.86	983.72
642.20	978.03
642.55	971.67
642.89	965.21
643.23	958.66
643.58	952.83
643.92	946.52
644.26	940.38
644.61	934.32
644.95	928.27
645.29	921.70
645.64	915.01
645.98	908.69
646.32	902.97
646.66	896.92
647.01	891.22
647.35	885.46
647.69	879.56
648.04	874.03
648.38	868.28
648.72	862.23
649.06	856.12
649.41	850.16
649.75	844.21
650.09	838.29
650.43	832.53
650.78	826.41
651.12	820.47
651.46	814.80
651.80	809.04
652.14	803.63
652.49	798.25
652.83	793.07
653.17	787.30
653.51	781.50
653.85	776.13
654.20	770.50
654.54	764.57
654.88	758.96
655.22	753.07
655.56	747.43
655.90	742.04
656.25	736.82
656.59	731.55
656.93	726.46
657.27	721.33
657.61	715.92
657.95	710.93
658.29	705.88
658.64	700.71
658.98	695.54
659.32	690.14
659.66	684.96
660.00	679.66
660.34	674.85
660.68	670.01
661.02	665.02
661.36	660.36
661.70	655.90
662.05	651.53
662.39	647.29
662.73	642.90
663.07	638.49
663.41	634.10
663.75	629.58
664.09	625.09
664.43	620.74
664.77	616.67
665.11	612.34
665.45	608.29
665.79	604.21
666.13	600.06
666.47	596.01
666.81	591.85
667.15	587.81
667.49	583.93
667.83	580.20
668.17	576.37
668.51	572.32
668.85	568.36
669.19	564.57
669.53	560.72
669.87	556.89
670.21	553.29
670.55	549.72
670.89	546.37
671.23	542.97
671.57	539.48
671.91	535.96
672.25	532.60
672.58	529.10
672.92	525.76
673.26	522.61
673.60	519.51
673.94	516.45
674.28	513.62
674.62	510.72
674.96	507.66
675.30	504.71
675.64	501.82
675.97	499.08
676.31	496.25
676.65	493.36
676.99	490.69
677.33	487.82
677.67	484.94
678.01	481.93
678.34	478.91
678.68	476.05
679.02	473.25
679.36	470.48
679.70	467.78
680.04	465.04
680.37	462.18
680.71	459.40
681.05	456.80
681.39	454.05
681.73	451.43
682.06	448.90
682.40	446.35
682.74	443.87
683.08	441.32
683.42	438.68
683.75	436.18
684.09	433.57
684.43	431.11
684.77	428.66
685.10	426.35
685.44	424.10
685.78	421.85
686.12	419.64
686.45	417.39
686.79	415.09
687.13	412.87
687.46	410.75
687.80	408.61
688.14	406.43
688.48	404.42
688.81	402.14
689.15	400.02
689.49	397.88
689.82	395.77
690.16	393.70
690.50	391.78
690.83	389.82
691.17	387.83
691.51	385.93
691.84	384.13
692.18	382.15
692.52	380.16
692.85	378.23
693.19	376.32
693.52	374.51
693.86	372.70
694.20	370.92
694.53	369.13
694.87	367.32
695.21	365.57
695.54	363.76
695.88	362.09
696.21	360.36
696.55	358.76
696.88	357.14
697.22	355.54
697.56	353.93
697.89	352.33
698.23	350.77
698.56	349.17
698.90	347.58
699.23	345.95
699.57	344.45
699.90	342.94
700.24	341.43
700.58	339.91
700.91	338.48
701.25	337.09
701.58	335.71
701.92	334.32
702.25	332.97
702.59	331.53
702.92	330.19
703.26	328.89
703.59	327.61
703.93	326.41
704.26	325.13
704.60	323.82
704.93	322.55
705.26	321.34
705.60	320.23
705.93	319.13
706.27	318.11
706.60	317.04
706.94	315.96
707.27	314.85
707.61	313.80
707.94	312.79
708.27	311.65
708.61	310.60
708.94	309.63
709.28	308.61
709.61	307.74
709.94	306.80
710.28	305.80
710.61	304.78
710.95	303.71
711.28	302.83
711.61	301.91
711.95	301.04
712.28	300.10
712.61	299.09
712.95	298.15
713.28	297.31
713.61	296.46
713.95	295.60
714.28	294.77
714.61	293.87
714.95	293.00
715.28	292.16
715.61	291.34
715.95	290.48
716.28	289.63
716.61	288.78
716.95	288.00
717.28	287.23
717.61	286.50
717.94	285.76
718.28	284.95
718.61	284.24
718.94	283.53
719.27	282.89
719.61	282.26
719.94	281.56
720.27	280.84
720.60	280.13
720.94	279.53
721.27	278.91
721.60	278.35
721.93	277.77
722.27	277.26
722.60	276.67
722.93	276.10
723.26	275.58
723.59	275.03
723.93	274.47
724.26	273.90
724.59	273.32
724.92	272.82
725.25	272.30
725.59	271.76
725.92	271.24
726.25	270.69
726.58	270.15
726.91	269.64
727.24	269.14
727.57	268.69
727.91	268.14
728.24	267.68
728.57	267.19
728.90	266.70
729.23	266.17
729.56	265.70
729.89	265.23
730.22	264.72
730.55	264.26
730.89	263.78
731.22	263.36
731.55	262.91
731.88	262.49
732.21	262.05
732.54	261.59
732.87	261.19
733.20	260.83
733.53	260.47
733.86	260.16
734.19	259.74
734.52	259.34
734.85	259.02
735.18	258.64
735.51	258.31
735.84	257.95
736.17	257.63
736.50	257.29
736.83	257.06
737.16	256.74
737.49	256.42
737.82	256.10
738.15	255.77
738.48	255.48
738.81	255.15
739.14	254.84
739.47	254.56
739.80	254.24
740.13	253.95
740.46	253.64
740.79	253.30
741.12	253.05
741.45	252.72
741.78	252.37
742.11	252.08
742.44	251.76
742.77	251.49
743.10	251.18
743.43	250.85
743.75	250.49
744.08	250.37
744.41	250.12
744.74	249.85
745.07	249.59
745.40	249.37
745.73	249.14
746.06	248.91
746.39	248.67
746.71	248.42
747.04	248.12
747.37	247.86
747.70	247.64
748.03	247.40
748.36	247.21
748.68	247.00
749.01	246.78
749.34	246.56
749.67	246.33
750.00	246.12
750.33	245.99
750.65	245.83
750.98	245.44
751.31	245.20
751.64	245.01
751.97	244.88
752.29	244.65
752.62	244.42
752.95	244.18
753.28	243.96
753.60	243.76
753.93	243.62
754.26	243.40
754.59	243.16
754.91	242.96
755.24	242.78
755.57	242.59
755.90	242.37
756.22	242.16
756.55	241.98
756.88	241.80
757.20	241.53
757.53	241.26
757.86	241.08
758.19	240.92
758.51	240.74
758.84	240.48
759.17	240.30
759.49	240.11
759.82	240.01
760.15	239.87
760.47	239.71
760.80	239.51
761.13	239.36
761.45	239.17
761.78	239.02
762.11	238.84
762.43	238.70
762.76	238.57
763.08	238.46
763.41	238.28
763.74	238.14
764.06	237.99
764.39	237.87
764.71	237.76
765.04	237.63
765.37	237.46
765.69	237.32
766.02	237.18
766.34	237.05
766.67	236.86
767.00	236.76
767.32	236.66
767.65	236.61
767.97	236.52
768.30	236.41
768.62	236.28
768.95	236.16
769.27	236.05
769.60	235.94
769.92	235.78
770.25	235.66
770.57	235.51
770.90	235.43
771.22	235.31
771.55	235.19
771.87	235.08
772.20	234.99
772.52	234.98
772.85	235.02
773.17	234.92
773.50	234.84
773.82	234.71
774.15	234.58
774.47	234.41
774.80	234.30
775.12	234.24
775.45	234.15
775.77	234.09
776.09	233.99
776.42	233.91
776.74	233.90
777.07	233.82
777.39	233.78
777.72	233.72
778.04	233.66
778.36	233.59
778.69	233.54
779.01	233.50
779.33	233.38
779.66	233.21
779.98	233.15
780.31	233.10
780.63	233.06
780.95	233.03
781.28	233.00
781.60	232.92
781.92	232.88
782.25	232.83
782.57	232.79
782.89	232.74
783.22	232.67
783.54	232.58
783.86	232.55
784.19	232.49
784.51	232.44
784.83	232.41
785.16	232.36
785.48	232.30
785.80	232.25
786.12	232.21
786.45	232.17
786.77	232.15
787.09	232.09
787.42	232.05
787.74	232.03
788.06	232.00
788.38	232.00
788.71	231.98
789.03	231.96
789.35	231.94
789.67	231.89
789.99	231.90
790.32	231.85
790.64	231.81
790.96	231.89
791.28	231.85
791.61	231.79
791.93	231.76
792.25	231.74
792.57	231.78
792.89	231.71
793.21	231.68
793.54	231.62
793.86	231.62
794.18	231.58
794.50	231.51
794.82	231.47
795.14	231.44
795.47	231.42
795.79	231.40
796.11	231.33
796.43	231.31
796.75	231.28
797.07	231.28
797.39	231.26
797.71	231.14
798.04	231.09
798.36	231.08
798.68	231.05
799.00	231.00
799.32	230.92
799.64	230.89
799.96	230.87
800.28	230.85
800.60	230.79
800.92	230.74
801.24	230.69
801.56	230.66
801.89	230.59
802.21	230.54
802.53	230.43
802.85	230.43
803.17	230.42
803.49	230.36
803.81	230.30
804.13	230.27
804.45	230.22
804.77	230.20
805.09	230.18
805.41	230.14
805.73	230.11
806.05	230.06
806.37	230.03
806.69	229.97
807.01	229.91
807.33	229.89
807.65	229.83
807.97	229.85
808.28	229.80
808.60	229.76
808.92	229.70
809.24	229.77
809.56	229.72
809.88	229.65
810.20	229.61
810.52	229.58
810.84	229.53
811.16	229.46
811.48	229.43
811.80	229.39
812.12	229.37
812.43	229.34
812.75	229.29
813.07	229.24
813.39	229.20
813.71	229.16
814.03	229.12
814.35	229.10
814.67	229.06
814.98	229.03
815.30	229.03
815.62	228.98
815.94	228.88
816.26	228.86
816.58	228.82
816.89	228.81
817.21	228.77
817.53	228.76
817.85	228.77
818.17	228.75
818.48	228.72
818.80	228.68
819.12	228.64
819.44	228.63
819.76	228.64
820.07	228.66
820.39	228.66
820.71	228.65
821.03	228.66
821.34	228.61
821.66	228.62
821.98	228.63
822.30	228.61
822.61	228.69
822.93	228.64
823.25	228.65
823.57	228.64
823.88	228.66
824.20	228.66
824.52	228.67
824.83	228.64
825.15	228.61
825.47	228.61
825.79	228.59
826.10	228.60
826.42	228.57
826.74	228.55
827.05	228.54
827.37	228.52
827.69	228.53
828.00	228.52
828.32	228.53
828.64	228.51
828.95	228.60
829.27	228.53
829.58	228.50
829.90	228.50
830.22	228.50
830.53	228.49
830.85	228.46
831.17	228.43
831.48	228.45
831.80	228.47
832.11	228.44
832.43	228.47
832.75	228.45
833.06	228.51
833.38	228.49
833.69	228.50
834.01	228.53
834.32	228.48
834.64	228.47
834.96	228.47
835.27	228.43
835.59	228.37
835.90	228.34
836.22	228.37
836.53	228.35
836.85	228.32
837.16	228.41
837.48	228.40
837.79	228.40
838.11	228.39
838.42	228.40
838.74	228.44
839.05	228.41
839.37	228.40
839.68	228.32
840.00	228.28
840.31	228.26
840.63	228.23
840.94	228.23
841.26	228.23
841.57	228.18
841.88	228.18
842.20	228.13
842.51	228.13
842.83	228.10
843.14	228.18
843.46	228.17
843.77	228.07
844.08	228.09
844.40	228.06
844.71	228.00
845.03	227.96
845.34	227.89
845.65	227.87
845.97	227.88
846.28	227.85
846.60	227.89
846.91	227.88
847.22	227.86
847.54	227.88
847.85	227.84
848.16	227.85
848.48	227.81
848.79	227.85
849.10	227.84
849.42	227.85
849.73	227.75
850.04	227.71
850.36	227.68
850.67	227.64
850.98	227.64
851.30	227.73
851.61	227.71
851.92	227.71
852.23	227.73
852.55	227.73
852.86	227.74
853.17	227.72
853.49	227.72
853.80	227.75
854.11	227.74
854.42	227.78
854.74	227.71
855.05	227.74
855.36	227.70
855.67	227.73
855.99	227.75
856.30	227.85
856.61	227.87
856.92	227.86
857.23	227.88
857.55	227.86
857.86	227.81
858.17	227.83
858.48	227.82
858.79	227.83
859.11	227.82
859.42	227.81
859.73	227.80
860.04	227.83
860.35	227.77
860.66	227.76
860.98	227.76
861.29	227.79
861.60	227.78
861.91	227.76
862.22	227.72
862.53	227.67
862.84	227.55
863.16	227.56
863.47	227.57
863.78	227.59
864.09	227.60
864.40	227.60
864.71	227.65
865.02	227.68
865.33	227.64
865.64	227.63
865.95	227.62
866.27	227.70
866.58	227.69
866.89	227.72
867.20	227.72
867.51	227.68
867.82	227.71
868.13	227.76
868.44	227.77
868.75	227.83
869.06	227.84
869.37	227.84
869.68	227.84
869.99	227.83
870.30	227.81
870.61	227.85
870.92	227.83
871.23	227.76
871.54	227.82
871.85	227.85
872.16	227.87
872.47	227.90
872.78	227.84
873.09	227.85
873.40	227.83
873.71	227.82
874.02	227.80
874.33	227.79
874.64	227.76
874.95	227.80
875.26	227.77
875.56	227.78
875.87	227.79
876.18	227.78
876.49	227.91
876.80	227.91
877.11	227.88
877.42	227.89
877.73	227.88
878.04	227.86
878.35	227.85
878.66	227.82
878.96	227.79
879.27	227.78
879.58	227.74
879.89	227.73
880.20	227.77
880.51	227.79
880.82	227.79
881.12	227.79
881.43	227.74
881.74	227.72
882.05	227.69
882.36	227.72
882.67	227.72
882.97	227.59
883.28	227.58
883.59	227.57
883.90	227.55
884.21	227.59
884.51	227.54
884.82	227.52
885.13	227.51
885.44	227.53
885.74	227.53
886.05	227.55
886.36	227.56
886.67	227.51
886.98	227.55
887.28	227.53
887.59	227.52
887.90	227.51
888.20	227.49
888.51	227.54
888.82	227.49
889.13	227.50
889.43	227.57
889.74	227.56
890.05	227.55
890.35	227.55
890.66	227.51
890.97	227.48
891.28	227.45
891.58	227.46
891.89	227.44
892.20	227.40
892.50	227.36
892.81	227.33
893.12	227.33
893.42	227.26
893.73	227.25
894.04	227.28
894.34	227.28
894.65	227.29
894.95	227.25
895.26	227.24
895.57	227.27
895.87	227.19
896.18	227.18
896.48	227.17
896.79	227.16
897.10	227.15
897.40	227.18
897.71	227.21
898.01	227.20
898.32	227.21
898.63	227.21
898.93	227.25
899.24	227.28
899.54	227.26
899.85	227.29
900.15	227.30
900.46	227.29
900.76	227.32
901.07	227.34
901.38	227.37
901.68	227.39
901.99	227.37
902.29	227.38
902.60	227.38
902.90	227.40
903.21	227.41
903.51	227.44
903.82	227.43
904.12	227.43
904.43	227.45
904.73	227.46
905.03	227.50
905.34	227.60
905.64	227.61
905.95	227.63
906.25	227.62
906.56	227.62
906.86	227.64
907.17	227.65
907.47	227.64
907.77	227.63
908.08	227.62
908.38	227.63
908.69	227.66
908.99	227.68
909.30	227.69
909.60	227.69
909.90	227.71
910.21	227.73
910.51	227.71
910.81	227.73
911.12	227.77
911.42	227.76
911.73	227.65
912.03	227.62
912.33	227.62
912.64	227.65
912.94	227.63
913.24	227.59
913.55	227.58
913.85	227.59
914.15	227.59
914.46	227.62
914.76	227.58
915.06	227.56
915.37	227.54
915.67	227.52
915.97	227.52
916.27	227.47
916.58	227.45
916.88	227.48
917.18	227.42
917.49	227.44
917.79	227.41
918.09	227.43
918.39	227.45
918.70	227.44
919.00	227.43
919.30	227.48
919.60	227.48
919.91	227.46
920.21	227.47
920.51	227.42
920.81	227.41
921.12	227.41
921.42	227.40
921.72	227.40
922.02	227.43
922.32	227.42
922.63	227.46
922.93	227.51
923.23	227.49
923.53	227.54
923.83	227.47
924.13	227.48
924.44	227.43
924.74	227.46
925.04	227.47
925.34	227.44
925.64	227.39
925.94	227.42
926.24	227.45
926.55	227.39
926.85	227.43
927.15	227.43
927.45	227.41
927.75	227.40
928.05	227.40
928.35	227.38
928.65	227.40
928.95	227.37
929.26	227.33
929.56	227.30
929.86	227.31
930.16	227.30
930.46	227.31
930.76	227.33
931.06	227.30
931.36	227.30
931.66	227.28
931.96	227.30
932.26	227.30
932.56	227.28
932.86	227.30
933.16	227.29
933.46	227.27
933.76	227.30
934.06	227.34
934.36	227.37
934.66	227.36
934.96	227.38
935.26	227.42
935.56	227.44
935.86	227.46
936.16	227.45
936.46	227.46
936.76	227.46
937.06	227.44
937.36	227.45
937.66	227.44
937.96	227.47
938.26	227.46
938.56	227.46
938.86	227.46
939.16	227.51
939.46	227.51
939.76	227.50
940.06	227.49
940.35	227.41
940.65	227.37
940.95	227.38
941.25	227.37
941.55	227.32
941.85	227.31
942.15	227.33
942.45	227.33
942.75	227.29
943.04	227.31
943.34	227.35
943.64	227.35
943.94	227.36
944.24	227.37
944.54	227.37
944.84	227.38
945.13	227.35
945.43	227.31
945.73	227.32
946.03	227.34
946.33	227.33
946.62	227.36
946.92	227.38
947.22	227.38
947.52	227.35
947.82	227.38
948.11	227.37
948.41	227.34
948.71	227.32
949.01	227.35
949.31	227.34
949.60	227.34
949.90	227.34
950.20	227.34
950.50	227.34
950.79	227.33
951.09	227.31
951.39	227.29
951.69	227.31
951.98	227.34
952.28	227.33
952.58	227.33
952.87	227.34
953.17	227.33
953.47	227.31
953.76	227.32
954.06	227.31
954.36	227.31
954.66	227.29
954.95	227.30
955.25	227.29
955.55	227.29
955.84	227.26
956.14	227.26
956.44	227.27
956.73	227.22
957.03	227.21
957.32	227.23
957.62	227.22
957.92	227.24
958.21	227.20
958.51	227.32
958.81	227.36
959.10	227.36
959.40	227.40
959.69	227.41
959.99	227.41
960.29	227.41
960.58	227.39
960.88	227.44
961.17	227.44
961.47	227.46
961.76	227.45
962.06	227.48
962.36	227.44
962.65	227.43
962.95	227.47
963.24	227.46
963.54	227.45
963.83	227.49
964.13	227.48
964.42	227.44
964.72	227.36
965.01	227.32
965.31	227.32
965.60	227.27
965.90	227.34
966.19	227.32
966.49	227.32
966.78	227.33
967.08	227.31
967.37	227.35
967.67	227.36
967.96	227.38
968.26	227.36
968.55	227.40
968.85	227.36
969.14	227.36
969.43	227.36
969.73	227.34
970.02	227.34
970.32	227.32
970.61	227.31
970.91	227.24
971.20	227.25
971.49	227.23
971.79	227.29
972.08	227.22
972.38	227.24
972.67	227.27
972.96	227.30
973.26	227.29
973.55	227.29
973.85	227.26
974.14	227.26
974.43	227.26
974.73	227.23
975.02	227.26
975.31	227.27
975.61	227.33
975.90	227.33
976.19	227.34
976.49	227.35
976.78	227.39
977.07	227.43
977.37	227.46
977.66	227.47
977.95	227.43
978.24	227.44
978.54	227.48
978.83	227.47
979.12	227.46
979.42	227.46
979.71	227.44
980.00	227.48
980.29	227.47
980.59	227.48
980.88	227.53
981.17	227.55
981.46	227.55
981.76	227.51
982.05	227.54
982.34	227.51
982.63	227.53
982.93	227.51
983.22	227.50
983.51	227.50
983.80	227.51
984.09	227.54
984.39	227.54
984.68	227.51
984.97	227.49
985.26	227.49
985.55	227.50
985.85	227.46
986.14	227.45
986.43	227.46
986.72	227.46
987.01	227.41
987.30	227.40
987.59	227.39
987.89	227.40
988.18	227.37
988.47	227.37
988.76	227.36
989.05	227.33
989.34	227.33
989.63	227.38
989.92	227.36
990.22	227.33
990.51	227.31
990.80	227.31
991.09	227.32
991.38	227.32
991.67	227.31
991.96	227.33
992.25	227.32
992.54	227.32
992.83	227.32
993.12	227.33
993.41	227.33
993.70	227.34
993.99	227.31
994.28	227.32
994.58	227.32
994.87	227.28
995.16	227.28
995.45	227.26
995.74	227.17
996.03	227.19
996.32	227.21
996.61	227.21
996.90	227.17
997.19	227.18
997.48	227.18
997.77	227.12
998.06	227.13
998.34	227.10
998.63	227.10
998.92	227.08
999.21	227.08
999.50	227.08
999.79	227.04
1000.08	227.07
1000.37	227.06
1000.66	227.06
1000.95	227.07
1001.24	227.08
1001.53	227.11
1001.82	227.08
1002.11	227.02
1002.40	227.02
1002.68	227.07
1002.97	227.15
1003.26	227.10
1003.55	227.06
1003.84	227.10
1004.13	227.12
1004.42	227.13
1004.71	227.12
1004.99	227.12
1005.28	227.14
1005.57	227.10
1005.86	227.11
1006.15	227.08
1006.44	227.11
1006.72	227.11
1007.01	227.15
1007.30	227.15
1007.59	227.14
1007.88	227.18
1008.17	227.24
1008.45	227.24
1008.74	227.17
1009.03	227.14
1009.32	227.14
1009.60	227.15
1009.89	227.13
1010.18	227.10
1010.47	227.09
1010.76	227.08
1011.04	227.06
1011.33	227.05
1011.62	227.07
1011.91	227.07
1012.19	227.08
1012.48	227.07
1012.77	227.09
1013.05	227.11
1013.34	227.11
1013.63	227.11
1013.92	227.12
1014.20	227.10
1014.49	227.12
1014.78	227.15
1015.06	227.10
1015.35	227.12
1015.64	227.16
1015.92	227.17
1016.21	227.18
1016.50	227.21
1016.78	227.23
1017.07	227.27
1017.36	227.21
1017.64	227.23
1017.93	227.24
1018.22	227.26
1018.50	227.23
1018.79	227.20
1019.08	227.13
1019.36	227.15
1019.65	227.14
1019.93	227.17
1020.22	227.18
1020.51	227.18
1020.79	227.18
1021.08	227.28
1021.36	226.70
1021.65	227.04
1021.94	226.62
1022.22	227.13
1022.51	227.11
1022.79	228.03
1023.08	227.10
1023.36	227.94
1023.65	227.10
>>>>>End Processed Spectral Data<<<<<
