SpectraSuite Data File
++++++++++++++++++++++++++++++++++++
Date: Tue Jan 29 16:36:23 EST 2013
User: group
Dark Spectrum Present: No
Reference Spectrum Present: No
Number of Sampled Component Spectra: 1
Spectrometers: USB2E7196
Integration Time (usec): 65000 (USB2E7196)
Spectra Averaged: 100 (USB2E7196)
Boxcar Smoothing: 10 (USB2E7196)
Correct for Electrical Dark: No (USB2E7196)
Strobe/Lamp Enabled: No (USB2E7196)
Correct for Detector Non-linearity: No (USB2E7196)
Correct for Stray Light: No (USB2E7196)
Number of Pixels in Processed Spectrum: 2048
>>>>>Begin Processed Spectral Data<<<<<
339.09	0.00
339.48	201.81
339.86	203.53
340.24	205.08
340.63	206.89
341.01	210.46
341.39	208.62
341.78	210.39
342.16	212.03
342.54	212.19
342.93	201.11
343.31	211.26
343.69	211.81
344.07	212.25
344.46	212.66
344.84	213.02
345.22	213.19
345.60	213.45
345.99	213.61
346.37	213.71
346.75	213.80
347.13	213.86
347.52	213.95
347.90	214.07
348.28	214.07
348.66	214.18
349.05	214.16
349.43	214.20
349.81	214.30
350.19	214.35
350.57	214.39
350.96	214.51
351.34	214.59
351.72	214.67
352.10	214.78
352.48	214.86
352.87	214.92
353.25	214.98
353.63	215.04
354.01	215.11
354.39	215.21
354.77	215.28
355.15	215.39
355.54	215.44
355.92	215.43
356.30	215.50
356.68	215.69
357.06	215.76
357.44	215.80
357.82	215.82
358.20	215.90
358.58	215.95
358.97	215.99
359.35	216.08
359.73	216.21
360.11	216.27
360.49	216.34
360.87	216.40
361.25	216.51
361.63	216.64
362.01	216.71
362.39	216.71
362.77	216.79
363.15	216.81
363.53	216.81
363.91	216.86
364.29	216.87
364.67	216.70
365.05	216.70
365.43	216.75
365.81	216.81
366.19	216.92
366.57	217.02
366.95	217.03
367.33	217.00
367.71	216.98
368.09	217.03
368.47	217.04
368.85	217.02
369.23	217.02
369.61	216.93
369.99	217.00
370.37	217.03
370.75	217.10
371.13	217.04
371.51	217.03
371.89	217.04
372.27	217.05
372.65	217.03
373.03	217.05
373.41	216.98
373.78	216.94
374.16	216.80
374.54	216.67
374.92	216.64
375.30	216.65
375.68	216.58
376.06	216.54
376.44	216.51
376.82	216.49
377.19	216.43
377.57	216.38
377.95	216.27
378.33	216.18
378.71	216.01
379.09	216.05
379.47	216.02
379.84	215.93
380.22	215.87
380.60	215.81
380.98	215.76
381.36	215.74
381.73	215.65
382.11	215.67
382.49	215.68
382.87	215.60
383.25	215.56
383.62	215.75
384.00	215.68
384.38	215.60
384.76	215.59
385.13	215.63
385.51	215.61
385.89	215.54
386.27	215.54
386.64	215.56
387.02	215.48
387.40	215.46
387.78	215.46
388.15	215.44
388.53	215.41
388.91	215.38
389.29	215.34
389.66	215.39
390.04	215.34
390.42	215.32
390.79	215.31
391.17	215.25
391.55	215.02
391.92	214.97
392.30	214.99
392.68	214.92
393.05	214.86
393.43	214.82
393.81	214.86
394.18	214.87
394.56	214.84
394.94	214.89
395.31	214.88
395.69	214.96
396.06	215.01
396.44	215.07
396.82	215.06
397.19	215.20
397.57	215.18
397.95	215.26
398.32	215.25
398.70	215.31
399.07	215.44
399.45	215.44
399.82	215.51
400.20	215.54
400.58	215.63
400.95	215.65
401.33	215.81
401.70	216.01
402.08	216.10
402.45	216.19
402.83	216.29
403.20	216.42
403.58	216.50
403.95	216.67
404.33	216.81
404.71	216.96
405.08	217.24
405.46	217.41
405.83	217.61
406.21	217.80
406.58	218.08
406.96	218.29
407.33	218.56
407.70	218.87
408.08	219.36
408.45	219.70
408.83	220.08
409.20	220.39
409.58	220.66
409.95	221.12
410.33	221.62
410.70	222.07
411.08	222.63
411.45	223.22
411.82	223.78
412.20	224.45
412.57	225.28
412.95	225.84
413.32	226.70
413.69	227.50
414.07	228.41
414.44	229.35
414.82	230.35
415.19	231.58
415.56	232.79
415.94	233.97
416.31	235.41
416.68	236.83
417.06	238.43
417.43	240.02
417.81	241.74
418.18	243.56
418.55	245.48
418.93	247.51
419.30	249.58
419.67	251.81
420.04	254.11
420.42	256.48
420.79	259.30
421.16	262.08
421.54	264.95
421.91	267.92
422.28	271.04
422.66	274.35
423.03	277.59
423.40	280.95
423.77	284.54
424.15	288.18
424.52	292.01
424.89	296.22
425.26	300.29
425.64	304.17
426.01	308.43
426.38	312.93
426.75	317.47
427.13	322.22
427.50	327.23
427.87	332.43
428.24	337.65
428.61	342.66
428.99	348.17
429.36	354.22
429.73	360.17
430.10	366.07
430.47	372.12
430.85	378.45
431.22	385.17
431.59	392.30
431.96	399.15
432.33	406.68
432.70	413.93
433.08	422.46
433.45	430.53
433.82	438.56
434.19	447.52
434.56	456.29
434.93	464.63
435.30	472.89
435.68	482.05
436.05	491.10
436.42	499.97
436.79	508.15
437.16	516.94
437.53	526.20
437.90	535.31
438.27	544.33
438.64	553.60
439.01	562.19
439.38	569.83
439.75	577.19
440.13	585.61
440.50	593.67
440.87	600.14
441.24	606.79
441.61	614.18
441.98	619.51
442.35	625.83
442.72	632.25
443.09	638.33
443.46	642.14
443.83	644.62
444.20	646.87
444.57	650.05
444.94	651.53
445.31	653.04
445.68	654.54
446.05	655.15
446.42	654.30
446.79	653.33
447.16	652.23
447.53	651.44
447.90	648.16
448.27	644.78
448.64	640.08
449.01	636.75
449.37	630.84
449.74	625.17
450.11	618.19
450.48	610.71
450.85	603.25
451.22	596.76
451.59	590.61
451.96	584.77
452.33	576.87
452.70	569.78
453.07	561.28
453.43	552.57
453.80	544.36
454.17	536.40
454.54	528.81
454.91	520.61
455.28	512.60
455.65	505.17
456.02	497.70
456.38	491.39
456.75	483.53
457.12	476.90
457.49	470.37
457.86	464.21
458.23	458.86
458.59	452.86
458.96	446.79
459.33	441.42
459.70	436.01
460.07	431.71
460.43	426.77
460.80	422.12
461.17	418.12
461.54	413.79
461.91	409.73
462.27	405.60
462.64	402.11
463.01	398.28
463.38	394.53
463.74	390.76
464.11	387.48
464.48	384.66
464.85	381.57
465.21	379.15
465.58	376.48
465.95	373.25
466.32	370.66
466.68	368.02
467.05	365.47
467.42	362.93
467.78	360.24
468.15	357.72
468.52	355.86
468.88	353.36
469.25	351.18
469.62	349.46
469.98	347.50
470.35	345.69
470.72	344.00
471.08	342.19
471.45	340.72
471.82	339.14
472.18	337.46
472.55	336.25
472.92	334.85
473.28	333.65
473.65	332.58
474.02	331.49
474.38	330.64
474.75	329.90
475.11	329.08
475.48	328.51
475.85	328.02
476.21	327.47
476.58	327.14
476.94	326.85
477.31	326.47
477.67	326.21
478.04	326.06
478.41	326.03
478.77	326.17
479.14	326.08
479.50	326.25
479.87	326.53
480.23	326.83
480.60	327.02
480.96	327.31
481.33	327.87
481.69	328.41
482.06	328.94
482.42	329.41
482.79	330.00
483.15	330.77
483.52	331.70
483.88	332.62
484.25	333.56
484.61	334.60
484.98	335.66
485.34	336.98
485.71	338.35
486.07	339.81
486.44	341.18
486.80	342.82
487.17	344.50
487.53	346.34
487.90	348.24
488.26	350.31
488.62	352.45
488.99	354.53
489.35	356.73
489.72	359.13
490.08	361.71
490.44	364.25
490.81	366.99
491.17	369.69
491.54	372.66
491.90	375.68
492.26	378.93
492.63	382.35
492.99	385.81
493.36	389.52
493.72	393.34
494.08	397.35
494.45	401.59
494.81	405.95
495.17	410.43
495.54	415.14
495.90	420.01
496.26	424.98
496.63	430.17
496.99	435.57
497.35	441.11
497.72	446.88
498.08	452.81
498.44	458.85
498.80	465.33
499.17	471.88
499.53	478.65
499.89	485.53
500.26	492.55
500.62	499.71
500.98	507.20
501.34	514.74
501.71	522.54
502.07	530.38
502.43	538.40
502.79	546.59
503.16	554.95
503.52	563.52
503.88	572.20
504.24	581.15
504.60	590.27
504.97	599.56
505.33	608.83
505.69	618.71
506.05	628.70
506.41	638.55
506.78	648.61
507.14	658.87
507.50	669.39
507.86	680.08
508.22	690.82
508.59	701.51
508.95	712.60
509.31	723.93
509.67	735.46
510.03	746.90
510.39	758.66
510.75	770.57
511.12	782.57
511.48	794.81
511.84	807.13
512.20	819.51
512.56	832.21
512.92	845.06
513.28	857.80
513.64	870.59
514.00	883.54
514.37	896.56
514.73	909.75
515.09	922.78
515.45	935.79
515.81	948.89
516.17	962.36
516.53	975.67
516.89	988.78
517.25	1001.96
517.61	1015.60
517.97	1029.15
518.33	1042.35
518.69	1056.04
519.05	1069.78
519.41	1083.56
519.77	1097.48
520.13	1110.85
520.49	1124.19
520.85	1137.79
521.21	1151.29
521.57	1164.97
521.93	1178.24
522.29	1192.09
522.65	1205.90
523.01	1219.60
523.37	1232.95
523.73	1246.28
524.09	1259.69
524.45	1273.31
524.81	1286.99
525.17	1300.48
525.53	1313.78
525.89	1327.32
526.25	1340.52
526.61	1353.57
526.97	1366.74
527.33	1379.91
527.68	1393.47
528.04	1406.96
528.40	1420.01
528.76	1433.46
529.12	1446.49
529.48	1459.82
529.84	1472.17
530.20	1484.97
530.56	1497.74
530.91	1511.16
531.27	1524.19
531.63	1536.92
531.99	1549.86
532.35	1562.10
532.71	1574.58
533.07	1587.60
533.42	1599.91
533.78	1611.99
534.14	1624.15
534.50	1635.53
534.86	1647.20
535.21	1658.23
535.57	1669.96
535.93	1681.36
536.29	1692.59
536.65	1704.20
537.00	1715.35
537.36	1726.91
537.72	1738.09
538.08	1749.63
538.44	1760.63
538.79	1771.83
539.15	1782.90
539.51	1793.60
539.87	1805.10
540.22	1816.08
540.58	1827.05
540.94	1838.05
541.29	1848.62
541.65	1858.54
542.01	1869.10
542.37	1879.23
542.72	1889.38
543.08	1899.10
543.44	1909.73
543.79	1919.07
544.15	1928.70
544.51	1938.72
544.87	1948.62
545.22	1957.87
545.58	1966.77
545.94	1975.78
546.29	1984.31
546.65	1992.56
547.01	2001.06
547.36	2008.75
547.72	2016.55
548.07	2024.10
548.43	2031.96
548.79	2039.95
549.14	2048.16
549.50	2056.71
549.86	2064.69
550.21	2072.35
550.57	2080.23
550.92	2087.18
551.28	2094.76
551.64	2102.00
551.99	2109.51
552.35	2116.87
552.70	2123.72
553.06	2130.45
553.41	2136.73
553.77	2143.32
554.13	2149.88
554.48	2156.87
554.84	2164.09
555.19	2170.71
555.55	2177.27
555.90	2183.61
556.26	2190.36
556.61	2196.38
556.97	2201.15
557.32	2206.99
557.68	2213.46
558.03	2219.32
558.39	2224.62
558.74	2230.55
559.10	2236.17
559.45	2241.76
559.81	2247.28
560.16	2252.92
560.52	2258.86
560.87	2265.38
561.23	2271.26
561.58	2277.98
561.94	2283.08
562.29	2287.80
562.64	2293.82
563.00	2299.50
563.35	2304.97
563.71	2310.75
564.06	2316.51
564.42	2322.60
564.77	2327.60
565.12	2332.84
565.48	2337.88
565.83	2343.50
566.19	2348.89
566.54	2354.20
566.89	2358.89
567.25	2363.34
567.60	2369.08
567.96	2374.16
568.31	2378.70
568.66	2383.01
569.02	2386.85
569.37	2390.73
569.72	2395.04
570.08	2398.48
570.43	2401.72
570.78	2404.89
571.14	2407.27
571.49	2410.38
571.84	2413.75
572.20	2416.66
572.55	2419.56
572.90	2421.81
573.26	2424.43
573.61	2426.88
573.96	2428.98
574.31	2430.84
574.67	2432.89
575.02	2433.64
575.37	2434.98
575.72	2435.63
576.08	2437.11
576.43	2437.25
576.78	2437.51
577.13	2439.10
577.49	2440.21
577.84	2440.91
578.19	2442.12
578.54	2442.68
578.90	2443.35
579.25	2443.18
579.60	2443.00
579.95	2442.00
580.30	2442.04
580.66	2441.23
581.01	2439.60
581.36	2437.15
581.71	2435.75
582.06	2434.31
582.42	2433.31
582.77	2430.96
583.12	2429.17
583.47	2427.71
583.82	2427.07
584.17	2425.95
584.53	2423.61
584.88	2421.43
585.23	2419.65
585.58	2417.25
585.93	2415.18
586.28	2412.62
586.63	2410.26
586.98	2408.08
587.34	2406.17
587.69	2403.67
588.04	2401.51
588.39	2400.00
588.74	2397.45
589.09	2394.52
589.44	2391.35
589.79	2388.60
590.14	2386.56
590.49	2383.68
590.84	2379.72
591.19	2376.43
591.54	2373.01
591.89	2369.00
592.25	2365.70
592.60	2361.23
592.95	2356.98
593.30	2352.69
593.65	2348.29
594.00	2343.65
594.35	2340.55
594.70	2335.89
595.05	2331.15
595.40	2325.63
595.75	2319.77
596.10	2316.07
596.45	2311.19
596.80	2306.37
597.15	2301.26
597.50	2295.37
597.85	2290.38
598.19	2284.99
598.54	2279.16
598.89	2273.86
599.24	2269.17
599.59	2262.93
599.94	2257.13
600.29	2251.07
600.64	2245.09
600.99	2238.21
601.34	2232.79
601.69	2225.83
602.04	2219.23
602.39	2212.62
602.74	2206.54
603.08	2200.96
603.43	2194.35
603.78	2187.59
604.13	2180.49
604.48	2173.19
604.83	2166.93
605.18	2160.61
605.53	2153.71
605.87	2146.57
606.22	2139.71
606.57	2131.75
606.92	2123.65
607.27	2116.67
607.62	2110.05
607.96	2103.03
608.31	2096.72
608.66	2088.81
609.01	2081.06
609.36	2074.04
609.70	2066.24
610.05	2058.38
610.40	2049.89
610.75	2041.36
611.10	2033.49
611.44	2024.70
611.79	2015.91
612.14	2005.95
612.49	1995.24
612.83	1985.81
613.18	1976.52
613.53	1967.10
613.88	1957.53
614.22	1949.03
614.57	1939.08
614.92	1928.45
615.27	1918.15
615.61	1907.94
615.96	1898.29
616.31	1888.62
616.65	1879.05
617.00	1869.20
617.35	1859.51
617.70	1849.83
618.04	1840.04
618.39	1829.95
618.74	1820.23
619.08	1810.56
619.43	1801.82
619.78	1793.62
620.12	1785.04
620.47	1775.53
620.82	1765.16
621.16	1755.35
621.51	1745.38
621.85	1735.61
622.20	1725.30
622.55	1714.76
622.89	1704.83
623.24	1695.02
623.59	1685.21
623.93	1675.22
624.28	1665.49
624.62	1655.46
624.97	1645.18
625.32	1635.31
625.66	1626.38
626.01	1617.72
626.35	1608.28
626.70	1598.10
627.04	1587.98
627.39	1577.95
627.73	1568.65
628.08	1559.78
628.43	1550.13
628.77	1540.86
629.12	1531.94
629.46	1524.16
629.81	1515.87
630.15	1506.44
630.50	1496.67
630.84	1486.20
631.19	1476.18
631.53	1466.92
631.88	1456.72
632.22	1446.70
632.57	1437.27
632.91	1427.17
633.26	1417.14
633.60	1407.69
633.95	1398.50
634.29	1389.05
634.64	1379.64
634.98	1369.58
635.32	1360.21
635.67	1351.77
636.01	1342.53
636.36	1332.68
636.70	1323.09
637.05	1313.64
637.39	1304.61
637.73	1296.01
638.08	1288.44
638.42	1280.35
638.77	1271.56
639.11	1263.28
639.45	1255.48
639.80	1247.00
640.14	1238.21
640.49	1229.41
640.83	1220.52
641.17	1212.38
641.52	1204.24
641.86	1195.68
642.20	1187.82
642.55	1179.27
642.89	1170.40
643.23	1161.65
643.58	1153.58
643.92	1144.49
644.26	1135.85
644.61	1127.38
644.95	1118.50
645.29	1109.20
645.64	1099.94
645.98	1091.43
646.32	1083.53
646.66	1075.00
647.01	1066.65
647.35	1058.52
647.69	1050.20
648.04	1041.87
648.38	1032.98
648.72	1024.16
649.06	1015.64
649.41	1007.46
649.75	999.47
650.09	991.52
650.43	983.52
650.78	975.20
651.12	967.47
651.46	960.00
651.80	952.80
652.14	945.49
652.49	938.00
652.83	930.70
653.17	922.93
653.51	915.21
653.85	907.98
654.20	900.67
654.54	893.18
654.88	885.97
655.22	878.76
655.56	871.70
655.90	864.86
656.25	858.05
656.59	851.07
656.93	843.98
657.27	836.76
657.61	829.75
657.95	823.61
658.29	817.63
658.64	811.46
658.98	804.88
659.32	798.25
659.66	791.87
660.00	785.45
660.34	779.31
660.68	773.23
661.02	766.85
661.36	760.80
661.70	754.91
662.05	749.18
662.39	743.67
662.73	738.28
663.07	732.91
663.41	727.31
663.75	721.63
664.09	716.02
664.43	710.67
664.77	705.30
665.11	699.56
665.45	693.55
665.79	687.68
666.13	682.01
666.47	676.55
666.81	671.03
667.15	665.56
667.49	660.37
667.83	655.04
668.17	649.74
668.51	644.68
668.85	639.74
669.19	634.76
669.53	629.67
669.87	624.48
670.21	619.63
670.55	614.92
670.89	610.41
671.23	605.98
671.57	601.52
671.91	597.25
672.25	592.96
672.58	588.83
672.92	584.80
673.26	580.77
673.60	576.87
673.94	573.11
674.28	569.54
674.62	565.75
674.96	561.97
675.30	558.43
675.64	554.67
675.97	551.03
676.31	547.41
676.65	543.77
676.99	540.25
677.33	536.34
677.67	532.71
678.01	528.86
678.34	525.17
678.68	521.60
679.02	517.92
679.36	514.21
679.70	510.59
680.04	506.96
680.37	503.53
680.71	500.14
681.05	496.89
681.39	493.51
681.73	490.29
682.06	487.21
682.40	484.05
682.74	480.89
683.08	477.64
683.42	474.38
683.75	471.36
684.09	468.32
684.43	465.53
684.77	462.51
685.10	459.58
685.44	456.70
685.78	453.74
686.12	450.92
686.45	448.17
686.79	445.41
687.13	442.81
687.46	440.16
687.80	437.41
688.14	434.54
688.48	431.90
688.81	429.19
689.15	426.59
689.49	423.92
689.82	421.27
690.16	418.63
690.50	416.17
690.83	413.67
691.17	411.10
691.51	408.56
691.84	406.33
692.18	404.08
692.52	401.82
692.85	399.63
693.19	397.47
693.52	395.24
693.86	393.10
694.20	390.86
694.53	388.68
694.87	386.47
695.21	384.34
695.54	382.15
695.88	380.01
696.21	377.71
696.55	375.56
696.88	373.50
697.22	371.48
697.56	369.54
697.89	367.58
698.23	365.79
698.56	364.04
698.90	362.21
699.23	360.26
699.57	358.35
699.90	356.45
700.24	354.59
700.58	352.84
700.91	351.08
701.25	349.52
701.58	347.84
701.92	346.21
702.25	344.49
702.59	342.87
702.92	341.29
703.26	339.74
703.59	338.26
703.93	337.02
704.26	335.62
704.60	334.09
704.93	332.63
705.26	331.12
705.60	329.56
705.93	327.98
706.27	326.62
706.60	325.32
706.94	324.08
707.27	322.69
707.61	321.29
707.94	319.92
708.27	318.35
708.61	316.90
708.94	315.53
709.28	314.27
709.61	313.00
709.94	311.79
710.28	310.55
710.61	309.33
710.95	307.85
711.28	306.74
711.61	305.52
711.95	304.33
712.28	303.09
712.61	301.89
712.95	300.83
713.28	299.78
713.61	298.59
713.95	297.38
714.28	296.37
714.61	295.33
714.95	294.27
715.28	293.26
715.61	292.24
715.95	291.25
716.28	290.27
716.61	289.28
716.95	288.24
717.28	287.32
717.61	286.35
717.94	285.44
718.28	284.37
718.61	283.49
718.94	282.54
719.27	281.66
719.61	280.83
719.94	279.95
720.27	278.98
720.60	278.11
720.94	277.33
721.27	276.55
721.60	275.86
721.93	275.11
722.27	274.46
722.60	273.79
722.93	273.10
723.26	272.48
723.59	271.79
723.93	271.16
724.26	270.51
724.59	269.85
724.92	269.25
725.25	268.70
725.59	268.11
725.92	267.59
726.25	267.05
726.58	266.46
726.91	265.85
727.24	265.28
727.57	264.71
727.91	264.07
728.24	263.52
728.57	262.89
728.90	262.38
729.23	261.75
729.56	261.28
729.89	260.71
730.22	260.07
730.55	259.51
730.89	258.95
731.22	258.43
731.55	257.91
731.88	257.36
732.21	256.79
732.54	256.25
732.87	255.74
733.20	255.23
733.53	254.76
733.86	254.34
734.19	253.85
734.52	253.49
734.85	253.20
735.18	252.67
735.51	252.29
735.84	251.80
736.17	251.40
736.50	250.87
736.83	250.71
737.16	250.32
737.49	249.95
737.82	249.51
738.15	249.12
738.48	248.72
738.81	248.36
739.14	247.97
739.47	247.57
739.80	247.17
740.13	246.84
740.46	246.43
740.79	246.01
741.12	245.66
741.45	245.24
741.78	244.80
742.11	244.57
742.44	244.18
742.77	243.93
743.10	243.55
743.43	243.24
743.75	242.64
744.08	242.59
744.41	242.20
744.74	241.86
745.07	241.47
745.40	241.16
745.73	240.88
746.06	240.55
746.39	240.27
746.71	239.89
747.04	239.54
747.37	239.20
747.70	238.94
748.03	238.60
748.36	238.33
748.68	237.98
749.01	237.60
749.34	237.30
749.67	237.00
750.00	236.74
750.33	236.59
750.65	236.34
750.98	235.79
751.31	235.57
751.64	235.33
751.97	235.23
752.29	234.98
752.62	234.65
752.95	234.40
753.28	234.08
753.60	233.85
753.93	233.66
754.26	233.46
754.59	233.18
754.91	232.93
755.24	232.65
755.57	232.44
755.90	232.20
756.22	231.97
756.55	231.71
756.88	231.46
757.20	231.09
757.53	230.82
757.86	230.63
758.19	230.42
758.51	230.19
758.84	229.85
759.17	229.59
759.49	229.42
759.82	229.28
760.15	229.15
760.47	228.96
760.80	228.67
761.13	228.48
761.45	228.24
761.78	228.07
762.11	227.91
762.43	227.73
762.76	227.55
763.08	227.38
763.41	227.23
763.74	227.06
764.06	226.90
764.39	226.77
764.71	226.59
765.04	226.43
765.37	226.29
765.69	226.19
766.02	226.07
766.34	225.87
766.67	225.70
767.00	225.59
767.32	225.57
767.65	225.61
767.97	225.45
768.30	225.39
768.62	225.26
768.95	225.11
769.27	224.97
769.60	224.90
769.92	224.74
770.25	224.59
770.57	224.43
770.90	224.31
771.22	224.13
771.55	224.03
771.87	223.89
772.20	223.78
772.52	223.78
772.85	223.96
773.17	223.87
773.50	223.74
773.82	223.62
774.15	223.42
774.47	223.16
774.80	223.09
775.12	222.95
775.45	222.86
775.77	222.79
776.09	222.75
776.42	222.64
776.74	222.63
777.07	222.51
777.39	222.47
777.72	222.39
778.04	222.38
778.36	222.27
778.69	222.21
779.01	222.11
779.33	221.86
779.66	221.51
779.98	221.39
780.31	221.34
780.63	221.34
780.95	221.30
781.28	221.28
781.60	221.14
781.92	221.09
782.25	221.03
782.57	220.94
782.89	220.82
783.22	220.76
783.54	220.63
783.86	220.60
784.19	220.49
784.51	220.52
784.83	220.40
785.16	220.36
785.48	220.30
785.80	220.26
786.12	220.24
786.45	220.18
786.77	220.16
787.09	220.09
787.42	219.96
787.74	219.91
788.06	219.80
788.38	219.76
788.71	219.69
789.03	219.61
789.35	219.58
789.67	219.54
789.99	219.49
790.32	219.42
790.64	219.39
790.96	219.51
791.28	219.35
791.61	219.30
791.93	219.26
792.25	219.20
792.57	219.31
792.89	219.21
793.21	219.18
793.54	219.10
793.86	218.99
794.18	218.94
794.50	218.82
794.82	218.78
795.14	218.77
795.47	218.79
795.79	218.76
796.11	218.69
796.43	218.61
796.75	218.54
797.07	218.49
797.39	218.40
797.71	218.22
798.04	218.20
798.36	218.18
798.68	218.12
799.00	218.10
799.32	217.92
799.64	217.95
799.96	217.89
800.28	217.88
800.60	217.89
800.92	217.85
801.24	217.81
801.56	217.76
801.89	217.69
802.21	217.63
802.53	217.55
802.85	217.55
803.17	217.63
803.49	217.60
803.81	217.55
804.13	217.51
804.45	217.46
804.77	217.44
805.09	217.40
805.41	217.35
805.73	217.29
806.05	217.24
806.37	217.16
806.69	217.11
807.01	217.11
807.33	217.09
807.65	217.00
807.97	217.09
808.28	217.07
808.60	217.07
808.92	217.00
809.24	217.10
809.56	217.04
809.88	216.90
810.20	216.88
810.52	216.91
810.84	216.87
811.16	216.83
811.48	216.74
811.80	216.80
812.12	216.77
812.43	216.76
812.75	216.75
813.07	216.74
813.39	216.74
813.71	216.67
814.03	216.62
814.35	216.64
814.67	216.49
814.98	216.47
815.30	216.41
815.62	216.38
815.94	216.25
816.26	216.23
816.58	216.19
816.89	216.18
817.21	216.13
817.53	216.13
817.85	216.10
818.17	216.12
818.48	216.04
818.80	216.10
819.12	216.09
819.44	216.04
819.76	216.00
820.07	215.97
820.39	215.97
820.71	215.98
821.03	215.96
821.34	215.99
821.66	215.99
821.98	216.00
822.30	215.99
822.61	216.10
822.93	216.05
823.25	216.05
823.57	216.03
823.88	216.05
824.20	216.04
824.52	216.08
824.83	216.05
825.15	215.99
825.47	215.94
825.79	215.90
826.10	215.86
826.42	215.83
826.74	215.86
827.05	215.82
827.37	215.77
827.69	215.75
828.00	215.72
828.32	215.71
828.64	215.69
828.95	215.80
829.27	215.72
829.58	215.74
829.90	215.76
830.22	215.75
830.53	215.68
830.85	215.65
831.17	215.59
831.48	215.61
831.80	215.61
832.11	215.59
832.43	215.55
832.75	215.57
833.06	215.69
833.38	215.61
833.69	215.60
834.01	215.65
834.32	215.64
834.64	215.62
834.96	215.62
835.27	215.61
835.59	215.49
835.90	215.41
836.22	215.41
836.53	215.33
836.85	215.31
837.16	215.51
837.48	215.54
837.79	215.57
838.11	215.55
838.42	215.55
838.74	215.58
839.05	215.58
839.37	215.54
839.68	215.39
840.00	215.38
840.31	215.39
840.63	215.35
840.94	215.33
841.26	215.28
841.57	215.25
841.88	215.26
842.20	215.22
842.51	215.22
842.83	215.21
843.14	215.42
843.46	215.42
843.77	215.29
844.08	215.23
844.40	215.18
844.71	215.18
845.03	215.13
845.34	215.10
845.65	215.07
845.97	215.08
846.28	215.11
846.60	215.10
846.91	215.07
847.22	215.04
847.54	215.09
847.85	215.13
848.16	215.12
848.48	215.12
848.79	215.19
849.10	215.21
849.42	215.21
849.73	215.02
850.04	214.99
850.36	214.94
850.67	214.97
850.98	215.01
851.30	214.98
851.61	214.98
851.92	214.93
852.23	215.02
852.55	215.02
852.86	215.01
853.17	215.05
853.49	215.08
853.80	215.14
854.11	215.15
854.42	215.15
854.74	215.10
855.05	215.04
855.36	214.94
855.67	214.96
855.99	214.94
856.30	215.16
856.61	215.16
856.92	215.15
857.23	215.15
857.55	215.10
857.86	215.05
858.17	215.10
858.48	215.08
858.79	215.03
859.11	215.05
859.42	215.02
859.73	214.97
860.04	214.95
860.35	214.88
860.66	214.81
860.98	214.79
861.29	214.83
861.60	214.86
861.91	214.89
862.22	214.84
862.53	214.78
862.84	214.56
863.16	214.60
863.47	214.57
863.78	214.54
864.09	214.56
864.40	214.61
864.71	214.59
865.02	214.62
865.33	214.62
865.64	214.59
865.95	214.58
866.27	214.73
866.58	214.70
866.89	214.72
867.20	214.71
867.51	214.67
867.82	214.66
868.13	214.71
868.44	214.69
868.75	214.75
869.06	214.78
869.37	214.82
869.68	214.75
869.99	214.81
870.30	214.81
870.61	214.83
870.92	214.82
871.23	214.80
871.54	214.83
871.85	214.86
872.16	214.86
872.47	214.86
872.78	214.72
873.09	214.79
873.40	214.76
873.71	214.81
874.02	214.82
874.33	214.80
874.64	214.73
874.95	214.78
875.26	214.71
875.56	214.71
875.87	214.68
876.18	214.69
876.49	214.86
876.80	214.86
877.11	214.81
877.42	214.80
877.73	214.82
878.04	214.78
878.35	214.77
878.66	214.81
878.96	214.80
879.27	214.80
879.58	214.75
879.89	214.76
880.20	214.80
880.51	214.82
880.82	214.81
881.12	214.80
881.43	214.71
881.74	214.68
882.05	214.66
882.36	214.67
882.67	214.68
882.97	214.49
883.28	214.47
883.59	214.48
883.90	214.51
884.21	214.53
884.51	214.55
884.82	214.50
885.13	214.49
885.44	214.47
885.74	214.50
886.05	214.48
886.36	214.48
886.67	214.35
886.98	214.44
887.28	214.51
887.59	214.52
887.90	214.56
888.20	214.57
888.51	214.61
888.82	214.57
889.13	214.59
889.43	214.74
889.74	214.73
890.05	214.69
890.35	214.64
890.66	214.57
890.97	214.51
891.28	214.54
891.58	214.53
891.89	214.52
892.20	214.45
892.50	214.42
892.81	214.39
893.12	214.45
893.42	214.34
893.73	214.31
894.04	214.34
894.34	214.34
894.65	214.31
894.95	214.26
895.26	214.29
895.57	214.39
895.87	214.20
896.18	214.22
896.48	214.24
896.79	214.28
897.10	214.31
897.40	214.33
897.71	214.29
898.01	214.23
898.32	214.27
898.63	214.27
898.93	214.29
899.24	214.32
899.54	214.30
899.85	214.27
900.15	214.30
900.46	214.29
900.76	214.31
901.07	214.30
901.38	214.31
901.68	214.31
901.99	214.18
902.29	214.20
902.60	214.17
902.90	214.16
903.21	214.11
903.51	214.10
903.82	214.14
904.12	214.17
904.43	214.23
904.73	214.24
905.03	214.27
905.34	214.47
905.64	214.45
905.95	214.43
906.25	214.42
906.56	214.38
906.86	214.35
907.17	214.34
907.47	214.34
907.77	214.34
908.08	214.31
908.38	214.33
908.69	214.32
908.99	214.38
909.30	214.38
909.60	214.40
909.90	214.40
910.21	214.33
910.51	214.31
910.81	214.31
911.12	214.29
911.42	214.28
911.73	214.04
912.03	214.07
912.33	214.13
912.64	214.12
912.94	214.10
913.24	214.06
913.55	214.03
913.85	214.05
914.15	214.07
914.46	214.11
914.76	214.07
915.06	214.06
915.37	214.00
915.67	213.99
915.97	213.99
916.27	213.96
916.58	213.97
916.88	213.98
917.18	213.95
917.49	214.10
917.79	214.14
918.09	214.18
918.39	214.24
918.70	214.24
919.00	214.26
919.30	214.34
919.60	214.35
919.91	214.35
920.21	214.37
920.51	214.34
920.81	214.31
921.12	214.36
921.42	214.35
921.72	214.40
922.02	214.41
922.32	214.45
922.63	214.45
922.93	214.55
923.23	214.52
923.53	214.51
923.83	214.35
924.13	214.35
924.44	214.37
924.74	214.38
925.04	214.40
925.34	214.39
925.64	214.30
925.94	214.29
926.24	214.40
926.55	214.34
926.85	214.36
927.15	214.37
927.45	214.39
927.75	214.41
928.05	214.41
928.35	214.41
928.65	214.42
928.95	214.45
929.26	214.41
929.56	214.46
929.86	214.48
930.16	214.49
930.46	214.48
930.76	214.50
931.06	214.40
931.36	214.36
931.66	214.40
931.96	214.45
932.26	214.48
932.56	214.39
932.86	214.44
933.16	214.45
933.46	214.40
933.76	214.35
934.06	214.37
934.36	214.44
934.66	214.42
934.96	214.39
935.26	214.39
935.56	214.42
935.86	214.38
936.16	214.35
936.46	214.34
936.76	214.29
937.06	214.23
937.36	214.26
937.66	214.27
937.96	214.29
938.26	214.22
938.56	214.21
938.86	214.25
939.16	214.32
939.46	214.35
939.76	214.36
940.06	214.37
940.35	214.34
940.65	214.23
940.95	214.24
941.25	214.18
941.55	214.16
941.85	214.12
942.15	214.15
942.45	214.23
942.75	214.21
943.04	214.24
943.34	214.30
943.64	214.28
943.94	214.24
944.24	214.20
944.54	214.21
944.84	214.20
945.13	214.14
945.43	214.09
945.73	214.07
946.03	214.06
946.33	214.04
946.62	214.00
946.92	214.02
947.22	214.03
947.52	214.07
947.82	214.08
948.11	214.09
948.41	214.05
948.71	213.97
949.01	214.01
949.31	213.99
949.60	213.97
949.90	214.01
950.20	214.01
950.50	214.03
950.79	214.04
951.09	214.06
951.39	214.06
951.69	214.01
951.98	214.04
952.28	214.06
952.58	214.06
952.87	214.07
953.17	214.05
953.47	214.03
953.76	214.06
954.06	214.03
954.36	213.99
954.66	213.99
954.95	214.06
955.25	214.07
955.55	214.09
955.84	214.04
956.14	214.03
956.44	214.07
956.73	214.02
957.03	214.02
957.32	214.02
957.62	214.05
957.92	214.11
958.21	214.08
958.51	214.29
958.81	214.29
959.10	214.30
959.40	214.39
959.69	214.40
959.99	214.41
960.29	214.39
960.58	214.36
960.88	214.44
961.17	214.42
961.47	214.42
961.76	214.40
962.06	214.41
962.36	214.38
962.65	214.37
962.95	214.40
963.24	214.40
963.54	214.40
963.83	214.40
964.13	214.36
964.42	214.30
964.72	214.16
965.01	214.21
965.31	214.24
965.60	214.18
965.90	214.30
966.19	214.23
966.49	214.26
966.78	214.26
967.08	214.22
967.37	214.20
967.67	214.14
967.96	214.18
968.26	214.21
968.55	214.25
968.85	214.23
969.14	214.22
969.43	214.21
969.73	214.16
970.02	214.14
970.32	214.13
970.61	214.12
970.91	214.06
971.20	214.02
971.49	213.98
971.79	213.99
972.08	213.85
972.38	213.85
972.67	213.84
972.96	213.87
973.26	213.84
973.55	213.92
973.85	213.95
974.14	213.93
974.43	213.92
974.73	213.88
975.02	213.84
975.31	213.81
975.61	213.81
975.90	213.84
976.19	213.84
976.49	213.83
976.78	213.90
977.07	213.90
977.37	213.88
977.66	213.89
977.95	213.85
978.24	213.88
978.54	213.97
978.83	213.96
979.12	213.95
979.42	213.96
979.71	213.91
980.00	213.93
980.29	213.93
980.59	213.92
980.88	213.97
981.17	213.99
981.46	214.00
981.76	213.96
982.05	214.01
982.34	214.01
982.63	214.02
982.93	213.97
983.22	213.99
983.51	214.01
983.80	214.05
984.09	214.09
984.39	214.06
984.68	214.00
984.97	214.02
985.26	214.01
985.55	214.02
985.85	213.96
986.14	213.98
986.43	214.01
986.72	213.99
987.01	213.92
987.30	213.93
987.59	213.95
987.89	214.00
988.18	213.95
988.47	213.96
988.76	213.95
989.05	213.96
989.34	213.91
989.63	213.96
989.92	213.90
990.22	213.86
990.51	213.84
990.80	213.80
991.09	213.80
991.38	213.81
991.67	213.78
991.96	213.80
992.25	213.78
992.54	213.70
992.83	213.72
993.12	213.72
993.41	213.75
993.70	213.82
993.99	213.84
994.28	213.85
994.58	213.87
994.87	213.85
995.16	213.83
995.45	213.83
995.74	213.76
996.03	213.80
996.32	213.84
996.61	213.90
996.90	213.92
997.19	213.90
997.48	213.91
997.77	213.89
998.06	213.88
998.34	213.85
998.63	213.90
998.92	213.89
999.21	213.91
999.50	213.88
999.79	213.83
1000.08	213.81
1000.37	213.80
1000.66	213.78
1000.95	213.85
1001.24	213.89
1001.53	213.93
1001.82	213.93
1002.11	213.89
1002.40	213.94
1002.68	213.98
1002.97	214.13
1003.26	214.15
1003.55	214.15
1003.84	214.21
1004.13	214.29
1004.42	214.33
1004.71	214.33
1004.99	214.30
1005.28	214.38
1005.57	214.37
1005.86	214.32
1006.15	214.31
1006.44	214.28
1006.72	214.28
1007.01	214.22
1007.30	214.21
1007.59	214.18
1007.88	214.18
1008.17	214.22
1008.45	214.14
1008.74	214.06
1009.03	213.96
1009.32	213.97
1009.60	213.94
1009.89	213.91
1010.18	213.78
1010.47	213.74
1010.76	213.73
1011.04	213.75
1011.33	213.73
1011.62	213.77
1011.91	213.82
1012.19	213.84
1012.48	213.87
1012.77	213.86
1013.05	213.98
1013.34	214.00
1013.63	214.01
1013.92	214.00
1014.20	213.99
1014.49	213.97
1014.78	213.98
1015.06	213.89
1015.35	213.85
1015.64	213.90
1015.92	213.93
1016.21	213.95
1016.50	213.95
1016.78	213.96
1017.07	214.01
1017.36	213.97
1017.64	213.93
1017.93	213.93
1018.22	213.91
1018.50	213.89
1018.79	213.89
1019.08	213.77
1019.36	213.78
1019.65	213.74
1019.93	213.83
1020.22	213.85
1020.51	213.94
1020.79	213.91
1021.08	213.73
1021.36	213.47
1021.65	213.71
1021.94	213.42
1022.22	214.31
1022.51	213.35
1022.79	215.40
1023.08	214.32
1023.36	215.28
1023.65	212.84
>>>>>End Processed Spectral Data<<<<<
