SpectraSuite Data File
++++++++++++++++++++++++++++++++++++
Date: Tue Jan 29 16:10:03 EST 2013
User: group
Dark Spectrum Present: No
Reference Spectrum Present: No
Number of Sampled Component Spectra: 1
Spectrometers: USB2E7196
Integration Time (usec): 65000 (USB2E7196)
Spectra Averaged: 100 (USB2E7196)
Boxcar Smoothing: 10 (USB2E7196)
Correct for Electrical Dark: No (USB2E7196)
Strobe/Lamp Enabled: No (USB2E7196)
Correct for Detector Non-linearity: No (USB2E7196)
Correct for Stray Light: No (USB2E7196)
Number of Pixels in Processed Spectrum: 2048
>>>>>Begin Processed Spectral Data<<<<<
339.09	0.00
339.48	202.49
339.86	204.32
340.24	205.49
340.63	206.88
341.01	211.67
341.39	209.71
341.78	211.35
342.16	212.39
342.54	213.01
342.93	201.75
343.31	211.94
343.69	212.50
344.07	212.92
344.46	213.34
344.84	213.71
345.22	213.86
345.60	214.11
345.99	214.30
346.37	214.42
346.75	214.50
347.13	214.56
347.52	214.64
347.90	214.77
348.28	214.80
348.66	214.92
349.05	214.87
349.43	214.93
349.81	215.00
350.19	215.04
350.57	215.12
350.96	215.21
351.34	215.32
351.72	215.38
352.10	215.49
352.48	215.56
352.87	215.59
353.25	215.65
353.63	215.72
354.01	215.78
354.39	215.87
354.77	215.98
355.15	216.13
355.54	216.16
355.92	216.16
356.30	216.24
356.68	216.39
357.06	216.50
357.44	216.56
357.82	216.64
358.20	216.74
358.58	216.82
358.97	216.89
359.35	216.98
359.73	217.12
360.11	217.18
360.49	217.25
360.87	217.33
361.25	217.39
361.63	217.51
362.01	217.55
362.39	217.61
362.77	217.65
363.15	217.66
363.53	217.71
363.91	217.74
364.29	217.78
364.67	217.62
365.05	217.63
365.43	217.65
365.81	217.66
366.19	217.74
366.57	217.80
366.95	217.80
367.33	217.74
367.71	217.73
368.09	217.78
368.47	217.79
368.85	217.79
369.23	217.85
369.61	217.78
369.99	217.86
370.37	217.83
370.75	217.91
371.13	217.86
371.51	217.87
371.89	217.87
372.27	217.90
372.65	217.92
373.03	217.93
373.41	217.94
373.78	217.89
374.16	217.78
374.54	217.68
374.92	217.63
375.30	217.63
375.68	217.57
376.06	217.55
376.44	217.49
376.82	217.47
377.19	217.38
377.57	217.30
377.95	217.16
378.33	217.13
378.71	216.96
379.09	216.93
379.47	216.88
379.84	216.82
380.22	216.70
380.60	216.62
380.98	216.55
381.36	216.46
381.73	216.41
382.11	216.43
382.49	216.42
382.87	216.37
383.25	216.33
383.62	216.54
384.00	216.46
384.38	216.44
384.76	216.44
385.13	216.46
385.51	216.47
385.89	216.42
386.27	216.39
386.64	216.41
387.02	216.37
387.40	216.32
387.78	216.32
388.15	216.31
388.53	216.28
388.91	216.27
389.29	216.24
389.66	216.24
390.04	216.16
390.42	216.16
390.79	216.16
391.17	216.11
391.55	215.86
391.92	215.83
392.30	215.86
392.68	215.83
393.05	215.83
393.43	215.83
393.81	215.86
394.18	215.85
394.56	215.84
394.94	215.88
395.31	215.86
395.69	215.91
396.06	215.97
396.44	215.99
396.82	215.99
397.19	216.13
397.57	216.12
397.95	216.19
398.32	216.14
398.70	216.18
399.07	216.25
399.45	216.26
399.82	216.32
400.20	216.33
400.58	216.40
400.95	216.39
401.33	216.49
401.70	216.69
402.08	216.77
402.45	216.89
402.83	216.99
403.20	217.10
403.58	217.16
403.95	217.27
404.33	217.42
404.71	217.56
405.08	217.77
405.46	217.95
405.83	218.16
406.21	218.39
406.58	218.66
406.96	218.88
407.33	219.16
407.70	219.45
408.08	219.88
408.45	220.20
408.83	220.57
409.20	220.88
409.58	221.11
409.95	221.56
410.33	221.99
410.70	222.42
411.08	222.96
411.45	223.53
411.82	224.14
412.20	224.83
412.57	225.63
412.95	226.25
413.32	227.03
413.69	227.79
414.07	228.64
414.44	229.56
414.82	230.55
415.19	231.67
415.56	232.82
415.94	233.97
416.31	235.32
416.68	236.65
417.06	238.19
417.43	239.72
417.81	241.37
418.18	243.10
418.55	244.97
418.93	246.92
419.30	248.97
419.67	251.05
420.04	253.24
420.42	255.52
420.79	258.18
421.16	260.88
421.54	263.69
421.91	266.55
422.28	269.55
422.66	272.73
423.03	275.87
423.40	279.10
423.77	282.53
424.15	286.08
424.52	289.81
424.89	293.87
425.26	297.81
425.64	301.54
426.01	305.68
426.38	309.97
426.75	314.39
427.13	318.99
427.50	323.79
427.87	328.83
428.24	333.87
428.61	338.70
428.99	344.04
429.36	349.87
429.73	355.61
430.10	361.26
430.47	367.11
430.85	373.19
431.22	379.68
431.59	386.58
431.96	393.17
432.33	400.40
432.70	407.39
433.08	415.57
433.45	423.40
433.82	431.11
434.19	439.69
434.56	448.06
434.93	456.09
435.30	464.10
435.68	472.92
436.05	481.59
436.42	490.17
436.79	498.00
437.16	506.48
437.53	515.40
437.90	524.19
438.27	532.84
438.64	541.72
439.01	549.98
439.38	557.29
439.75	564.37
440.13	572.52
440.50	580.21
440.87	586.49
441.24	592.85
441.61	599.94
441.98	605.15
442.35	611.26
442.72	617.34
443.09	623.20
443.46	626.81
443.83	629.27
444.20	631.39
444.57	634.43
444.94	635.81
445.31	637.24
445.68	638.63
446.05	639.23
446.42	638.51
446.79	637.60
447.16	636.56
447.53	635.80
447.90	632.55
448.27	629.31
448.64	624.81
449.01	621.61
449.37	615.94
449.74	610.50
450.11	603.87
450.48	596.71
450.85	589.53
451.22	583.29
451.59	577.35
451.96	571.66
452.33	564.09
452.70	557.22
453.07	548.96
453.43	540.65
453.80	532.65
454.17	524.94
454.54	517.56
454.91	509.71
455.28	502.02
455.65	494.89
456.02	487.79
456.38	481.69
456.75	474.14
457.12	467.83
457.49	461.52
457.86	455.59
458.23	450.39
458.59	444.69
458.96	438.86
459.33	433.77
459.70	428.72
460.07	424.64
460.43	419.95
460.80	415.58
461.17	411.79
461.54	407.73
461.91	403.83
462.27	399.94
462.64	396.63
463.01	393.02
463.38	389.50
463.74	385.85
464.11	382.74
464.48	380.02
464.85	377.02
465.21	374.68
465.58	372.11
465.95	369.10
466.32	366.54
466.68	364.04
467.05	361.55
467.42	359.08
467.78	356.50
468.15	354.04
468.52	352.20
468.88	349.79
469.25	347.68
469.62	345.97
469.98	344.09
470.35	342.35
470.72	340.73
471.08	339.03
471.45	337.60
471.82	336.12
472.18	334.51
472.55	333.35
472.92	332.01
473.28	330.88
473.65	329.83
474.02	328.81
474.38	327.95
474.75	327.24
475.11	326.41
475.48	325.87
475.85	325.39
476.21	324.98
476.58	324.69
476.94	324.48
477.31	324.22
477.67	324.01
478.04	323.88
478.41	323.81
478.77	323.99
479.14	323.96
479.50	324.11
479.87	324.44
480.23	324.76
480.60	325.05
480.96	325.33
481.33	325.92
481.69	326.51
482.06	327.05
482.42	327.51
482.79	328.15
483.15	328.94
483.52	329.91
483.88	330.77
484.25	331.72
484.61	332.78
484.98	333.83
485.34	335.16
485.71	336.52
486.07	337.96
486.44	339.24
486.80	340.88
487.17	342.54
487.53	344.42
487.90	346.28
488.26	348.34
488.62	350.51
488.99	352.55
489.35	354.70
489.72	357.10
490.08	359.63
490.44	362.19
490.81	364.90
491.17	367.62
491.54	370.65
491.90	373.65
492.26	376.90
492.63	380.32
492.99	383.82
493.36	387.50
493.72	391.43
494.08	395.44
494.45	399.61
494.81	403.94
495.17	408.32
495.54	413.04
495.90	417.77
496.26	422.68
496.63	427.85
496.99	433.24
497.35	438.78
497.72	444.58
498.08	450.53
498.44	456.62
498.80	463.01
499.17	469.40
499.53	476.00
499.89	482.84
500.26	489.72
500.62	496.74
500.98	504.14
501.34	511.50
501.71	519.21
502.07	526.99
502.43	534.95
502.79	543.05
503.16	551.33
503.52	559.94
503.88	568.65
504.24	577.59
504.60	586.57
504.97	595.79
505.33	605.01
505.69	614.81
506.05	624.62
506.41	634.45
506.78	644.46
507.14	654.73
507.50	665.12
507.86	675.75
508.22	686.46
508.59	697.04
508.95	708.05
509.31	719.21
509.67	730.57
510.03	741.83
510.39	753.53
510.75	765.30
511.12	777.09
511.48	789.06
511.84	801.15
512.20	813.38
512.56	825.87
512.92	838.58
513.28	851.08
513.64	863.56
514.00	876.24
514.37	889.11
514.73	902.13
515.09	914.87
515.45	927.55
515.81	940.44
516.17	953.65
516.53	966.66
516.89	979.63
517.25	992.65
517.61	1006.13
517.97	1019.32
518.33	1032.22
518.69	1045.62
519.05	1059.18
519.41	1072.63
519.77	1086.23
520.13	1099.27
520.49	1112.26
520.85	1125.44
521.21	1138.71
521.57	1152.23
521.93	1165.13
522.29	1178.57
522.65	1192.03
523.01	1205.56
523.37	1218.51
523.73	1231.53
524.09	1244.51
524.45	1257.69
524.81	1271.00
525.17	1283.98
525.53	1296.78
525.89	1309.86
526.25	1322.74
526.61	1335.30
526.97	1348.14
527.33	1360.82
527.68	1373.99
528.04	1387.15
528.40	1399.99
528.76	1413.08
529.12	1425.53
529.48	1438.41
529.84	1450.46
530.20	1462.98
530.56	1475.29
530.91	1488.34
531.27	1500.91
531.63	1513.43
531.99	1525.91
532.35	1537.84
532.71	1549.99
533.07	1562.61
533.42	1574.58
533.78	1586.17
534.14	1597.87
534.50	1608.79
534.86	1620.15
535.21	1630.76
535.57	1642.00
535.93	1653.04
536.29	1663.79
536.65	1674.97
537.00	1685.70
537.36	1696.70
537.72	1707.38
538.08	1718.31
538.44	1728.80
538.79	1739.61
539.15	1749.93
539.51	1760.27
539.87	1771.27
540.22	1781.78
540.58	1792.41
540.94	1802.87
541.29	1813.01
541.65	1822.53
542.01	1832.91
542.37	1842.65
542.72	1852.58
543.08	1862.02
543.44	1872.08
543.79	1881.13
544.15	1890.33
544.51	1900.16
544.87	1909.82
545.22	1918.72
545.58	1927.42
545.94	1936.10
546.29	1944.38
546.65	1952.61
547.01	1960.60
547.36	1968.00
547.72	1975.47
548.07	1982.90
548.43	1990.51
548.79	1998.19
549.14	2006.06
549.50	2014.11
549.86	2021.74
550.21	2028.89
550.57	2036.33
550.92	2043.02
551.28	2050.32
551.64	2057.49
551.99	2064.68
552.35	2071.57
552.70	2078.10
553.06	2084.69
553.41	2090.63
553.77	2096.91
554.13	2103.09
554.48	2110.01
554.84	2116.75
555.19	2123.11
555.55	2129.31
555.90	2135.39
556.26	2141.99
556.61	2147.83
556.97	2152.56
557.32	2158.24
557.68	2164.62
558.03	2170.10
558.39	2175.20
558.74	2180.88
559.10	2186.29
559.45	2191.87
559.81	2197.26
560.16	2202.82
560.52	2208.55
560.87	2215.10
561.23	2221.05
561.58	2227.89
561.94	2232.97
562.29	2237.83
562.64	2243.93
563.00	2249.59
563.35	2255.26
563.71	2260.95
564.06	2266.56
564.42	2272.66
564.77	2277.81
565.12	2282.85
565.48	2288.33
565.83	2293.95
566.19	2299.45
566.54	2304.89
566.89	2309.42
567.25	2314.04
567.60	2319.77
567.96	2324.95
568.31	2329.42
568.66	2333.67
569.02	2337.44
569.37	2341.37
569.72	2345.73
570.08	2349.38
570.43	2352.47
570.78	2355.52
571.14	2358.27
571.49	2361.46
571.84	2364.94
572.20	2367.83
572.55	2371.14
572.90	2373.32
573.26	2376.31
573.61	2378.87
573.96	2381.05
574.31	2383.12
574.67	2385.24
575.02	2386.32
575.37	2387.82
575.72	2388.87
576.08	2390.45
576.43	2390.86
576.78	2391.51
577.13	2393.47
577.49	2394.63
577.84	2396.15
578.19	2397.88
578.54	2398.63
578.90	2399.80
579.25	2399.82
579.60	2400.02
579.95	2399.41
580.30	2399.91
580.66	2399.29
581.01	2397.99
581.36	2395.88
581.71	2394.68
582.06	2393.74
582.42	2393.09
582.77	2391.20
583.12	2389.73
583.47	2388.73
583.82	2388.27
584.17	2387.21
584.53	2385.20
584.88	2383.42
585.23	2381.40
585.58	2379.16
585.93	2377.15
586.28	2375.07
586.63	2372.93
586.98	2370.92
587.34	2369.12
587.69	2366.89
588.04	2365.15
588.39	2363.81
588.74	2361.53
589.09	2359.21
589.44	2356.33
589.79	2354.01
590.14	2352.24
590.49	2349.57
590.84	2346.08
591.19	2343.37
591.54	2340.26
591.89	2336.50
592.25	2333.31
592.60	2329.44
592.95	2325.54
593.30	2321.52
593.65	2317.33
594.00	2313.06
594.35	2310.25
594.70	2305.71
595.05	2300.93
595.40	2295.50
595.75	2290.03
596.10	2286.64
596.45	2281.78
596.80	2277.23
597.15	2271.95
597.50	2266.14
597.85	2261.23
598.19	2255.89
598.54	2250.06
598.89	2244.98
599.24	2240.41
599.59	2234.37
599.94	2228.78
600.29	2222.88
600.64	2217.12
600.99	2210.56
601.34	2205.25
601.69	2198.24
602.04	2192.03
602.39	2185.78
602.74	2179.96
603.08	2174.50
603.43	2168.08
603.78	2161.31
604.13	2154.28
604.48	2147.31
604.83	2141.26
605.18	2135.14
605.53	2128.21
605.87	2121.18
606.22	2114.61
606.57	2106.85
606.92	2099.21
607.27	2092.32
607.62	2085.84
607.96	2078.90
608.31	2072.32
608.66	2064.56
609.01	2057.08
609.36	2050.01
609.70	2042.46
610.05	2034.77
610.40	2026.56
610.75	2018.21
611.10	2010.60
611.44	2001.98
611.79	1993.28
612.14	1983.30
612.49	1972.82
612.83	1963.72
613.18	1954.67
613.53	1945.21
613.88	1935.75
614.22	1927.15
614.57	1917.25
614.92	1906.76
615.27	1896.97
615.61	1887.11
615.96	1877.59
616.31	1868.14
616.65	1858.80
617.00	1848.91
617.35	1839.15
617.70	1829.39
618.04	1819.37
618.39	1809.09
618.74	1799.49
619.08	1789.93
619.43	1781.40
619.78	1773.21
620.12	1764.52
620.47	1754.72
620.82	1744.54
621.16	1734.72
621.51	1724.67
621.85	1714.91
622.20	1704.47
622.55	1693.70
622.89	1683.81
623.24	1674.08
623.59	1664.32
623.93	1654.16
624.28	1644.51
624.62	1634.40
624.97	1624.17
625.32	1614.55
625.66	1605.94
626.01	1597.00
626.35	1587.50
626.70	1577.18
627.04	1567.02
627.39	1556.97
627.73	1547.84
628.08	1538.81
628.43	1529.26
628.77	1520.16
629.12	1511.25
629.46	1503.39
629.81	1494.85
630.15	1485.26
630.50	1475.33
630.84	1464.88
631.19	1454.97
631.53	1445.52
631.88	1435.44
632.22	1425.36
632.57	1415.97
632.91	1405.75
633.26	1395.98
633.60	1386.48
633.95	1377.38
634.29	1368.05
634.64	1358.70
634.98	1348.88
635.32	1339.69
635.67	1331.19
636.01	1321.97
636.36	1312.15
636.70	1302.64
637.05	1293.41
637.39	1284.49
637.73	1275.89
638.08	1268.33
638.42	1260.15
638.77	1251.40
639.11	1243.19
639.45	1235.40
639.80	1226.71
640.14	1218.03
640.49	1209.16
640.83	1200.40
641.17	1192.20
641.52	1183.92
641.86	1175.32
642.20	1167.42
642.55	1158.76
642.89	1149.85
643.23	1141.11
643.58	1133.10
643.92	1124.08
644.26	1115.43
644.61	1106.96
644.95	1098.20
645.29	1088.90
645.64	1079.76
645.98	1071.44
646.32	1063.57
646.66	1055.05
647.01	1046.78
647.35	1038.62
647.69	1030.28
648.04	1022.01
648.38	1013.18
648.72	1004.39
649.06	995.91
649.41	987.69
649.75	979.69
650.09	971.85
650.43	963.83
650.78	955.64
651.12	948.02
651.46	940.67
651.80	933.43
652.14	926.18
652.49	918.77
652.83	911.48
653.17	903.72
653.51	896.09
653.85	888.96
654.20	881.74
654.54	874.29
654.88	867.12
655.22	859.98
655.56	853.01
655.90	846.31
656.25	839.77
656.59	832.84
656.93	825.93
657.27	818.89
657.61	812.11
657.95	806.06
658.29	800.25
658.64	794.06
658.98	787.74
659.32	781.26
659.66	775.06
660.00	768.75
660.34	762.76
660.68	756.66
661.02	750.43
661.36	744.55
661.70	738.85
662.05	733.24
662.39	727.81
662.73	722.59
663.07	717.32
663.41	711.79
663.75	706.22
664.09	700.64
664.43	695.29
664.77	689.98
665.11	684.10
665.45	678.23
665.79	672.60
666.13	666.90
666.47	661.50
666.81	656.05
667.15	650.81
667.49	645.79
667.83	640.61
668.17	635.43
668.51	630.37
668.85	625.54
669.19	620.70
669.53	615.74
669.87	610.68
670.21	605.93
670.55	601.28
670.89	596.95
671.23	592.72
671.57	588.42
671.91	584.12
672.25	580.13
672.58	576.05
672.92	572.06
673.26	568.27
673.60	564.43
673.94	560.69
674.28	557.08
674.62	553.28
674.96	549.60
675.30	546.11
675.64	542.59
675.97	539.03
676.31	535.49
676.65	531.94
676.99	528.52
677.33	524.72
677.67	521.16
678.01	517.35
678.34	513.73
678.68	510.21
679.02	506.64
679.36	502.97
679.70	499.40
680.04	495.88
680.37	492.46
680.71	489.17
681.05	486.08
681.39	482.91
681.73	479.82
682.06	476.83
682.40	473.81
682.74	470.58
683.08	467.43
683.42	464.32
683.75	461.41
684.09	458.44
684.43	455.73
684.77	452.83
685.10	450.04
685.44	447.18
685.78	444.33
686.12	441.72
686.45	439.01
686.79	436.36
687.13	433.85
687.46	431.32
687.80	428.73
688.14	425.95
688.48	423.38
688.81	420.77
689.15	418.25
689.49	415.70
689.82	413.22
690.16	410.66
690.50	408.27
690.83	405.83
691.17	403.34
691.51	400.89
691.84	398.73
692.18	396.55
692.52	394.37
692.85	392.28
693.19	390.14
693.52	388.10
693.86	385.97
694.20	383.82
694.53	381.73
694.87	379.55
695.21	377.51
695.54	375.42
695.88	373.30
696.21	371.10
696.55	368.99
696.88	366.96
697.22	365.09
697.56	363.25
697.89	361.42
698.23	359.75
698.56	358.02
698.90	356.25
699.23	354.37
699.57	352.53
699.90	350.71
700.24	348.96
700.58	347.20
700.91	345.54
701.25	344.03
701.58	342.44
701.92	340.88
702.25	339.29
702.59	337.70
702.92	336.20
703.26	334.73
703.59	333.33
703.93	332.15
704.26	330.72
704.60	329.24
704.93	327.76
705.26	326.24
705.60	324.77
705.93	323.30
706.27	322.04
706.60	320.83
706.94	319.67
707.27	318.27
707.61	316.96
707.94	315.65
708.27	314.17
708.61	312.74
708.94	311.41
709.28	310.10
709.61	308.88
709.94	307.68
710.28	306.50
710.61	305.28
710.95	303.88
711.28	302.85
711.61	301.66
711.95	300.58
712.28	299.43
712.61	298.34
712.95	297.31
713.28	296.30
713.61	295.21
713.95	294.09
714.28	293.12
714.61	292.09
714.95	291.13
715.28	290.18
715.61	289.19
715.95	288.28
716.28	287.36
716.61	286.41
716.95	285.49
717.28	284.60
717.61	283.69
717.94	282.83
718.28	281.78
718.61	280.95
718.94	280.09
719.27	279.28
719.61	278.43
719.94	277.57
720.27	276.60
720.60	275.73
720.94	274.92
721.27	274.18
721.60	273.51
721.93	272.81
722.27	272.19
722.60	271.52
722.93	270.79
723.26	270.19
723.59	269.54
723.93	268.93
724.26	268.28
724.59	267.66
724.92	267.11
725.25	266.59
725.59	266.00
725.92	265.44
726.25	264.89
726.58	264.31
726.91	263.74
727.24	263.27
727.57	262.76
727.91	262.19
728.24	261.65
728.57	261.06
728.90	260.52
729.23	259.91
729.56	259.52
729.89	259.03
730.22	258.49
730.55	257.96
730.89	257.40
731.22	256.90
731.55	256.45
731.88	255.93
732.21	255.41
732.54	254.89
732.87	254.41
733.20	253.95
733.53	253.53
733.86	253.09
734.19	252.62
734.52	252.19
734.85	251.89
735.18	251.45
735.51	251.12
735.84	250.72
736.17	250.32
736.50	249.81
736.83	249.67
737.16	249.27
737.49	248.89
737.82	248.51
738.15	248.17
738.48	247.80
738.81	247.43
739.14	247.01
739.47	246.66
739.80	246.32
740.13	246.01
740.46	245.60
740.79	245.22
741.12	244.88
741.45	244.49
741.78	244.08
742.11	243.80
742.44	243.41
742.77	243.11
743.10	242.79
743.43	242.45
743.75	241.87
744.08	241.84
744.41	241.47
744.74	241.15
745.07	240.83
745.40	240.49
745.73	240.23
746.06	239.98
746.39	239.71
746.71	239.33
747.04	238.96
747.37	238.68
747.70	238.42
748.03	238.10
748.36	237.88
748.68	237.56
749.01	237.23
749.34	236.94
749.67	236.68
750.00	236.44
750.33	236.34
750.65	236.11
750.98	235.58
751.31	235.40
751.64	235.16
751.97	234.99
752.29	234.78
752.62	234.49
752.95	234.22
753.28	233.98
753.60	233.75
753.93	233.59
754.26	233.39
754.59	233.11
754.91	232.84
755.24	232.61
755.57	232.40
755.90	232.17
756.22	231.98
756.55	231.71
756.88	231.46
757.20	231.10
757.53	230.86
757.86	230.65
758.19	230.41
758.51	230.20
758.84	229.90
759.17	229.65
759.49	229.44
759.82	229.35
760.15	229.19
760.47	229.03
760.80	228.78
761.13	228.62
761.45	228.43
761.78	228.28
762.11	228.13
762.43	227.95
762.76	227.78
763.08	227.60
763.41	227.46
763.74	227.30
764.06	227.13
764.39	226.97
764.71	226.81
765.04	226.66
765.37	226.53
765.69	226.39
766.02	226.27
766.34	226.12
766.67	225.91
767.00	225.81
767.32	225.78
767.65	225.79
767.97	225.64
768.30	225.54
768.62	225.41
768.95	225.23
769.27	225.13
769.60	225.07
769.92	224.92
770.25	224.72
770.57	224.60
770.90	224.53
771.22	224.42
771.55	224.35
771.87	224.32
772.20	224.18
772.52	224.27
772.85	224.40
773.17	224.33
773.50	224.24
773.82	224.12
774.15	223.92
774.47	223.71
774.80	223.59
775.12	223.55
775.45	223.49
775.77	223.41
776.09	223.33
776.42	223.19
776.74	223.20
777.07	223.11
777.39	223.05
777.72	222.94
778.04	222.86
778.36	222.75
778.69	222.62
779.01	222.58
779.33	222.30
779.66	222.00
779.98	221.90
780.31	221.78
780.63	221.77
780.95	221.74
781.28	221.66
781.60	221.60
781.92	221.54
782.25	221.45
782.57	221.40
782.89	221.31
783.22	221.27
783.54	221.14
783.86	221.12
784.19	221.00
784.51	220.98
784.83	220.91
785.16	220.86
785.48	220.81
785.80	220.75
786.12	220.74
786.45	220.68
786.77	220.66
787.09	220.62
787.42	220.50
787.74	220.44
788.06	220.41
788.38	220.34
788.71	220.22
789.03	220.20
789.35	220.18
789.67	220.11
789.99	220.03
790.32	219.96
790.64	219.96
790.96	220.11
791.28	220.00
791.61	219.93
791.93	219.87
792.25	219.78
792.57	219.89
792.89	219.82
793.21	219.78
793.54	219.72
793.86	219.66
794.18	219.60
794.50	219.51
794.82	219.43
795.14	219.44
795.47	219.46
795.79	219.36
796.11	219.28
796.43	219.24
796.75	219.21
797.07	219.16
797.39	219.11
797.71	218.91
798.04	218.87
798.36	218.84
798.68	218.84
799.00	218.82
799.32	218.65
799.64	218.62
799.96	218.57
800.28	218.57
800.60	218.52
800.92	218.52
801.24	218.44
801.56	218.43
801.89	218.35
802.21	218.31
802.53	218.26
802.85	218.28
803.17	218.38
803.49	218.33
803.81	218.29
804.13	218.21
804.45	218.19
804.77	218.19
805.09	218.17
805.41	218.12
805.73	218.10
806.05	218.04
806.37	217.99
806.69	217.97
807.01	217.92
807.33	217.93
807.65	217.84
807.97	217.92
808.28	217.88
808.60	217.86
808.92	217.78
809.24	217.91
809.56	217.80
809.88	217.69
810.20	217.64
810.52	217.67
810.84	217.63
811.16	217.58
811.48	217.55
811.80	217.60
812.12	217.55
812.43	217.57
812.75	217.55
813.07	217.50
813.39	217.49
813.71	217.43
814.03	217.37
814.35	217.38
814.67	217.31
814.98	217.26
815.30	217.22
815.62	217.19
815.94	217.02
816.26	217.02
816.58	216.96
816.89	216.96
817.21	216.89
817.53	216.86
817.85	216.82
818.17	216.80
818.48	216.70
818.80	216.74
819.12	216.67
819.44	216.62
819.76	216.58
820.07	216.55
820.39	216.49
820.71	216.49
821.03	216.46
821.34	216.42
821.66	216.44
821.98	216.44
822.30	216.41
822.61	216.49
822.93	216.46
823.25	216.43
823.57	216.40
823.88	216.40
824.20	216.41
824.52	216.48
824.83	216.48
825.15	216.44
825.47	216.39
825.79	216.39
826.10	216.35
826.42	216.35
826.74	216.35
827.05	216.39
827.37	216.38
827.69	216.37
828.00	216.33
828.32	216.31
828.64	216.30
828.95	216.41
829.27	216.39
829.58	216.37
829.90	216.38
830.22	216.40
830.53	216.37
830.85	216.31
831.17	216.22
831.48	216.19
831.80	216.20
832.11	216.18
832.43	216.16
832.75	216.18
833.06	216.28
833.38	216.20
833.69	216.15
834.01	216.16
834.32	216.14
834.64	216.16
834.96	216.17
835.27	216.12
835.59	216.03
835.90	215.94
836.22	215.96
836.53	215.94
836.85	215.92
837.16	216.12
837.48	216.15
837.79	216.23
838.11	216.24
838.42	216.22
838.74	216.23
839.05	216.19
839.37	216.14
839.68	216.02
840.00	216.03
840.31	216.07
840.63	216.02
840.94	216.00
841.26	215.94
841.57	215.94
841.88	215.96
842.20	215.97
842.51	215.95
842.83	215.92
843.14	216.10
843.46	216.08
843.77	215.93
844.08	215.92
844.40	215.83
844.71	215.79
845.03	215.76
845.34	215.75
845.65	215.78
845.97	215.83
846.28	215.82
846.60	215.84
846.91	215.84
847.22	215.82
847.54	215.88
847.85	215.92
848.16	215.88
848.48	215.84
848.79	215.91
849.10	215.96
849.42	215.99
849.73	215.79
850.04	215.77
850.36	215.71
850.67	215.74
850.98	215.72
851.30	215.76
851.61	215.75
851.92	215.73
852.23	215.76
852.55	215.73
852.86	215.70
853.17	215.69
853.49	215.69
853.80	215.75
854.11	215.75
854.42	215.74
854.74	215.72
855.05	215.73
855.36	215.60
855.67	215.58
855.99	215.59
856.30	215.83
856.61	215.85
856.92	215.84
857.23	215.80
857.55	215.80
857.86	215.76
858.17	215.81
858.48	215.78
858.79	215.71
859.11	215.71
859.42	215.73
859.73	215.72
860.04	215.71
860.35	215.61
860.66	215.54
860.98	215.53
861.29	215.53
861.60	215.52
861.91	215.58
862.22	215.55
862.53	215.51
862.84	215.30
863.16	215.28
863.47	215.27
863.78	215.26
864.09	215.28
864.40	215.31
864.71	215.29
865.02	215.31
865.33	215.28
865.64	215.27
865.95	215.25
866.27	215.39
866.58	215.35
866.89	215.40
867.20	215.37
867.51	215.35
867.82	215.36
868.13	215.43
868.44	215.38
868.75	215.40
869.06	215.39
869.37	215.39
869.68	215.37
869.99	215.38
870.30	215.41
870.61	215.42
870.92	215.38
871.23	215.36
871.54	215.38
871.85	215.44
872.16	215.46
872.47	215.48
872.78	215.33
873.09	215.34
873.40	215.30
873.71	215.35
874.02	215.36
874.33	215.35
874.64	215.27
874.95	215.29
875.26	215.28
875.56	215.25
875.87	215.22
876.18	215.21
876.49	215.44
876.80	215.43
877.11	215.38
877.42	215.40
877.73	215.40
878.04	215.39
878.35	215.38
878.66	215.37
878.96	215.34
879.27	215.35
879.58	215.36
879.89	215.37
880.20	215.41
880.51	215.40
880.82	215.37
881.12	215.39
881.43	215.35
881.74	215.30
882.05	215.28
882.36	215.29
882.67	215.27
882.97	215.02
883.28	214.96
883.59	214.98
883.90	214.98
884.21	215.01
884.51	214.96
884.82	214.96
885.13	214.95
885.44	214.96
885.74	214.95
886.05	214.94
886.36	214.94
886.67	214.87
886.98	214.99
887.28	215.03
887.59	215.06
887.90	215.11
888.20	215.13
888.51	215.16
888.82	215.13
889.13	215.16
889.43	215.35
889.74	215.36
890.05	215.34
890.35	215.32
890.66	215.29
890.97	215.29
891.28	215.25
891.58	215.26
891.89	215.26
892.20	215.25
892.50	215.24
892.81	215.23
893.12	215.22
893.42	215.12
893.73	215.11
894.04	215.10
894.34	215.09
894.65	215.09
894.95	215.11
895.26	215.15
895.57	215.24
895.87	215.02
896.18	215.09
896.48	215.11
896.79	215.12
897.10	215.13
897.40	215.14
897.71	215.18
898.01	215.17
898.32	215.16
898.63	215.17
898.93	215.20
899.24	215.22
899.54	215.19
899.85	215.16
900.15	215.16
900.46	215.13
900.76	215.15
901.07	215.16
901.38	215.12
901.68	215.16
901.99	215.05
902.29	215.08
902.60	215.04
902.90	215.04
903.21	215.03
903.51	215.04
903.82	215.10
904.12	215.11
904.43	215.14
904.73	215.14
905.03	215.14
905.34	215.31
905.64	215.28
905.95	215.30
906.25	215.33
906.56	215.30
906.86	215.28
907.17	215.26
907.47	215.25
907.77	215.25
908.08	215.19
908.38	215.20
908.69	215.19
908.99	215.22
909.30	215.24
909.60	215.26
909.90	215.24
910.21	215.17
910.51	215.12
910.81	215.13
911.12	215.16
911.42	215.16
911.73	214.94
912.03	214.97
912.33	215.01
912.64	215.00
912.94	214.98
913.24	214.98
913.55	214.98
913.85	214.97
914.15	215.04
914.46	215.08
914.76	215.08
915.06	215.08
915.37	215.02
915.67	215.00
915.97	214.99
916.27	214.96
916.58	214.98
916.88	214.96
917.18	214.90
917.49	215.02
917.79	215.04
918.09	215.08
918.39	215.14
918.70	215.12
919.00	215.09
919.30	215.19
919.60	215.19
919.91	215.14
920.21	215.16
920.51	215.07
920.81	215.04
921.12	215.06
921.42	215.07
921.72	215.11
922.02	215.11
922.32	215.13
922.63	215.14
922.93	215.25
923.23	215.29
923.53	215.29
923.83	215.18
924.13	215.18
924.44	215.18
924.74	215.20
925.04	215.26
925.34	215.29
925.64	215.21
925.94	215.20
926.24	215.34
926.55	215.30
926.85	215.34
927.15	215.38
927.45	215.40
927.75	215.42
928.05	215.42
928.35	215.44
928.65	215.46
928.95	215.44
929.26	215.37
929.56	215.39
929.86	215.42
930.16	215.40
930.46	215.38
930.76	215.37
931.06	215.25
931.36	215.18
931.66	215.19
931.96	215.23
932.26	215.26
932.56	215.20
932.86	215.24
933.16	215.25
933.46	215.22
933.76	215.16
934.06	215.17
934.36	215.26
934.66	215.24
934.96	215.20
935.26	215.24
935.56	215.25
935.86	215.19
936.16	215.15
936.46	215.13
936.76	215.08
937.06	215.09
937.36	215.15
937.66	215.18
937.96	215.18
938.26	215.13
938.56	215.14
938.86	215.11
939.16	215.14
939.46	215.17
939.76	215.19
940.06	215.18
940.35	215.14
940.65	214.99
940.95	215.02
941.25	215.00
941.55	214.94
941.85	214.91
942.15	214.94
942.45	214.99
942.75	214.97
943.04	215.01
943.34	215.00
943.64	214.95
943.94	214.89
944.24	214.90
944.54	214.93
944.84	214.89
945.13	214.84
945.43	214.79
945.73	214.74
946.03	214.70
946.33	214.72
946.62	214.69
946.92	214.67
947.22	214.67
947.52	214.66
947.82	214.71
948.11	214.70
948.41	214.66
948.71	214.62
949.01	214.63
949.31	214.61
949.60	214.60
949.90	214.63
950.20	214.64
950.50	214.62
950.79	214.57
951.09	214.61
951.39	214.63
951.69	214.58
951.98	214.67
952.28	214.67
952.58	214.61
952.87	214.62
953.17	214.67
953.47	214.65
953.76	214.65
954.06	214.63
954.36	214.59
954.66	214.59
954.95	214.63
955.25	214.67
955.55	214.72
955.84	214.68
956.14	214.72
956.44	214.74
956.73	214.70
957.03	214.72
957.32	214.71
957.62	214.71
957.92	214.78
958.21	214.74
958.51	215.00
958.81	215.06
959.10	215.10
959.40	215.13
959.69	215.12
959.99	215.14
960.29	215.12
960.58	215.12
960.88	215.21
961.17	215.22
961.47	215.18
961.76	215.16
962.06	215.19
962.36	215.17
962.65	215.17
962.95	215.18
963.24	215.16
963.54	215.16
963.83	215.18
964.13	215.17
964.42	215.11
964.72	214.91
965.01	214.94
965.31	214.91
965.60	214.88
965.90	215.03
966.19	214.99
966.49	215.05
966.78	215.04
967.08	215.00
967.37	214.98
967.67	214.97
967.96	214.98
968.26	214.96
968.55	214.97
968.85	214.96
969.14	214.99
969.43	214.98
969.73	214.98
970.02	214.95
970.32	214.94
970.61	214.97
970.91	214.92
971.20	214.85
971.49	214.82
971.79	214.86
972.08	214.70
972.38	214.70
972.67	214.66
972.96	214.70
973.26	214.66
973.55	214.71
973.85	214.70
974.14	214.69
974.43	214.72
974.73	214.65
975.02	214.65
975.31	214.61
975.61	214.63
975.90	214.61
976.19	214.62
976.49	214.62
976.78	214.61
977.07	214.63
977.37	214.67
977.66	214.73
977.95	214.68
978.24	214.68
978.54	214.74
978.83	214.72
979.12	214.71
979.42	214.73
979.71	214.70
980.00	214.71
980.29	214.71
980.59	214.65
980.88	214.75
981.17	214.71
981.46	214.72
981.76	214.71
982.05	214.77
982.34	214.76
982.63	214.76
982.93	214.77
983.22	214.78
983.51	214.79
983.80	214.79
984.09	214.81
984.39	214.81
984.68	214.76
984.97	214.78
985.26	214.78
985.55	214.78
985.85	214.76
986.14	214.80
986.43	214.82
986.72	214.84
987.01	214.73
987.30	214.76
987.59	214.74
987.89	214.76
988.18	214.72
988.47	214.71
988.76	214.68
989.05	214.65
989.34	214.63
989.63	214.64
989.92	214.62
990.22	214.59
990.51	214.60
990.80	214.59
991.09	214.61
991.38	214.61
991.67	214.59
991.96	214.54
992.25	214.53
992.54	214.47
992.83	214.48
993.12	214.49
993.41	214.53
993.70	214.60
993.99	214.62
994.28	214.62
994.58	214.64
994.87	214.66
995.16	214.67
995.45	214.66
995.74	214.62
996.03	214.65
996.32	214.69
996.61	214.72
996.90	214.72
997.19	214.71
997.48	214.74
997.77	214.73
998.06	214.77
998.34	214.71
998.63	214.72
998.92	214.74
999.21	214.75
999.50	214.74
999.79	214.70
1000.08	214.70
1000.37	214.76
1000.66	214.72
1000.95	214.78
1001.24	214.81
1001.53	214.83
1001.82	214.85
1002.11	214.80
1002.40	214.81
1002.68	214.85
1002.97	215.04
1003.26	214.99
1003.55	214.94
1003.84	214.95
1004.13	215.02
1004.42	215.06
1004.71	215.08
1004.99	215.05
1005.28	215.13
1005.57	215.12
1005.86	215.09
1006.15	215.08
1006.44	215.00
1006.72	215.04
1007.01	214.98
1007.30	214.93
1007.59	214.89
1007.88	214.87
1008.17	214.88
1008.45	214.81
1008.74	214.75
1009.03	214.64
1009.32	214.70
1009.60	214.72
1009.89	214.69
1010.18	214.60
1010.47	214.57
1010.76	214.56
1011.04	214.57
1011.33	214.55
1011.62	214.55
1011.91	214.58
1012.19	214.60
1012.48	214.62
1012.77	214.63
1013.05	214.71
1013.34	214.75
1013.63	214.73
1013.92	214.73
1014.20	214.74
1014.49	214.79
1014.78	214.78
1015.06	214.69
1015.35	214.69
1015.64	214.71
1015.92	214.74
1016.21	214.75
1016.50	214.80
1016.78	214.83
1017.07	214.83
1017.36	214.78
1017.64	214.75
1017.93	214.77
1018.22	214.75
1018.50	214.70
1018.79	214.73
1019.08	214.66
1019.36	214.66
1019.65	214.66
1019.93	214.74
1020.22	214.77
1020.51	214.87
1020.79	214.87
1021.08	214.37
1021.36	213.90
1021.65	215.37
1021.94	215.05
1022.22	214.73
1022.51	214.09
1022.79	216.09
1023.08	215.31
1023.36	217.22
1023.65	214.42
>>>>>End Processed Spectral Data<<<<<
