SpectraSuite Data File
++++++++++++++++++++++++++++++++++++
Date: Tue Jan 29 16:23:33 EST 2013
User: group
Dark Spectrum Present: No
Reference Spectrum Present: No
Number of Sampled Component Spectra: 1
Spectrometers: USB2E7196
Integration Time (usec): 65000 (USB2E7196)
Spectra Averaged: 100 (USB2E7196)
Boxcar Smoothing: 10 (USB2E7196)
Correct for Electrical Dark: No (USB2E7196)
Strobe/Lamp Enabled: No (USB2E7196)
Correct for Detector Non-linearity: No (USB2E7196)
Correct for Stray Light: No (USB2E7196)
Number of Pixels in Processed Spectrum: 2048
>>>>>Begin Processed Spectral Data<<<<<
339.09	0.00
339.48	201.94
339.86	203.32
340.24	204.62
340.63	206.81
341.01	211.31
341.39	209.18
341.78	211.11
342.16	212.33
342.54	212.43
342.93	201.43
343.31	211.58
343.69	212.16
344.07	212.63
344.46	213.11
344.84	213.49
345.22	213.64
345.60	213.91
345.99	214.07
346.37	214.21
346.75	214.33
347.13	214.38
347.52	214.44
347.90	214.58
348.28	214.59
348.66	214.70
349.05	214.66
349.43	214.73
349.81	214.80
350.19	214.90
350.57	215.00
350.96	215.07
351.34	215.18
351.72	215.25
352.10	215.37
352.48	215.43
352.87	215.49
353.25	215.54
353.63	215.60
354.01	215.67
354.39	215.74
354.77	215.79
355.15	215.95
355.54	216.05
355.92	216.05
356.30	216.12
356.68	216.30
357.06	216.39
357.44	216.41
357.82	216.46
358.20	216.55
358.58	216.63
358.97	216.73
359.35	216.87
359.73	216.99
360.11	217.02
360.49	217.08
360.87	217.13
361.25	217.22
361.63	217.33
362.01	217.39
362.39	217.41
362.77	217.46
363.15	217.46
363.53	217.46
363.91	217.51
364.29	217.53
364.67	217.36
365.05	217.38
365.43	217.42
365.81	217.50
366.19	217.58
366.57	217.64
366.95	217.61
367.33	217.54
367.71	217.53
368.09	217.58
368.47	217.59
368.85	217.59
369.23	217.62
369.61	217.55
369.99	217.58
370.37	217.61
370.75	217.70
371.13	217.64
371.51	217.61
371.89	217.63
372.27	217.62
372.65	217.63
373.03	217.62
373.41	217.61
373.78	217.52
374.16	217.40
374.54	217.31
374.92	217.25
375.30	217.25
375.68	217.16
376.06	217.14
376.44	217.07
376.82	217.03
377.19	216.97
377.57	216.92
377.95	216.84
378.33	216.74
378.71	216.57
379.09	216.57
379.47	216.55
379.84	216.47
380.22	216.43
380.60	216.33
380.98	216.21
381.36	216.14
381.73	216.05
382.11	216.01
382.49	215.96
382.87	215.92
383.25	215.84
383.62	216.06
384.00	215.97
384.38	215.99
384.76	216.00
385.13	216.04
385.51	215.99
385.89	215.92
386.27	215.92
386.64	215.92
387.02	215.86
387.40	215.81
387.78	215.76
388.15	215.71
388.53	215.70
388.91	215.70
389.29	215.67
389.66	215.71
390.04	215.67
390.42	215.69
390.79	215.68
391.17	215.69
391.55	215.44
391.92	215.45
392.30	215.42
392.68	215.37
393.05	215.34
393.43	215.35
393.81	215.37
394.18	215.34
394.56	215.35
394.94	215.40
395.31	215.38
395.69	215.48
396.06	215.55
396.44	215.59
396.82	215.63
397.19	215.74
397.57	215.73
397.95	215.80
398.32	215.77
398.70	215.82
399.07	215.91
399.45	215.93
399.82	215.95
400.20	215.98
400.58	216.03
400.95	216.00
401.33	216.13
401.70	216.36
402.08	216.43
402.45	216.54
402.83	216.66
403.20	216.82
403.58	216.90
403.95	217.04
404.33	217.17
404.71	217.26
405.08	217.50
405.46	217.67
405.83	217.84
406.21	218.06
406.58	218.31
406.96	218.52
407.33	218.79
407.70	219.13
408.08	219.58
408.45	219.95
408.83	220.38
409.20	220.71
409.58	220.95
409.95	221.46
410.33	221.88
410.70	222.32
411.08	222.83
411.45	223.39
411.82	223.95
412.20	224.64
412.57	225.49
412.95	226.08
413.32	226.90
413.69	227.78
414.07	228.68
414.44	229.62
414.82	230.63
415.19	231.80
415.56	232.96
415.94	234.15
416.31	235.53
416.68	236.90
417.06	238.49
417.43	240.06
417.81	241.78
418.18	243.56
418.55	245.49
418.93	247.52
419.30	249.61
419.67	251.82
420.04	254.10
420.42	256.46
420.79	259.26
421.16	262.04
421.54	264.89
421.91	267.81
422.28	270.92
422.66	274.22
423.03	277.45
423.40	280.79
423.77	284.35
424.15	287.99
424.52	291.79
424.89	295.94
425.26	300.01
425.64	303.85
426.01	308.10
426.38	312.56
426.75	317.05
427.13	321.76
427.50	326.68
427.87	331.87
428.24	337.06
428.61	342.02
428.99	347.50
429.36	353.51
429.73	359.47
430.10	365.25
430.47	371.27
430.85	377.52
431.22	384.22
431.59	391.29
431.96	398.08
432.33	405.59
432.70	412.76
433.08	421.19
433.45	429.18
433.82	437.16
434.19	446.08
434.56	454.77
434.93	463.04
435.30	471.28
435.68	480.35
436.05	489.21
436.42	498.01
436.79	506.10
437.16	514.73
437.53	523.84
437.90	532.99
438.27	541.89
438.64	551.06
439.01	559.52
439.38	566.97
439.75	574.23
440.13	582.52
440.50	590.43
440.87	596.85
441.24	603.46
441.61	610.79
441.98	616.01
442.35	622.26
442.72	628.60
443.09	634.60
443.46	638.23
443.83	640.77
444.20	642.98
444.57	646.13
444.94	647.59
445.31	649.05
445.68	650.38
446.05	650.99
446.42	650.22
446.79	649.18
447.16	648.16
447.53	647.40
447.90	644.14
448.27	640.90
448.64	636.18
449.01	632.91
449.37	627.02
449.74	621.40
450.11	614.53
450.48	607.12
450.85	599.72
451.22	593.29
451.59	587.17
451.96	581.40
452.33	573.56
452.70	566.50
453.07	558.10
453.43	549.57
453.80	541.29
454.17	533.38
454.54	525.90
454.91	517.74
455.28	509.77
455.65	502.41
456.02	494.90
456.38	488.73
456.75	480.91
457.12	474.38
457.49	467.86
457.86	461.74
458.23	456.41
458.59	450.51
458.96	444.56
459.33	439.35
459.70	434.04
460.07	429.80
460.43	424.94
460.80	420.40
461.17	416.41
461.54	412.21
461.91	408.19
462.27	404.12
462.64	400.72
463.01	396.98
463.38	393.29
463.74	389.64
464.11	386.37
464.48	383.52
464.85	380.43
465.21	378.07
465.58	375.42
465.95	372.32
466.32	369.71
466.68	367.18
467.05	364.59
467.42	362.00
467.78	359.39
468.15	356.83
468.52	354.92
468.88	352.43
469.25	350.28
469.62	348.53
469.98	346.59
470.35	344.85
470.72	343.18
471.08	341.39
471.45	339.89
471.82	338.37
472.18	336.72
472.55	335.54
472.92	334.15
473.28	332.97
473.65	331.90
474.02	330.80
474.38	329.90
474.75	329.10
475.11	328.36
475.48	327.76
475.85	327.32
476.21	326.82
476.58	326.51
476.94	326.25
477.31	325.96
477.67	325.73
478.04	325.56
478.41	325.54
478.77	325.75
479.14	325.72
479.50	325.86
479.87	326.21
480.23	326.54
480.60	326.74
480.96	327.02
481.33	327.57
481.69	328.18
482.06	328.71
482.42	329.22
482.79	329.81
483.15	330.58
483.52	331.53
483.88	332.47
484.25	333.44
484.61	334.47
484.98	335.50
485.34	336.80
485.71	338.21
486.07	339.63
486.44	340.95
486.80	342.55
487.17	344.20
487.53	345.97
487.90	347.84
488.26	349.96
488.62	352.18
488.99	354.22
489.35	356.37
489.72	358.75
490.08	361.30
490.44	363.85
490.81	366.60
491.17	369.34
491.54	372.24
491.90	375.27
492.26	378.60
492.63	381.99
492.99	385.52
493.36	389.25
493.72	393.16
494.08	397.19
494.45	401.47
494.81	405.87
495.17	410.32
495.54	415.02
495.90	419.84
496.26	424.79
496.63	430.02
496.99	435.47
497.35	441.06
497.72	446.90
498.08	452.88
498.44	459.05
498.80	465.53
499.17	472.14
499.53	478.83
499.89	485.72
500.26	492.83
500.62	499.93
500.98	507.34
501.34	514.83
501.71	522.63
502.07	530.45
502.43	538.55
502.79	546.76
503.16	555.24
503.52	563.81
503.88	572.55
504.24	581.60
504.60	590.70
504.97	599.98
505.33	609.30
505.69	619.18
506.05	629.08
506.41	638.99
506.78	649.10
507.14	659.51
507.50	670.00
507.86	680.74
508.22	691.57
508.59	702.30
508.95	713.40
509.31	724.74
509.67	736.28
510.03	747.82
510.39	759.69
510.75	771.63
511.12	783.71
511.48	795.90
511.84	808.27
512.20	820.78
512.56	833.58
512.92	846.47
513.28	859.23
513.64	872.14
514.00	885.00
514.37	898.05
514.73	911.17
515.09	924.34
515.45	937.33
515.81	950.49
516.17	964.04
516.53	977.50
516.89	990.70
517.25	1004.04
517.61	1017.63
517.97	1031.10
518.33	1044.25
518.69	1057.91
519.05	1071.78
519.41	1085.54
519.77	1099.46
520.13	1112.93
520.49	1126.26
520.85	1139.87
521.21	1153.28
521.57	1167.19
521.93	1180.30
522.29	1194.19
522.65	1207.90
523.01	1221.70
523.37	1234.95
523.73	1248.35
524.09	1261.59
524.45	1275.23
524.81	1288.82
525.17	1302.19
525.53	1315.53
525.89	1329.11
526.25	1342.32
526.61	1355.29
526.97	1368.43
527.33	1381.46
527.68	1394.94
528.04	1408.56
528.40	1421.68
528.76	1435.12
529.12	1447.98
529.48	1461.52
529.84	1473.82
530.20	1486.77
530.56	1499.40
530.91	1512.92
531.27	1526.05
531.63	1538.85
531.99	1551.64
532.35	1563.96
532.71	1576.41
533.07	1589.47
533.42	1601.81
533.78	1614.02
534.14	1626.12
534.50	1637.49
534.86	1649.29
535.21	1660.14
535.57	1671.63
535.93	1683.00
536.29	1694.22
536.65	1705.91
537.00	1716.90
537.36	1728.48
537.72	1739.39
538.08	1750.91
538.44	1761.81
538.79	1772.74
539.15	1783.88
539.51	1794.72
539.87	1806.16
540.22	1817.16
540.58	1828.18
540.94	1839.08
541.29	1849.48
541.65	1859.35
542.01	1869.90
542.37	1879.98
542.72	1890.38
543.08	1900.20
543.44	1910.74
543.79	1920.04
544.15	1929.48
544.51	1939.55
544.87	1949.48
545.22	1958.78
545.58	1967.72
545.94	1976.68
546.29	1985.28
546.65	1993.62
547.01	2001.89
547.36	2009.42
547.72	2017.27
548.07	2024.82
548.43	2032.55
548.79	2040.43
549.14	2048.66
549.50	2057.23
549.86	2065.14
550.21	2072.57
550.57	2080.32
550.92	2087.10
551.28	2094.60
551.64	2101.87
551.99	2109.47
552.35	2116.62
552.70	2123.55
553.06	2130.25
553.41	2136.65
553.77	2143.16
554.13	2149.53
554.48	2156.71
554.84	2164.00
555.19	2170.55
555.55	2176.99
555.90	2183.39
556.26	2190.21
556.61	2196.27
556.97	2200.93
557.32	2206.76
557.68	2213.29
558.03	2219.13
558.39	2224.57
558.74	2230.69
559.10	2236.35
559.45	2241.83
559.81	2247.40
560.16	2253.01
560.52	2258.88
560.87	2265.24
561.23	2271.24
561.58	2277.97
561.94	2283.20
562.29	2287.95
562.64	2294.11
563.00	2299.87
563.35	2305.55
563.71	2311.37
564.06	2317.09
564.42	2323.30
564.77	2328.44
565.12	2333.80
565.48	2338.91
565.83	2344.58
566.19	2349.87
566.54	2355.30
566.89	2360.08
567.25	2364.79
567.60	2370.54
567.96	2375.74
568.31	2380.45
568.66	2384.85
569.02	2388.95
569.37	2392.80
569.72	2397.34
570.08	2400.85
570.43	2404.05
570.78	2407.20
571.14	2409.78
571.49	2413.01
571.84	2416.54
572.20	2419.52
572.55	2422.50
572.90	2425.01
573.26	2427.77
573.61	2430.58
573.96	2432.89
574.31	2435.04
574.67	2437.06
575.02	2437.90
575.37	2439.55
575.72	2440.26
576.08	2441.77
576.43	2441.78
576.78	2442.24
577.13	2443.79
577.49	2445.10
577.84	2446.08
578.19	2447.42
578.54	2448.14
578.90	2448.85
579.25	2448.88
579.60	2448.92
579.95	2448.23
580.30	2448.26
580.66	2447.69
581.01	2446.15
581.36	2443.75
581.71	2442.33
582.06	2441.16
582.42	2440.53
582.77	2438.27
583.12	2436.70
583.47	2435.41
583.82	2434.94
584.17	2433.80
584.53	2431.70
584.88	2429.47
585.23	2427.72
585.58	2425.46
585.93	2423.44
586.28	2421.34
586.63	2418.81
586.98	2416.58
587.34	2414.61
587.69	2412.18
588.04	2410.23
588.39	2408.81
588.74	2406.40
589.09	2403.70
589.44	2400.65
589.79	2398.06
590.14	2396.20
590.49	2393.51
590.84	2389.69
591.19	2386.75
591.54	2383.48
591.89	2379.52
592.25	2376.55
592.60	2372.35
592.95	2368.30
593.30	2364.26
593.65	2360.10
594.00	2355.81
594.35	2352.91
594.70	2348.30
595.05	2343.93
595.40	2338.37
595.75	2332.50
596.10	2328.77
596.45	2323.91
596.80	2319.25
597.15	2314.10
597.50	2307.94
597.85	2303.03
598.19	2297.80
598.54	2291.95
598.89	2286.65
599.24	2282.15
599.59	2275.94
599.94	2270.15
600.29	2264.22
600.64	2258.28
600.99	2251.29
601.34	2245.70
601.69	2238.64
602.04	2232.25
602.39	2225.48
602.74	2219.50
603.08	2214.01
603.43	2207.46
603.78	2200.60
604.13	2193.60
604.48	2186.30
604.83	2180.39
605.18	2174.13
605.53	2167.15
605.87	2160.03
606.22	2153.26
606.57	2145.26
606.92	2137.16
607.27	2130.13
607.62	2123.43
607.96	2116.37
608.31	2110.00
608.66	2102.13
609.01	2094.43
609.36	2087.22
609.70	2079.55
610.05	2071.60
610.40	2063.20
610.75	2054.92
611.10	2047.16
611.44	2038.22
611.79	2029.36
612.14	2019.20
612.49	2008.39
612.83	1998.98
613.18	1989.55
613.53	1980.26
613.88	1970.65
614.22	1961.97
614.57	1952.14
614.92	1941.50
615.27	1931.04
615.61	1920.67
615.96	1911.03
616.31	1901.45
616.65	1891.90
617.00	1882.04
617.35	1872.28
617.70	1862.40
618.04	1852.39
618.39	1842.23
618.74	1832.56
619.08	1822.77
619.43	1814.18
619.78	1805.84
620.12	1797.08
620.47	1787.41
620.82	1776.79
621.16	1766.88
621.51	1756.96
621.85	1746.98
622.20	1736.51
622.55	1725.98
622.89	1715.98
623.24	1706.16
623.59	1696.12
623.93	1686.01
624.28	1676.10
624.62	1665.86
624.97	1655.59
625.32	1645.52
625.66	1636.42
626.01	1627.45
626.35	1618.03
626.70	1607.68
627.04	1597.52
627.39	1587.35
627.73	1577.97
628.08	1568.94
628.43	1559.28
628.77	1549.91
629.12	1540.87
629.46	1532.85
629.81	1524.31
630.15	1514.72
630.50	1504.73
630.84	1494.16
631.19	1483.99
631.53	1474.58
631.88	1464.41
632.22	1454.25
632.57	1444.83
632.91	1434.57
633.26	1424.51
633.60	1414.77
633.95	1405.38
634.29	1395.82
634.64	1386.33
634.98	1376.21
635.32	1366.83
635.67	1358.31
636.01	1348.79
636.36	1338.87
636.70	1329.23
637.05	1319.74
637.39	1310.78
637.73	1302.05
638.08	1294.39
638.42	1286.26
638.77	1277.37
639.11	1268.93
639.45	1261.05
639.80	1252.46
640.14	1243.68
640.49	1234.78
640.83	1225.96
641.17	1217.73
641.52	1209.34
641.86	1200.67
642.20	1192.76
642.55	1183.93
642.89	1174.81
643.23	1166.17
643.58	1157.99
643.92	1148.89
644.26	1140.12
644.61	1131.47
644.95	1122.60
645.29	1113.31
645.64	1103.95
645.98	1095.27
646.32	1087.22
646.66	1078.61
647.01	1070.05
647.35	1061.74
647.69	1053.27
648.04	1044.80
648.38	1035.79
648.72	1026.96
649.06	1018.43
649.41	1010.12
649.75	1002.21
650.09	994.30
650.43	986.08
650.78	977.65
651.12	969.89
651.46	962.30
651.80	954.90
652.14	947.51
652.49	939.82
652.83	932.38
653.17	924.62
653.51	916.93
653.85	909.50
654.20	902.22
654.54	894.62
654.88	887.26
655.22	879.89
655.56	872.80
655.90	865.91
656.25	859.13
656.59	852.08
656.93	844.98
657.27	837.66
657.61	830.63
657.95	824.43
658.29	818.37
658.64	812.23
658.98	805.75
659.32	799.12
659.66	792.81
660.00	786.42
660.34	780.28
660.68	774.04
661.02	767.64
661.36	761.56
661.70	755.80
662.05	750.16
662.39	744.66
662.73	739.17
663.07	733.69
663.41	727.99
663.75	722.25
664.09	716.44
664.43	711.05
664.77	705.68
665.11	699.82
665.45	693.82
665.79	687.89
666.13	682.15
666.47	676.57
666.81	671.04
667.15	665.58
667.49	660.26
667.83	654.92
668.17	649.59
668.51	644.36
668.85	639.35
669.19	634.33
669.53	629.26
669.87	624.01
670.21	619.19
670.55	614.42
670.89	609.88
671.23	605.52
671.57	600.99
671.91	596.63
672.25	592.41
672.58	588.27
672.92	584.18
673.26	580.09
673.60	576.17
673.94	572.30
674.28	568.59
674.62	564.89
674.96	561.10
675.30	557.57
675.64	553.88
675.97	550.15
676.31	546.47
676.65	542.82
676.99	539.44
677.33	535.57
677.67	531.90
678.01	528.08
678.34	524.41
678.68	520.84
679.02	517.15
679.36	513.36
679.70	509.60
680.04	505.99
680.37	502.52
680.71	499.12
681.05	495.92
681.39	492.62
681.73	489.40
682.06	486.36
682.40	483.21
682.74	479.95
683.08	476.72
683.42	473.54
683.75	470.48
684.09	467.31
684.43	464.46
684.77	461.45
685.10	458.52
685.44	455.52
685.78	452.53
686.12	449.72
686.45	446.96
686.79	444.33
687.13	441.79
687.46	439.17
687.80	436.51
688.14	433.65
688.48	430.99
688.81	428.26
689.15	425.61
689.49	423.03
689.82	420.51
690.16	417.92
690.50	415.42
690.83	412.85
691.17	410.34
691.51	407.82
691.84	405.52
692.18	403.27
692.52	401.03
692.85	398.89
693.19	396.74
693.52	394.59
693.86	392.35
694.20	390.09
694.53	387.89
694.87	385.61
695.21	383.44
695.54	381.28
695.88	379.06
696.21	376.82
696.55	374.66
696.88	372.59
697.22	370.62
697.56	368.72
697.89	366.85
698.23	365.03
698.56	363.24
698.90	361.50
699.23	359.60
699.57	357.78
699.90	355.92
700.24	354.07
700.58	352.30
700.91	350.59
701.25	349.02
701.58	347.40
701.92	345.82
702.25	344.19
702.59	342.50
702.92	340.99
703.26	339.41
703.59	337.90
703.93	336.61
704.26	335.12
704.60	333.60
704.93	332.09
705.26	330.63
705.60	329.11
705.93	327.52
706.27	326.17
706.60	324.81
706.94	323.59
707.27	322.20
707.61	320.85
707.94	319.47
708.27	317.90
708.61	316.44
708.94	314.99
709.28	313.68
709.61	312.46
709.94	311.21
710.28	310.01
710.61	308.85
710.95	307.35
711.28	306.25
711.61	305.05
711.95	303.92
712.28	302.67
712.61	301.53
712.95	300.46
713.28	299.43
713.61	298.27
713.95	297.08
714.28	296.09
714.61	295.02
714.95	293.97
715.28	292.99
715.61	291.96
715.95	291.03
716.28	290.03
716.61	289.03
716.95	288.02
717.28	287.07
717.61	286.06
717.94	285.19
718.28	284.15
718.61	283.29
718.94	282.35
719.27	281.54
719.61	280.70
719.94	279.84
720.27	278.83
720.60	277.97
720.94	277.19
721.27	276.38
721.60	275.68
721.93	275.02
722.27	274.38
722.60	273.74
722.93	273.02
723.26	272.39
723.59	271.72
723.93	271.10
724.26	270.43
724.59	269.80
724.92	269.19
725.25	268.66
725.59	268.02
725.92	267.48
726.25	266.90
726.58	266.29
726.91	265.68
727.24	265.16
727.57	264.62
727.91	264.02
728.24	263.49
728.57	262.88
728.90	262.27
729.23	261.65
729.56	261.17
729.89	260.63
730.22	260.06
730.55	259.51
730.89	258.96
731.22	258.45
731.55	257.92
731.88	257.40
732.21	256.88
732.54	256.36
732.87	255.87
733.20	255.37
733.53	254.88
733.86	254.42
734.19	253.93
734.52	253.50
734.85	253.18
735.18	252.66
735.51	252.28
735.84	251.83
736.17	251.43
736.50	250.89
736.83	250.74
737.16	250.36
737.49	250.00
737.82	249.61
738.15	249.26
738.48	248.87
738.81	248.46
739.14	248.03
739.47	247.65
739.80	247.25
740.13	246.91
740.46	246.55
740.79	246.15
741.12	245.79
741.45	245.39
741.78	244.94
742.11	244.66
742.44	244.25
742.77	243.96
743.10	243.58
743.43	243.26
743.75	242.68
744.08	242.62
744.41	242.23
744.74	241.85
745.07	241.46
745.40	241.16
745.73	240.93
746.06	240.64
746.39	240.34
746.71	240.01
747.04	239.65
747.37	239.33
747.70	239.11
748.03	238.82
748.36	238.55
748.68	238.23
749.01	237.91
749.34	237.62
749.67	237.30
750.00	237.06
750.33	236.95
750.65	236.69
750.98	236.10
751.31	235.81
751.64	235.59
751.97	235.47
752.29	235.22
752.62	234.87
752.95	234.58
753.28	234.29
753.60	234.02
753.93	233.83
754.26	233.61
754.59	233.30
754.91	233.02
755.24	232.77
755.57	232.55
755.90	232.29
756.22	232.06
756.55	231.86
756.88	231.60
757.20	231.22
757.53	231.00
757.86	230.84
758.19	230.74
758.51	230.54
758.84	230.21
759.17	230.01
759.49	229.83
759.82	229.75
760.15	229.58
760.47	229.42
760.80	229.21
761.13	229.05
761.45	228.87
761.78	228.72
762.11	228.58
762.43	228.39
762.76	228.22
763.08	228.05
763.41	227.87
763.74	227.76
764.06	227.63
764.39	227.42
764.71	227.24
765.04	227.03
765.37	226.87
765.69	226.73
766.02	226.55
766.34	226.42
766.67	226.19
767.00	226.11
767.32	226.08
767.65	226.04
767.97	225.85
768.30	225.72
768.62	225.57
768.95	225.40
769.27	225.29
769.60	225.19
769.92	225.06
770.25	224.92
770.57	224.73
770.90	224.63
771.22	224.50
771.55	224.40
771.87	224.28
772.20	224.13
772.52	224.17
772.85	224.35
773.17	224.19
773.50	224.09
773.82	223.95
774.15	223.72
774.47	223.49
774.80	223.38
775.12	223.25
775.45	223.14
775.77	223.10
776.09	223.01
776.42	222.93
776.74	222.90
777.07	222.80
777.39	222.72
777.72	222.58
778.04	222.53
778.36	222.43
778.69	222.38
779.01	222.32
779.33	222.08
779.66	221.73
779.98	221.67
780.31	221.60
780.63	221.61
780.95	221.58
781.28	221.52
781.60	221.48
781.92	221.41
782.25	221.37
782.57	221.28
782.89	221.19
783.22	221.10
783.54	220.99
783.86	220.93
784.19	220.84
784.51	220.87
784.83	220.73
785.16	220.67
785.48	220.62
785.80	220.57
786.12	220.52
786.45	220.47
786.77	220.44
787.09	220.36
787.42	220.20
787.74	220.15
788.06	220.07
788.38	219.98
788.71	219.94
789.03	219.88
789.35	219.84
789.67	219.75
789.99	219.74
790.32	219.67
790.64	219.64
790.96	219.79
791.28	219.63
791.61	219.60
791.93	219.57
792.25	219.46
792.57	219.57
792.89	219.50
793.21	219.44
793.54	219.36
793.86	219.29
794.18	219.26
794.50	219.16
794.82	219.13
795.14	219.10
795.47	219.07
795.79	219.01
796.11	218.92
796.43	218.92
796.75	218.86
797.07	218.83
797.39	218.77
797.71	218.54
798.04	218.51
798.36	218.48
798.68	218.41
799.00	218.40
799.32	218.25
799.64	218.23
799.96	218.22
800.28	218.21
800.60	218.20
800.92	218.15
801.24	218.14
801.56	218.14
801.89	218.09
802.21	218.08
802.53	218.03
802.85	218.02
803.17	218.07
803.49	217.97
803.81	217.92
804.13	217.88
804.45	217.85
804.77	217.86
805.09	217.88
805.41	217.81
805.73	217.77
806.05	217.66
806.37	217.64
806.69	217.56
807.01	217.54
807.33	217.49
807.65	217.44
807.97	217.50
808.28	217.44
808.60	217.43
808.92	217.39
809.24	217.49
809.56	217.43
809.88	217.35
810.20	217.34
810.52	217.39
810.84	217.36
811.16	217.30
811.48	217.28
811.80	217.31
812.12	217.31
812.43	217.31
812.75	217.30
813.07	217.23
813.39	217.23
813.71	217.17
814.03	217.12
814.35	217.11
814.67	217.00
814.98	216.98
815.30	216.93
815.62	216.88
815.94	216.73
816.26	216.74
816.58	216.66
816.89	216.67
817.21	216.58
817.53	216.56
817.85	216.55
818.17	216.50
818.48	216.39
818.80	216.40
819.12	216.36
819.44	216.33
819.76	216.30
820.07	216.27
820.39	216.25
820.71	216.28
821.03	216.24
821.34	216.23
821.66	216.23
821.98	216.22
822.30	216.22
822.61	216.32
822.93	216.26
823.25	216.25
823.57	216.21
823.88	216.21
824.20	216.23
824.52	216.23
824.83	216.23
825.15	216.18
825.47	216.16
825.79	216.18
826.10	216.16
826.42	216.15
826.74	216.17
827.05	216.18
827.37	216.16
827.69	216.17
828.00	216.16
828.32	216.13
828.64	216.09
828.95	216.15
829.27	216.09
829.58	216.08
829.90	216.11
830.22	216.14
830.53	216.08
830.85	216.05
831.17	216.01
831.48	215.99
831.80	216.00
832.11	215.97
832.43	215.89
832.75	215.88
833.06	215.99
833.38	215.91
833.69	215.88
834.01	215.86
834.32	215.83
834.64	215.79
834.96	215.81
835.27	215.84
835.59	215.77
835.90	215.70
836.22	215.70
836.53	215.64
836.85	215.60
837.16	215.81
837.48	215.79
837.79	215.84
838.11	215.87
838.42	215.86
838.74	215.89
839.05	215.87
839.37	215.86
839.68	215.74
840.00	215.74
840.31	215.77
840.63	215.75
840.94	215.72
841.26	215.70
841.57	215.66
841.88	215.64
842.20	215.62
842.51	215.62
842.83	215.62
843.14	215.82
843.46	215.80
843.77	215.70
844.08	215.68
844.40	215.62
844.71	215.58
845.03	215.58
845.34	215.53
845.65	215.53
845.97	215.56
846.28	215.57
846.60	215.59
846.91	215.53
847.22	215.53
847.54	215.58
847.85	215.61
848.16	215.62
848.48	215.58
848.79	215.64
849.10	215.66
849.42	215.66
849.73	215.44
850.04	215.44
850.36	215.34
850.67	215.35
850.98	215.32
851.30	215.33
851.61	215.32
851.92	215.33
852.23	215.40
852.55	215.39
852.86	215.36
853.17	215.40
853.49	215.44
853.80	215.49
854.11	215.50
854.42	215.49
854.74	215.43
855.05	215.40
855.36	215.32
855.67	215.30
855.99	215.30
856.30	215.53
856.61	215.53
856.92	215.54
857.23	215.53
857.55	215.55
857.86	215.53
858.17	215.57
858.48	215.50
858.79	215.43
859.11	215.44
859.42	215.42
859.73	215.35
860.04	215.32
860.35	215.25
860.66	215.13
860.98	215.12
861.29	215.17
861.60	215.21
861.91	215.22
862.22	215.22
862.53	215.18
862.84	214.94
863.16	214.99
863.47	214.93
863.78	214.92
864.09	214.92
864.40	214.92
864.71	214.88
865.02	214.91
865.33	214.91
865.64	214.85
865.95	214.89
866.27	215.05
866.58	215.07
866.89	215.10
867.20	215.13
867.51	215.11
867.82	215.09
868.13	215.10
868.44	215.07
868.75	215.10
869.06	215.12
869.37	215.14
869.68	215.04
869.99	215.11
870.30	215.13
870.61	215.17
870.92	215.14
871.23	215.12
871.54	215.16
871.85	215.22
872.16	215.23
872.47	215.22
872.78	215.07
873.09	215.05
873.40	215.03
873.71	215.05
874.02	215.09
874.33	215.10
874.64	215.05
874.95	215.05
875.26	214.99
875.56	214.99
875.87	214.99
876.18	214.98
876.49	215.17
876.80	215.11
877.11	215.06
877.42	215.08
877.73	215.11
878.04	215.07
878.35	215.05
878.66	215.08
878.96	215.06
879.27	215.05
879.58	215.04
879.89	215.04
880.20	215.10
880.51	215.04
880.82	215.03
881.12	215.06
881.43	215.06
881.74	215.03
882.05	214.99
882.36	214.98
882.67	215.02
882.97	214.81
883.28	214.82
883.59	214.82
883.90	214.84
884.21	214.83
884.51	214.85
884.82	214.84
885.13	214.83
885.44	214.84
885.74	214.83
886.05	214.82
886.36	214.80
886.67	214.72
886.98	214.81
887.28	214.84
887.59	214.83
887.90	214.82
888.20	214.83
888.51	214.90
888.82	214.89
889.13	214.89
889.43	215.08
889.74	215.05
890.05	214.99
890.35	214.97
890.66	214.96
890.97	214.92
891.28	214.89
891.58	214.88
891.89	214.87
892.20	214.84
892.50	214.84
892.81	214.82
893.12	214.83
893.42	214.74
893.73	214.75
894.04	214.75
894.34	214.77
894.65	214.76
894.95	214.73
895.26	214.75
895.57	214.84
895.87	214.63
896.18	214.70
896.48	214.75
896.79	214.75
897.10	214.77
897.40	214.80
897.71	214.82
898.01	214.79
898.32	214.80
898.63	214.83
898.93	214.84
899.24	214.86
899.54	214.82
899.85	214.84
900.15	214.79
900.46	214.79
900.76	214.82
901.07	214.82
901.38	214.83
901.68	214.83
901.99	214.73
902.29	214.75
902.60	214.73
902.90	214.69
903.21	214.68
903.51	214.68
903.82	214.69
904.12	214.68
904.43	214.70
904.73	214.69
905.03	214.65
905.34	214.79
905.64	214.75
905.95	214.77
906.25	214.74
906.56	214.76
906.86	214.75
907.17	214.71
907.47	214.72
907.77	214.68
908.08	214.62
908.38	214.62
908.69	214.63
908.99	214.67
909.30	214.71
909.60	214.70
909.90	214.72
910.21	214.68
910.51	214.67
910.81	214.69
911.12	214.72
911.42	214.77
911.73	214.60
912.03	214.64
912.33	214.67
912.64	214.69
912.94	214.69
913.24	214.66
913.55	214.64
913.85	214.61
914.15	214.71
914.46	214.75
914.76	214.74
915.06	214.71
915.37	214.66
915.67	214.66
915.97	214.66
916.27	214.59
916.58	214.60
916.88	214.59
917.18	214.54
917.49	214.69
917.79	214.66
918.09	214.68
918.39	214.72
918.70	214.71
919.00	214.70
919.30	214.78
919.60	214.80
919.91	214.79
920.21	214.81
920.51	214.74
920.81	214.72
921.12	214.73
921.42	214.73
921.72	214.77
922.02	214.72
922.32	214.77
922.63	214.79
922.93	214.89
923.23	214.89
923.53	214.88
923.83	214.74
924.13	214.78
924.44	214.80
924.74	214.82
925.04	214.88
925.34	214.86
925.64	214.76
925.94	214.73
926.24	214.85
926.55	214.86
926.85	214.89
927.15	214.91
927.45	214.92
927.75	214.92
928.05	214.90
928.35	214.90
928.65	214.91
928.95	214.91
929.26	214.83
929.56	214.90
929.86	214.95
930.16	214.93
930.46	214.88
930.76	214.89
931.06	214.79
931.36	214.72
931.66	214.77
931.96	214.80
932.26	214.86
932.56	214.76
932.86	214.77
933.16	214.78
933.46	214.74
933.76	214.70
934.06	214.78
934.36	214.87
934.66	214.90
934.96	214.88
935.26	214.88
935.56	214.90
935.86	214.84
936.16	214.78
936.46	214.75
936.76	214.75
937.06	214.73
937.36	214.75
937.66	214.79
937.96	214.76
938.26	214.71
938.56	214.67
938.86	214.69
939.16	214.71
939.46	214.69
939.76	214.71
940.06	214.76
940.35	214.69
940.65	214.56
940.95	214.56
941.25	214.49
941.55	214.47
941.85	214.42
942.15	214.46
942.45	214.53
942.75	214.55
943.04	214.54
943.34	214.56
943.64	214.56
943.94	214.52
944.24	214.51
944.54	214.54
944.84	214.52
945.13	214.47
945.43	214.44
945.73	214.44
946.03	214.39
946.33	214.33
946.62	214.31
946.92	214.29
947.22	214.28
947.52	214.32
947.82	214.36
948.11	214.36
948.41	214.32
948.71	214.27
949.01	214.26
949.31	214.26
949.60	214.26
949.90	214.25
950.20	214.25
950.50	214.26
950.79	214.20
951.09	214.23
951.39	214.23
951.69	214.18
951.98	214.23
952.28	214.27
952.58	214.27
952.87	214.25
953.17	214.29
953.47	214.26
953.76	214.29
954.06	214.24
954.36	214.21
954.66	214.20
954.95	214.25
955.25	214.30
955.55	214.32
955.84	214.28
956.14	214.31
956.44	214.32
956.73	214.30
957.03	214.32
957.32	214.31
957.62	214.34
957.92	214.40
958.21	214.38
958.51	214.62
958.81	214.68
959.10	214.73
959.40	214.78
959.69	214.82
959.99	214.80
960.29	214.81
960.58	214.81
960.88	214.92
961.17	214.88
961.47	214.89
961.76	214.85
962.06	214.89
962.36	214.88
962.65	214.89
962.95	214.92
963.24	214.93
963.54	214.94
963.83	214.94
964.13	214.93
964.42	214.86
964.72	214.70
965.01	214.69
965.31	214.66
965.60	214.61
965.90	214.73
966.19	214.71
966.49	214.71
966.78	214.69
967.08	214.65
967.37	214.66
967.67	214.58
967.96	214.63
968.26	214.59
968.55	214.58
968.85	214.57
969.14	214.55
969.43	214.55
969.73	214.55
970.02	214.50
970.32	214.50
970.61	214.48
970.91	214.41
971.20	214.37
971.49	214.38
971.79	214.40
972.08	214.25
972.38	214.27
972.67	214.27
972.96	214.31
973.26	214.24
973.55	214.32
973.85	214.32
974.14	214.29
974.43	214.37
974.73	214.33
975.02	214.32
975.31	214.30
975.61	214.30
975.90	214.30
976.19	214.30
976.49	214.30
976.78	214.37
977.07	214.36
977.37	214.38
977.66	214.39
977.95	214.38
978.24	214.41
978.54	214.44
978.83	214.42
979.12	214.41
979.42	214.42
979.71	214.36
980.00	214.37
980.29	214.35
980.59	214.28
980.88	214.36
981.17	214.36
981.46	214.36
981.76	214.35
982.05	214.39
982.34	214.42
982.63	214.44
982.93	214.39
983.22	214.46
983.51	214.44
983.80	214.46
984.09	214.48
984.39	214.47
984.68	214.43
984.97	214.46
985.26	214.45
985.55	214.47
985.85	214.44
986.14	214.47
986.43	214.54
986.72	214.54
987.01	214.50
987.30	214.49
987.59	214.50
987.89	214.50
988.18	214.44
988.47	214.41
988.76	214.41
989.05	214.42
989.34	214.34
989.63	214.42
989.92	214.39
990.22	214.34
990.51	214.37
990.80	214.39
991.09	214.39
991.38	214.41
991.67	214.41
991.96	214.39
992.25	214.39
992.54	214.35
992.83	214.33
993.12	214.30
993.41	214.34
993.70	214.43
993.99	214.48
994.28	214.50
994.58	214.53
994.87	214.50
995.16	214.49
995.45	214.51
995.74	214.38
996.03	214.43
996.32	214.45
996.61	214.49
996.90	214.44
997.19	214.44
997.48	214.46
997.77	214.43
998.06	214.45
998.34	214.44
998.63	214.42
998.92	214.47
999.21	214.52
999.50	214.50
999.79	214.43
1000.08	214.42
1000.37	214.41
1000.66	214.42
1000.95	214.44
1001.24	214.46
1001.53	214.47
1001.82	214.53
1002.11	214.46
1002.40	214.49
1002.68	214.51
1002.97	214.69
1003.26	214.64
1003.55	214.61
1003.84	214.64
1004.13	214.68
1004.42	214.66
1004.71	214.67
1004.99	214.64
1005.28	214.69
1005.57	214.69
1005.86	214.66
1006.15	214.61
1006.44	214.59
1006.72	214.62
1007.01	214.60
1007.30	214.58
1007.59	214.55
1007.88	214.54
1008.17	214.58
1008.45	214.56
1008.74	214.48
1009.03	214.36
1009.32	214.35
1009.60	214.37
1009.89	214.38
1010.18	214.30
1010.47	214.31
1010.76	214.30
1011.04	214.26
1011.33	214.26
1011.62	214.28
1011.91	214.29
1012.19	214.35
1012.48	214.37
1012.77	214.33
1013.05	214.39
1013.34	214.43
1013.63	214.43
1013.92	214.43
1014.20	214.40
1014.49	214.39
1014.78	214.40
1015.06	214.34
1015.35	214.33
1015.64	214.32
1015.92	214.29
1016.21	214.30
1016.50	214.32
1016.78	214.33
1017.07	214.36
1017.36	214.32
1017.64	214.28
1017.93	214.30
1018.22	214.27
1018.50	214.28
1018.79	214.32
1019.08	214.25
1019.36	214.19
1019.65	214.18
1019.93	214.24
1020.22	214.27
1020.51	214.40
1020.79	214.39
1021.08	214.31
1021.36	214.29
1021.65	215.12
1021.94	214.17
1022.22	213.33
1022.51	213.95
1022.79	215.36
1023.08	214.66
1023.36	217.32
1023.65	213.97
>>>>>End Processed Spectral Data<<<<<
