SpectraSuite Data File
++++++++++++++++++++++++++++++++++++
Date: Tue Jan 29 16:13:11 EST 2013
User: group
Dark Spectrum Present: No
Reference Spectrum Present: No
Number of Sampled Component Spectra: 1
Spectrometers: USB2E7196
Integration Time (usec): 65000 (USB2E7196)
Spectra Averaged: 100 (USB2E7196)
Boxcar Smoothing: 10 (USB2E7196)
Correct for Electrical Dark: No (USB2E7196)
Strobe/Lamp Enabled: No (USB2E7196)
Correct for Detector Non-linearity: No (USB2E7196)
Correct for Stray Light: No (USB2E7196)
Number of Pixels in Processed Spectrum: 2048
>>>>>Begin Processed Spectral Data<<<<<
339.09	0.00
339.48	202.85
339.86	203.67
340.24	205.51
340.63	207.15
341.01	211.28
341.39	209.80
341.78	211.35
342.16	212.61
342.54	212.47
342.93	201.64
343.31	211.84
343.69	212.35
344.07	212.84
344.46	213.29
344.84	213.67
345.22	213.84
345.60	214.09
345.99	214.29
346.37	214.40
346.75	214.51
347.13	214.58
347.52	214.66
347.90	214.83
348.28	214.89
348.66	214.97
349.05	214.97
349.43	215.05
349.81	215.13
350.19	215.21
350.57	215.30
350.96	215.40
351.34	215.49
351.72	215.59
352.10	215.68
352.48	215.70
352.87	215.75
353.25	215.80
353.63	215.85
354.01	215.88
354.39	215.99
354.77	216.06
355.15	216.16
355.54	216.24
355.92	216.22
356.30	216.26
356.68	216.45
357.06	216.51
357.44	216.55
357.82	216.57
358.20	216.64
358.58	216.70
358.97	216.75
359.35	216.84
359.73	216.95
360.11	217.03
360.49	217.14
360.87	217.20
361.25	217.30
361.63	217.43
362.01	217.50
362.39	217.49
362.77	217.55
363.15	217.62
363.53	217.63
363.91	217.66
364.29	217.70
364.67	217.52
365.05	217.55
365.43	217.63
365.81	217.69
366.19	217.82
366.57	217.90
366.95	217.90
367.33	217.86
367.71	217.86
368.09	217.87
368.47	217.85
368.85	217.83
369.23	217.87
369.61	217.79
369.99	217.84
370.37	217.87
370.75	217.96
371.13	217.88
371.51	217.86
371.89	217.88
372.27	217.87
372.65	217.87
373.03	217.84
373.41	217.80
373.78	217.76
374.16	217.58
374.54	217.50
374.92	217.43
375.30	217.41
375.68	217.32
376.06	217.28
376.44	217.24
376.82	217.24
377.19	217.16
377.57	217.11
377.95	216.99
378.33	216.93
378.71	216.75
379.09	216.74
379.47	216.71
379.84	216.61
380.22	216.54
380.60	216.46
380.98	216.39
381.36	216.31
381.73	216.24
382.11	216.26
382.49	216.23
382.87	216.23
383.25	216.19
383.62	216.40
384.00	216.33
384.38	216.30
384.76	216.30
385.13	216.34
385.51	216.30
385.89	216.23
386.27	216.20
386.64	216.21
387.02	216.15
387.40	216.14
387.78	216.14
388.15	216.13
388.53	216.12
388.91	216.10
389.29	216.09
389.66	216.06
390.04	216.03
390.42	216.03
390.79	216.01
391.17	216.01
391.55	215.80
391.92	215.78
392.30	215.80
392.68	215.74
393.05	215.72
393.43	215.70
393.81	215.73
394.18	215.70
394.56	215.71
394.94	215.76
395.31	215.72
395.69	215.77
396.06	215.79
396.44	215.82
396.82	215.82
397.19	215.93
397.57	215.95
397.95	215.98
398.32	215.95
398.70	216.00
399.07	216.07
399.45	216.07
399.82	216.11
400.20	216.13
400.58	216.21
400.95	216.16
401.33	216.32
401.70	216.54
402.08	216.64
402.45	216.69
402.83	216.80
403.20	216.94
403.58	217.01
403.95	217.17
404.33	217.31
404.71	217.47
405.08	217.74
405.46	217.90
405.83	218.09
406.21	218.30
406.58	218.52
406.96	218.73
407.33	218.98
407.70	219.28
408.08	219.69
408.45	220.06
408.83	220.47
409.20	220.77
409.58	221.02
409.95	221.48
410.33	221.98
410.70	222.42
411.08	222.96
411.45	223.55
411.82	224.09
412.20	224.75
412.57	225.52
412.95	226.06
413.32	226.89
413.69	227.70
414.07	228.57
414.44	229.49
414.82	230.48
415.19	231.63
415.56	232.80
415.94	233.97
416.31	235.28
416.68	236.61
417.06	238.17
417.43	239.63
417.81	241.30
418.18	243.01
418.55	244.89
418.93	246.83
419.30	248.86
419.67	251.03
420.04	253.23
420.42	255.55
420.79	258.26
421.16	260.94
421.54	263.75
421.91	266.64
422.28	269.64
422.66	272.82
423.03	275.96
423.40	279.22
423.77	282.70
424.15	286.24
424.52	289.93
424.89	293.94
425.26	297.93
425.64	301.65
426.01	305.75
426.38	310.08
426.75	314.47
427.13	319.05
427.50	323.80
427.87	328.84
428.24	333.87
428.61	338.67
428.99	343.99
429.36	349.80
429.73	355.46
430.10	361.12
430.47	366.99
430.85	373.04
431.22	379.47
431.59	386.34
431.96	392.94
432.33	400.15
432.70	407.14
433.08	415.36
433.45	423.16
433.82	430.96
434.19	439.51
434.56	447.88
434.93	455.88
435.30	463.94
435.68	472.72
436.05	481.34
436.42	489.95
436.79	497.84
437.16	506.31
437.53	515.27
437.90	524.12
438.27	532.71
438.64	541.67
439.01	549.93
439.38	557.21
439.75	564.30
440.13	572.50
440.50	580.23
440.87	586.44
441.24	592.88
441.61	599.94
441.98	605.10
442.35	611.22
442.72	617.27
443.09	623.11
443.46	626.77
443.83	629.21
444.20	631.32
444.57	634.29
444.94	635.65
445.31	637.03
445.68	638.35
446.05	638.95
446.42	638.10
446.79	637.24
447.16	636.21
447.53	635.40
447.90	632.14
448.27	628.89
448.64	624.45
449.01	621.19
449.37	615.44
449.74	610.00
450.11	603.38
450.48	596.25
450.85	589.05
451.22	582.78
451.59	576.90
451.96	571.25
452.33	563.73
452.70	556.91
453.07	548.69
453.43	540.39
453.80	532.39
454.17	524.71
454.54	517.38
454.91	509.55
455.28	501.89
455.65	494.74
456.02	487.56
456.38	481.41
456.75	473.89
457.12	467.63
457.49	461.42
457.86	455.48
458.23	450.39
458.59	444.67
458.96	438.93
459.33	433.87
459.70	428.74
460.07	424.65
460.43	419.94
460.80	415.61
461.17	411.76
461.54	407.73
461.91	403.90
462.27	399.94
462.64	396.59
463.01	392.95
463.38	389.41
463.74	385.83
464.11	382.69
464.48	380.00
464.85	376.98
465.21	374.58
465.58	372.01
465.95	368.96
466.32	366.45
466.68	363.88
467.05	361.35
467.42	358.87
467.78	356.31
468.15	353.87
468.52	352.04
468.88	349.63
469.25	347.53
469.62	345.82
469.98	343.94
470.35	342.22
470.72	340.61
471.08	338.87
471.45	337.44
471.82	336.01
472.18	334.37
472.55	333.23
472.92	331.92
473.28	330.74
473.65	329.65
474.02	328.58
474.38	327.79
474.75	327.08
475.11	326.33
475.48	325.80
475.85	325.35
476.21	324.89
476.58	324.59
476.94	324.36
477.31	324.11
477.67	323.87
478.04	323.71
478.41	323.68
478.77	323.89
479.14	323.88
479.50	324.00
479.87	324.27
480.23	324.62
480.60	324.90
480.96	325.22
481.33	325.81
481.69	326.39
482.06	326.90
482.42	327.40
482.79	327.99
483.15	328.76
483.52	329.72
483.88	330.62
484.25	331.56
484.61	332.63
484.98	333.67
485.34	335.02
485.71	336.40
486.07	337.84
486.44	339.12
486.80	340.75
487.17	342.41
487.53	344.24
487.90	346.10
488.26	348.15
488.62	350.26
488.99	352.34
489.35	354.49
489.72	356.85
490.08	359.34
490.44	361.85
490.81	364.56
491.17	367.17
491.54	370.16
491.90	373.23
492.26	376.47
492.63	379.83
492.99	383.29
493.36	386.98
493.72	390.78
494.08	394.75
494.45	398.92
494.81	403.27
495.17	407.69
495.54	412.35
495.90	417.12
496.26	422.03
496.63	427.23
496.99	432.64
497.35	438.21
497.72	444.01
498.08	449.96
498.44	455.99
498.80	462.42
499.17	468.88
499.53	475.53
499.89	482.35
500.26	489.32
500.62	496.37
500.98	503.69
501.34	511.17
501.71	518.98
502.07	526.74
502.43	534.72
502.79	542.82
503.16	551.16
503.52	559.66
503.88	568.34
504.24	577.20
504.60	586.18
504.97	595.39
505.33	604.64
505.69	614.43
506.05	624.24
506.41	634.09
506.78	644.04
507.14	654.20
507.50	664.61
507.86	675.23
508.22	685.90
508.59	696.46
508.95	707.51
509.31	718.63
509.67	729.96
510.03	741.29
510.39	752.96
510.75	764.65
511.12	776.49
511.48	788.51
511.84	800.61
512.20	812.84
512.56	825.32
512.92	838.03
513.28	850.50
513.64	863.15
514.00	875.71
514.37	888.53
514.73	901.52
515.09	914.33
515.45	927.06
515.81	939.87
516.17	953.09
516.53	966.07
516.89	979.04
517.25	992.09
517.61	1005.37
517.97	1018.52
518.33	1031.60
518.69	1045.02
519.05	1058.52
519.41	1072.00
519.77	1085.72
520.13	1098.77
520.49	1111.62
520.85	1124.83
521.21	1137.84
521.57	1151.40
521.93	1164.36
522.29	1177.89
522.65	1191.38
523.01	1204.76
523.37	1217.87
523.73	1230.87
524.09	1243.73
524.45	1256.86
524.81	1270.09
525.17	1283.24
525.53	1296.15
525.89	1309.09
526.25	1321.83
526.61	1334.29
526.97	1347.14
527.33	1359.63
527.68	1372.79
528.04	1386.06
528.40	1398.81
528.76	1411.90
529.12	1424.39
529.48	1437.36
529.84	1449.24
530.20	1461.49
530.56	1473.79
530.91	1486.63
531.27	1499.26
531.63	1511.81
531.99	1524.29
532.35	1536.14
532.71	1548.33
533.07	1560.87
533.42	1572.81
533.78	1584.55
534.14	1596.42
534.50	1607.31
534.86	1618.66
535.21	1629.20
535.57	1640.23
535.93	1651.42
536.29	1662.31
536.65	1673.52
537.00	1684.09
537.36	1695.13
537.72	1705.89
538.08	1716.93
538.44	1727.58
538.79	1738.38
539.15	1748.74
539.51	1759.08
539.87	1770.13
540.22	1780.57
540.58	1791.23
540.94	1801.76
541.29	1811.80
541.65	1821.25
542.01	1831.54
542.37	1841.31
542.72	1851.28
543.08	1860.82
543.44	1870.83
543.79	1879.88
544.15	1889.07
544.51	1898.76
544.87	1908.32
545.22	1917.15
545.58	1925.64
545.94	1934.22
546.29	1942.39
546.65	1950.48
547.01	1958.48
547.36	1965.97
547.72	1973.35
548.07	1980.66
548.43	1988.24
548.79	1995.95
549.14	2003.95
549.50	2012.01
549.86	2019.63
550.21	2026.82
550.57	2034.30
550.92	2040.90
551.28	2048.07
551.64	2055.21
551.99	2062.61
552.35	2069.59
552.70	2076.29
553.06	2082.90
553.41	2088.87
553.77	2095.15
554.13	2101.49
554.48	2108.38
554.84	2115.21
555.19	2121.55
555.55	2127.92
555.90	2133.88
556.26	2140.40
556.61	2146.14
556.97	2150.95
557.32	2156.67
557.68	2162.90
558.03	2168.60
558.39	2173.73
558.74	2179.61
559.10	2184.91
559.45	2190.36
559.81	2195.75
560.16	2201.32
560.52	2207.00
560.87	2213.46
561.23	2219.56
561.58	2226.29
561.94	2231.31
562.29	2236.14
562.64	2242.19
563.00	2247.79
563.35	2253.52
563.71	2259.34
564.06	2265.08
564.42	2270.98
564.77	2276.05
565.12	2281.21
565.48	2286.43
565.83	2292.04
566.19	2297.48
566.54	2303.01
566.89	2307.52
567.25	2312.23
567.60	2317.87
567.96	2323.23
568.31	2327.81
568.66	2331.85
569.02	2335.71
569.37	2339.58
569.72	2343.89
570.08	2347.54
570.43	2350.56
570.78	2353.69
571.14	2356.32
571.49	2359.39
571.84	2363.08
572.20	2365.96
572.55	2369.16
572.90	2371.29
573.26	2374.19
573.61	2376.77
573.96	2378.86
574.31	2381.01
574.67	2382.97
575.02	2384.01
575.37	2385.39
575.72	2386.33
576.08	2388.05
576.43	2388.33
576.78	2389.19
577.13	2391.18
577.49	2392.42
577.84	2393.96
578.19	2395.43
578.54	2396.34
578.90	2397.52
579.25	2397.41
579.60	2397.72
579.95	2397.12
580.30	2397.66
580.66	2397.07
581.01	2395.49
581.36	2393.41
581.71	2392.27
582.06	2391.46
582.42	2390.73
582.77	2388.79
583.12	2387.34
583.47	2386.29
583.82	2385.91
584.17	2384.65
584.53	2382.56
584.88	2380.62
585.23	2378.73
585.58	2376.68
585.93	2374.60
586.28	2372.43
586.63	2370.26
586.98	2368.09
587.34	2366.45
587.69	2364.19
588.04	2362.40
588.39	2361.14
588.74	2358.92
589.09	2356.48
589.44	2353.54
589.79	2351.36
590.14	2349.67
590.49	2346.90
590.84	2343.19
591.19	2340.28
591.54	2337.19
591.89	2333.29
592.25	2330.26
592.60	2326.17
592.95	2322.12
593.30	2318.15
593.65	2313.84
594.00	2309.54
594.35	2306.66
594.70	2302.05
595.05	2297.49
595.40	2292.21
595.75	2286.74
596.10	2283.31
596.45	2278.49
596.80	2274.09
597.15	2268.84
597.50	2263.16
597.85	2258.52
598.19	2253.39
598.54	2247.72
598.89	2242.78
599.24	2238.28
599.59	2232.18
599.94	2226.70
600.29	2221.02
600.64	2215.24
600.99	2208.72
601.34	2203.44
601.69	2196.51
602.04	2190.28
602.39	2183.90
602.74	2177.99
603.08	2172.58
603.43	2166.06
603.78	2159.35
604.13	2152.28
604.48	2145.20
604.83	2139.05
605.18	2132.75
605.53	2125.81
605.87	2118.78
606.22	2112.08
606.57	2104.45
606.92	2096.80
607.27	2089.91
607.62	2083.15
607.96	2076.07
608.31	2069.57
608.66	2061.79
609.01	2054.31
609.36	2047.20
609.70	2039.62
610.05	2031.85
610.40	2023.52
610.75	2015.37
611.10	2007.72
611.44	1998.99
611.79	1990.36
612.14	1980.46
612.49	1969.93
612.83	1960.83
613.18	1951.91
613.53	1942.63
613.88	1932.91
614.22	1924.27
614.57	1914.46
614.92	1904.13
615.27	1894.15
615.61	1884.36
615.96	1874.92
616.31	1865.40
616.65	1856.14
617.00	1846.27
617.35	1836.67
617.70	1826.94
618.04	1816.84
618.39	1806.68
618.74	1797.05
619.08	1787.55
619.43	1778.97
619.78	1770.90
620.12	1762.38
620.47	1752.64
620.82	1742.40
621.16	1732.71
621.51	1722.83
621.85	1712.92
622.20	1702.38
622.55	1691.81
622.89	1681.87
623.24	1672.05
623.59	1662.29
623.93	1652.17
624.28	1642.53
624.62	1632.45
624.97	1622.24
625.32	1612.62
625.66	1603.86
626.01	1594.99
626.35	1585.53
626.70	1575.38
627.04	1565.22
627.39	1554.97
627.73	1545.65
628.08	1536.62
628.43	1527.04
628.77	1517.86
629.12	1509.08
629.46	1501.42
629.81	1493.09
630.15	1483.51
630.50	1473.67
630.84	1463.35
631.19	1453.40
631.53	1443.89
631.88	1433.74
632.22	1423.90
632.57	1414.57
632.91	1404.42
633.26	1394.60
633.60	1385.06
633.95	1375.75
634.29	1366.34
634.64	1357.07
634.98	1347.18
635.32	1337.94
635.67	1329.48
636.01	1320.28
636.36	1310.43
636.70	1300.87
637.05	1291.49
637.39	1282.60
637.73	1274.02
638.08	1266.40
638.42	1258.20
638.77	1249.61
639.11	1241.37
639.45	1233.50
639.80	1224.81
640.14	1216.06
640.49	1207.24
640.83	1198.44
641.17	1190.37
641.52	1182.25
641.86	1173.63
642.20	1165.86
642.55	1157.26
642.89	1148.38
643.23	1139.64
643.58	1131.63
643.92	1122.58
644.26	1114.03
644.61	1105.60
644.95	1096.87
645.29	1087.61
645.64	1078.38
645.98	1069.97
646.32	1062.01
646.66	1053.56
647.01	1045.27
647.35	1037.25
647.69	1028.93
648.04	1020.64
648.38	1011.72
648.72	1002.91
649.06	994.60
649.41	986.47
649.75	978.47
650.09	970.69
650.43	962.72
650.78	954.46
651.12	946.93
651.46	939.64
651.80	932.45
652.14	925.25
652.49	917.81
652.83	910.66
653.17	902.98
653.51	895.47
653.85	888.22
654.20	881.07
654.54	873.54
654.88	866.48
655.22	859.36
655.56	852.51
655.90	845.79
656.25	839.14
656.59	832.16
656.93	825.24
657.27	818.16
657.61	811.38
657.95	805.32
658.29	799.48
658.64	793.25
658.98	786.88
659.32	780.36
659.66	774.16
660.00	767.89
660.34	761.90
660.68	755.94
661.02	749.74
661.36	743.87
661.70	738.19
662.05	732.48
662.39	727.03
662.73	721.73
663.07	716.42
663.41	710.92
663.75	705.32
664.09	699.78
664.43	694.43
664.77	689.12
665.11	683.37
665.45	677.51
665.79	671.85
666.13	666.19
666.47	660.80
666.81	655.50
667.15	650.24
667.49	645.11
667.83	639.90
668.17	634.70
668.51	629.66
668.85	624.81
669.19	620.01
669.53	615.13
669.87	610.09
670.21	605.45
670.55	600.78
670.89	596.49
671.23	592.31
671.57	588.01
671.91	583.76
672.25	579.71
672.58	575.58
672.92	571.59
673.26	567.75
673.60	563.97
673.94	560.24
674.28	556.70
674.62	553.04
674.96	549.39
675.30	545.98
675.64	542.38
675.97	538.88
676.31	535.34
676.65	531.81
676.99	528.38
677.33	524.58
677.67	520.99
678.01	517.15
678.34	513.54
678.68	510.10
679.02	506.52
679.36	502.89
679.70	499.33
680.04	495.81
680.37	492.46
680.71	489.18
681.05	485.99
681.39	482.83
681.73	479.70
682.06	476.72
682.40	473.64
682.74	470.52
683.08	467.36
683.42	464.29
683.75	461.34
684.09	458.48
684.43	455.73
684.77	452.84
685.10	450.10
685.44	447.25
685.78	444.41
686.12	441.71
686.45	439.04
686.79	436.46
687.13	433.95
687.46	431.29
687.80	428.69
688.14	425.88
688.48	423.25
688.81	420.65
689.15	418.07
689.49	415.52
689.82	413.02
690.16	410.49
690.50	408.08
690.83	405.64
691.17	403.11
691.51	400.70
691.84	398.56
692.18	396.39
692.52	394.20
692.85	392.06
693.19	390.01
693.52	387.92
693.86	385.78
694.20	383.67
694.53	381.64
694.87	379.48
695.21	377.42
695.54	375.30
695.88	373.14
696.21	371.03
696.55	368.96
696.88	366.95
697.22	364.99
697.56	363.14
697.89	361.27
698.23	359.56
698.56	357.80
698.90	355.99
699.23	354.12
699.57	352.31
699.90	350.53
700.24	348.78
700.58	347.00
700.91	345.34
701.25	343.81
701.58	342.24
701.92	340.68
702.25	339.13
702.59	337.60
702.92	336.11
703.26	334.61
703.59	333.18
703.93	332.00
704.26	330.62
704.60	329.14
704.93	327.73
705.26	326.26
705.60	324.86
705.93	323.39
706.27	322.14
706.60	320.91
706.94	319.72
707.27	318.33
707.61	317.04
707.94	315.80
708.27	314.34
708.61	312.95
708.94	311.61
709.28	310.36
709.61	309.11
709.94	307.97
710.28	306.75
710.61	305.62
710.95	304.19
711.28	303.12
711.61	301.95
711.95	300.84
712.28	299.68
712.61	298.49
712.95	297.49
713.28	296.44
713.61	295.31
713.95	294.14
714.28	293.13
714.61	292.13
714.95	291.11
715.28	290.14
715.61	289.14
715.95	288.24
716.28	287.31
716.61	286.33
716.95	285.35
717.28	284.47
717.61	283.52
717.94	282.63
718.28	281.64
718.61	280.75
718.94	279.88
719.27	279.04
719.61	278.27
719.94	277.40
720.27	276.41
720.60	275.62
720.94	274.86
721.27	274.13
721.60	273.46
721.93	272.75
722.27	272.07
722.60	271.43
722.93	270.75
723.26	270.14
723.59	269.51
723.93	268.90
724.26	268.26
724.59	267.64
724.92	267.09
725.25	266.57
725.59	266.06
725.92	265.53
726.25	265.01
726.58	264.43
726.91	263.85
727.24	263.39
727.57	262.82
727.91	262.26
728.24	261.73
728.57	261.16
728.90	260.61
729.23	260.03
729.56	259.58
729.89	259.05
730.22	258.47
730.55	257.94
730.89	257.42
731.22	256.91
731.55	256.39
731.88	255.86
732.21	255.33
732.54	254.82
732.87	254.28
733.20	253.78
733.53	253.34
733.86	252.93
734.19	252.45
734.52	252.04
734.85	251.74
735.18	251.27
735.51	250.90
735.84	250.49
736.17	250.15
736.50	249.63
736.83	249.49
737.16	249.12
737.49	248.77
737.82	248.34
738.15	248.01
738.48	247.66
738.81	247.29
739.14	246.90
739.47	246.53
739.80	246.19
740.13	245.86
740.46	245.47
740.79	245.09
741.12	244.72
741.45	244.38
741.78	243.94
742.11	243.68
742.44	243.30
742.77	243.05
743.10	242.71
743.43	242.35
743.75	241.78
744.08	241.75
744.41	241.40
744.74	241.11
745.07	240.74
745.40	240.44
745.73	240.19
746.06	239.91
746.39	239.62
746.71	239.30
747.04	238.98
747.37	238.67
747.70	238.39
748.03	238.14
748.36	237.85
748.68	237.56
749.01	237.22
749.34	236.96
749.67	236.63
750.00	236.38
750.33	236.28
750.65	236.05
750.98	235.50
751.31	235.27
751.64	235.04
751.97	234.91
752.29	234.68
752.62	234.36
752.95	234.11
753.28	233.83
753.60	233.60
753.93	233.45
754.26	233.26
754.59	232.99
754.91	232.74
755.24	232.49
755.57	232.24
755.90	232.05
756.22	231.78
756.55	231.56
756.88	231.30
757.20	230.97
757.53	230.71
757.86	230.47
758.19	230.27
758.51	230.09
758.84	229.80
759.17	229.57
759.49	229.39
759.82	229.30
760.15	229.14
760.47	228.97
760.80	228.70
761.13	228.55
761.45	228.37
761.78	228.18
762.11	227.99
762.43	227.83
762.76	227.62
763.08	227.50
763.41	227.34
763.74	227.20
764.06	227.02
764.39	226.89
764.71	226.79
765.04	226.62
765.37	226.44
765.69	226.27
766.02	226.15
766.34	226.02
766.67	225.79
767.00	225.72
767.32	225.71
767.65	225.74
767.97	225.57
768.30	225.48
768.62	225.36
768.95	225.25
769.27	225.13
769.60	225.08
769.92	224.92
770.25	224.77
770.57	224.61
770.90	224.51
771.22	224.35
771.55	224.24
771.87	224.14
772.20	224.01
772.52	224.11
772.85	224.24
773.17	224.13
773.50	224.04
773.82	223.91
774.15	223.69
774.47	223.46
774.80	223.35
775.12	223.25
775.45	223.18
775.77	223.11
776.09	223.00
776.42	222.91
776.74	222.90
777.07	222.81
777.39	222.74
777.72	222.63
778.04	222.61
778.36	222.51
778.69	222.42
779.01	222.35
779.33	222.07
779.66	221.73
779.98	221.64
780.31	221.56
780.63	221.55
780.95	221.51
781.28	221.44
781.60	221.34
781.92	221.26
782.25	221.19
782.57	221.14
782.89	221.08
783.22	221.00
783.54	220.89
783.86	220.86
784.19	220.81
784.51	220.81
784.83	220.72
785.16	220.65
785.48	220.61
785.80	220.58
786.12	220.56
786.45	220.56
786.77	220.51
787.09	220.45
787.42	220.33
787.74	220.29
788.06	220.23
788.38	220.20
788.71	220.12
789.03	220.04
789.35	220.01
789.67	219.94
789.99	219.88
790.32	219.78
790.64	219.74
790.96	219.87
791.28	219.76
791.61	219.72
791.93	219.67
792.25	219.62
792.57	219.70
792.89	219.63
793.21	219.57
793.54	219.54
793.86	219.49
794.18	219.45
794.50	219.34
794.82	219.30
795.14	219.28
795.47	219.31
795.79	219.29
796.11	219.19
796.43	219.19
796.75	219.18
797.07	219.20
797.39	219.12
797.71	218.91
798.04	218.88
798.36	218.85
798.68	218.83
799.00	218.78
799.32	218.64
799.64	218.62
799.96	218.57
800.28	218.56
800.60	218.51
800.92	218.51
801.24	218.46
801.56	218.45
801.89	218.42
802.21	218.38
802.53	218.32
802.85	218.35
803.17	218.39
803.49	218.30
803.81	218.23
804.13	218.24
804.45	218.17
804.77	218.17
805.09	218.12
805.41	218.08
805.73	218.01
806.05	217.94
806.37	217.91
806.69	217.87
807.01	217.81
807.33	217.81
807.65	217.69
807.97	217.77
808.28	217.71
808.60	217.64
808.92	217.57
809.24	217.67
809.56	217.59
809.88	217.52
810.20	217.52
810.52	217.52
810.84	217.43
811.16	217.39
811.48	217.34
811.80	217.39
812.12	217.37
812.43	217.40
812.75	217.39
813.07	217.34
813.39	217.32
813.71	217.28
814.03	217.23
814.35	217.26
814.67	217.14
814.98	217.11
815.30	217.09
815.62	217.08
815.94	216.92
816.26	216.92
816.58	216.81
816.89	216.79
817.21	216.71
817.53	216.70
817.85	216.73
818.17	216.73
818.48	216.63
818.80	216.64
819.12	216.60
819.44	216.55
819.76	216.54
820.07	216.51
820.39	216.49
820.71	216.47
821.03	216.43
821.34	216.40
821.66	216.42
821.98	216.46
822.30	216.40
822.61	216.53
822.93	216.48
823.25	216.50
823.57	216.45
823.88	216.49
824.20	216.49
824.52	216.49
824.83	216.44
825.15	216.44
825.47	216.42
825.79	216.43
826.10	216.41
826.42	216.39
826.74	216.42
827.05	216.44
827.37	216.45
827.69	216.41
828.00	216.40
828.32	216.37
828.64	216.30
828.95	216.43
829.27	216.35
829.58	216.35
829.90	216.42
830.22	216.45
830.53	216.38
830.85	216.32
831.17	216.25
831.48	216.25
831.80	216.23
832.11	216.19
832.43	216.16
832.75	216.14
833.06	216.22
833.38	216.16
833.69	216.15
834.01	216.13
834.32	216.14
834.64	216.12
834.96	216.13
835.27	216.13
835.59	216.04
835.90	215.98
836.22	215.94
836.53	215.86
836.85	215.82
837.16	216.01
837.48	216.04
837.79	216.10
838.11	216.11
838.42	216.11
838.74	216.12
839.05	216.08
839.37	216.09
839.68	215.95
840.00	215.93
840.31	215.92
840.63	215.90
840.94	215.88
841.26	215.87
841.57	215.86
841.88	215.87
842.20	215.82
842.51	215.76
842.83	215.78
843.14	215.93
843.46	215.92
843.77	215.82
844.08	215.79
844.40	215.75
844.71	215.71
845.03	215.69
845.34	215.67
845.65	215.69
845.97	215.69
846.28	215.72
846.60	215.72
846.91	215.68
847.22	215.67
847.54	215.67
847.85	215.66
848.16	215.64
848.48	215.58
848.79	215.66
849.10	215.71
849.42	215.71
849.73	215.54
850.04	215.56
850.36	215.46
850.67	215.51
850.98	215.50
851.30	215.53
851.61	215.51
851.92	215.55
852.23	215.59
852.55	215.58
852.86	215.55
853.17	215.53
853.49	215.60
853.80	215.63
854.11	215.68
854.42	215.71
854.74	215.68
855.05	215.70
855.36	215.61
855.67	215.59
855.99	215.59
856.30	215.85
856.61	215.83
856.92	215.88
857.23	215.85
857.55	215.83
857.86	215.81
858.17	215.80
858.48	215.73
858.79	215.68
859.11	215.71
859.42	215.72
859.73	215.69
860.04	215.64
860.35	215.58
860.66	215.50
860.98	215.47
861.29	215.49
861.60	215.47
861.91	215.49
862.22	215.46
862.53	215.40
862.84	215.15
863.16	215.20
863.47	215.12
863.78	215.11
864.09	215.10
864.40	215.12
864.71	215.14
865.02	215.14
865.33	215.12
865.64	215.07
865.95	215.07
866.27	215.23
866.58	215.22
866.89	215.28
867.20	215.27
867.51	215.24
867.82	215.24
868.13	215.28
868.44	215.24
868.75	215.29
869.06	215.29
869.37	215.31
869.68	215.25
869.99	215.25
870.30	215.24
870.61	215.28
870.92	215.21
871.23	215.19
871.54	215.23
871.85	215.28
872.16	215.31
872.47	215.25
872.78	215.14
873.09	215.12
873.40	215.08
873.71	215.04
874.02	215.07
874.33	215.05
874.64	215.04
874.95	215.09
875.26	215.06
875.56	215.06
875.87	215.06
876.18	215.04
876.49	215.27
876.80	215.27
877.11	215.23
877.42	215.24
877.73	215.23
878.04	215.20
878.35	215.18
878.66	215.18
878.96	215.23
879.27	215.18
879.58	215.20
879.89	215.17
880.20	215.28
880.51	215.29
880.82	215.26
881.12	215.25
881.43	215.19
881.74	215.17
882.05	215.14
882.36	215.13
882.67	215.13
882.97	214.90
883.28	214.87
883.59	214.85
883.90	214.87
884.21	214.91
884.51	214.91
884.82	214.88
885.13	214.86
885.44	214.83
885.74	214.86
886.05	214.81
886.36	214.83
886.67	214.74
886.98	214.80
887.28	214.88
887.59	214.88
887.90	214.90
888.20	214.88
888.51	214.95
888.82	214.92
889.13	214.96
889.43	215.11
889.74	215.09
890.05	215.11
890.35	215.09
890.66	215.10
890.97	215.07
891.28	215.07
891.58	215.08
891.89	215.09
892.20	215.05
892.50	215.08
892.81	215.09
893.12	215.10
893.42	215.03
893.73	215.01
894.04	215.00
894.34	215.01
894.65	214.98
894.95	214.95
895.26	214.98
895.57	215.06
895.87	214.90
896.18	214.94
896.48	214.93
896.79	214.95
897.10	214.97
897.40	215.00
897.71	215.05
898.01	215.06
898.32	215.09
898.63	215.08
898.93	215.08
899.24	215.08
899.54	215.07
899.85	215.07
900.15	215.05
900.46	215.04
900.76	215.06
901.07	215.06
901.38	215.08
901.68	215.06
901.99	214.97
902.29	214.97
902.60	214.94
902.90	214.93
903.21	214.90
903.51	214.89
903.82	214.92
904.12	214.89
904.43	214.85
904.73	214.82
905.03	214.87
905.34	215.06
905.64	215.04
905.95	215.03
906.25	215.02
906.56	215.01
906.86	215.01
907.17	215.00
907.47	215.05
907.77	215.03
908.08	215.00
908.38	215.00
908.69	215.03
908.99	215.07
909.30	215.07
909.60	215.08
909.90	215.07
910.21	214.97
910.51	214.96
910.81	214.97
911.12	215.00
911.42	214.97
911.73	214.75
912.03	214.78
912.33	214.84
912.64	214.84
912.94	214.84
913.24	214.81
913.55	214.75
913.85	214.75
914.15	214.79
914.46	214.81
914.76	214.76
915.06	214.76
915.37	214.76
915.67	214.75
915.97	214.75
916.27	214.68
916.58	214.70
916.88	214.68
917.18	214.66
917.49	214.79
917.79	214.79
918.09	214.86
918.39	214.92
918.70	214.89
919.00	214.90
919.30	214.97
919.60	214.98
919.91	215.01
920.21	215.01
920.51	214.94
920.81	214.93
921.12	214.98
921.42	214.98
921.72	214.96
922.02	214.97
922.32	215.00
922.63	215.04
922.93	215.15
923.23	215.16
923.53	215.13
923.83	215.01
924.13	215.03
924.44	215.00
924.74	215.00
925.04	215.04
925.34	215.04
925.64	214.94
925.94	214.91
926.24	215.02
926.55	214.98
926.85	215.02
927.15	215.03
927.45	215.06
927.75	215.05
928.05	215.05
928.35	215.05
928.65	215.08
928.95	215.10
929.26	215.01
929.56	215.08
929.86	215.13
930.16	215.10
930.46	215.07
930.76	215.08
931.06	215.00
931.36	214.93
931.66	214.98
931.96	215.01
932.26	215.02
932.56	214.92
932.86	214.93
933.16	214.95
933.46	214.93
933.76	214.88
934.06	214.91
934.36	214.96
934.66	214.96
934.96	214.92
935.26	214.92
935.56	214.92
935.86	214.82
936.16	214.81
936.46	214.80
936.76	214.80
937.06	214.78
937.36	214.76
937.66	214.78
937.96	214.73
938.26	214.73
938.56	214.73
938.86	214.75
939.16	214.79
939.46	214.78
939.76	214.79
940.06	214.79
940.35	214.73
940.65	214.66
940.95	214.67
941.25	214.65
941.55	214.63
941.85	214.63
942.15	214.72
942.45	214.75
942.75	214.76
943.04	214.76
943.34	214.82
943.64	214.81
943.94	214.82
944.24	214.81
944.54	214.81
944.84	214.82
945.13	214.76
945.43	214.71
945.73	214.71
946.03	214.68
946.33	214.65
946.62	214.65
946.92	214.65
947.22	214.66
947.52	214.68
947.82	214.72
948.11	214.69
948.41	214.65
948.71	214.58
949.01	214.57
949.31	214.56
949.60	214.50
949.90	214.55
950.20	214.52
950.50	214.56
950.79	214.54
951.09	214.55
951.39	214.56
951.69	214.54
951.98	214.59
952.28	214.61
952.58	214.60
952.87	214.62
953.17	214.65
953.47	214.63
953.76	214.62
954.06	214.55
954.36	214.53
954.66	214.51
954.95	214.57
955.25	214.59
955.55	214.61
955.84	214.63
956.14	214.66
956.44	214.68
956.73	214.63
957.03	214.64
957.32	214.66
957.62	214.66
957.92	214.71
958.21	214.67
958.51	214.92
958.81	214.96
959.10	214.95
959.40	214.94
959.69	214.94
959.99	214.98
960.29	214.99
960.58	215.01
960.88	215.07
961.17	215.06
961.47	215.09
961.76	215.07
962.06	215.09
962.36	215.03
962.65	215.02
962.95	215.03
963.24	215.00
963.54	215.00
963.83	215.01
964.13	215.00
964.42	214.96
964.72	214.75
965.01	214.74
965.31	214.74
965.60	214.72
965.90	214.87
966.19	214.79
966.49	214.80
966.78	214.80
967.08	214.81
967.37	214.79
967.67	214.77
967.96	214.81
968.26	214.79
968.55	214.83
968.85	214.82
969.14	214.80
969.43	214.78
969.73	214.77
970.02	214.78
970.32	214.74
970.61	214.71
970.91	214.68
971.20	214.64
971.49	214.63
971.79	214.67
972.08	214.54
972.38	214.56
972.67	214.55
972.96	214.56
973.26	214.50
973.55	214.61
973.85	214.57
974.14	214.54
974.43	214.55
974.73	214.51
975.02	214.52
975.31	214.54
975.61	214.56
975.90	214.55
976.19	214.52
976.49	214.53
976.78	214.58
977.07	214.57
977.37	214.59
977.66	214.62
977.95	214.56
978.24	214.56
978.54	214.61
978.83	214.61
979.12	214.57
979.42	214.57
979.71	214.47
980.00	214.45
980.29	214.43
980.59	214.40
980.88	214.44
981.17	214.41
981.46	214.40
981.76	214.39
982.05	214.42
982.34	214.45
982.63	214.50
982.93	214.51
983.22	214.57
983.51	214.61
983.80	214.62
984.09	214.64
984.39	214.60
984.68	214.59
984.97	214.59
985.26	214.61
985.55	214.62
985.85	214.60
986.14	214.68
986.43	214.71
986.72	214.69
987.01	214.62
987.30	214.63
987.59	214.61
987.89	214.64
988.18	214.61
988.47	214.56
988.76	214.51
989.05	214.49
989.34	214.44
989.63	214.45
989.92	214.44
990.22	214.41
990.51	214.45
990.80	214.41
991.09	214.46
991.38	214.47
991.67	214.49
991.96	214.48
992.25	214.45
992.54	214.41
992.83	214.45
993.12	214.47
993.41	214.49
993.70	214.58
993.99	214.63
994.28	214.67
994.58	214.73
994.87	214.70
995.16	214.72
995.45	214.72
995.74	214.66
996.03	214.66
996.32	214.71
996.61	214.71
996.90	214.71
997.19	214.70
997.48	214.68
997.77	214.65
998.06	214.66
998.34	214.66
998.63	214.69
998.92	214.69
999.21	214.73
999.50	214.75
999.79	214.68
1000.08	214.63
1000.37	214.60
1000.66	214.58
1000.95	214.68
1001.24	214.63
1001.53	214.64
1001.82	214.62
1002.11	214.56
1002.40	214.58
1002.68	214.65
1002.97	214.81
1003.26	214.78
1003.55	214.75
1003.84	214.77
1004.13	214.86
1004.42	214.83
1004.71	214.83
1004.99	214.79
1005.28	214.82
1005.57	214.81
1005.86	214.80
1006.15	214.79
1006.44	214.76
1006.72	214.80
1007.01	214.72
1007.30	214.78
1007.59	214.76
1007.88	214.80
1008.17	214.83
1008.45	214.81
1008.74	214.71
1009.03	214.62
1009.32	214.60
1009.60	214.63
1009.89	214.58
1010.18	214.49
1010.47	214.48
1010.76	214.49
1011.04	214.50
1011.33	214.49
1011.62	214.53
1011.91	214.57
1012.19	214.58
1012.48	214.58
1012.77	214.53
1013.05	214.64
1013.34	214.63
1013.63	214.63
1013.92	214.62
1014.20	214.57
1014.49	214.60
1014.78	214.61
1015.06	214.53
1015.35	214.55
1015.64	214.54
1015.92	214.58
1016.21	214.57
1016.50	214.57
1016.78	214.59
1017.07	214.60
1017.36	214.54
1017.64	214.49
1017.93	214.47
1018.22	214.47
1018.50	214.47
1018.79	214.46
1019.08	214.37
1019.36	214.38
1019.65	214.35
1019.93	214.42
1020.22	214.46
1020.51	214.54
1020.79	214.52
1021.08	214.49
1021.36	214.45
1021.65	214.06
1021.94	214.51
1022.22	214.69
1022.51	214.01
1022.79	215.47
1023.08	214.36
1023.36	216.81
1023.65	214.12
>>>>>End Processed Spectral Data<<<<<
