SpectraSuite Data File
++++++++++++++++++++++++++++++++++++
Date: Tue Jan 29 16:31:41 EST 2013
User: group
Dark Spectrum Present: No
Reference Spectrum Present: No
Number of Sampled Component Spectra: 1
Spectrometers: USB2E7196
Integration Time (usec): 65000 (USB2E7196)
Spectra Averaged: 100 (USB2E7196)
Boxcar Smoothing: 10 (USB2E7196)
Correct for Electrical Dark: No (USB2E7196)
Strobe/Lamp Enabled: No (USB2E7196)
Correct for Detector Non-linearity: No (USB2E7196)
Correct for Stray Light: No (USB2E7196)
Number of Pixels in Processed Spectrum: 2048
>>>>>Begin Processed Spectral Data<<<<<
339.09	0.00
339.48	202.82
339.86	203.70
340.24	205.61
340.63	206.65
341.01	210.78
341.39	209.72
341.78	210.16
342.16	212.30
342.54	212.17
342.93	201.61
343.31	211.80
343.69	212.32
344.07	212.82
344.46	213.23
344.84	213.63
345.22	213.80
345.60	214.07
345.99	214.32
346.37	214.45
346.75	214.58
347.13	214.65
347.52	214.71
347.90	214.83
348.28	214.86
348.66	214.92
349.05	214.89
349.43	214.96
349.81	215.02
350.19	215.07
350.57	215.12
350.96	215.19
351.34	215.31
351.72	215.39
352.10	215.47
352.48	215.55
352.87	215.58
353.25	215.63
353.63	215.65
354.01	215.72
354.39	215.77
354.77	215.81
355.15	215.93
355.54	215.95
355.92	215.91
356.30	216.00
356.68	216.16
357.06	216.20
357.44	216.20
357.82	216.24
358.20	216.29
358.58	216.32
358.97	216.36
359.35	216.42
359.73	216.52
360.11	216.55
360.49	216.59
360.87	216.62
361.25	216.70
361.63	216.84
362.01	216.85
362.39	216.89
362.77	216.96
363.15	216.99
363.53	217.02
363.91	217.03
364.29	217.03
364.67	216.89
365.05	216.94
365.43	216.99
365.81	217.03
366.19	217.12
366.57	217.20
366.95	217.19
367.33	217.12
367.71	217.07
368.09	217.12
368.47	217.13
368.85	217.12
369.23	217.16
369.61	217.07
369.99	217.13
370.37	217.12
370.75	217.19
371.13	217.12
371.51	217.07
371.89	217.08
372.27	217.09
372.65	217.04
373.03	217.00
373.41	216.98
373.78	216.93
374.16	216.81
374.54	216.73
374.92	216.70
375.30	216.72
375.68	216.65
376.06	216.61
376.44	216.54
376.82	216.51
377.19	216.43
377.57	216.37
377.95	216.25
378.33	216.18
378.71	216.01
379.09	216.00
379.47	216.01
379.84	215.95
380.22	215.89
380.60	215.83
380.98	215.77
381.36	215.73
381.73	215.65
382.11	215.63
382.49	215.57
382.87	215.52
383.25	215.47
383.62	215.71
384.00	215.62
384.38	215.61
384.76	215.63
385.13	215.68
385.51	215.64
385.89	215.58
386.27	215.53
386.64	215.54
387.02	215.51
387.40	215.45
387.78	215.44
388.15	215.42
388.53	215.40
388.91	215.34
389.29	215.31
389.66	215.32
390.04	215.30
390.42	215.34
390.79	215.34
391.17	215.33
391.55	215.06
391.92	215.09
392.30	215.07
392.68	215.03
393.05	215.02
393.43	215.01
393.81	215.04
394.18	215.05
394.56	215.10
394.94	215.12
395.31	215.15
395.69	215.23
396.06	215.24
396.44	215.28
396.82	215.32
397.19	215.46
397.57	215.48
397.95	215.53
398.32	215.52
398.70	215.56
399.07	215.64
399.45	215.66
399.82	215.71
400.20	215.74
400.58	215.79
400.95	215.77
401.33	215.90
401.70	216.12
402.08	216.26
402.45	216.34
402.83	216.50
403.20	216.60
403.58	216.65
403.95	216.83
404.33	216.98
404.71	217.14
405.08	217.38
405.46	217.58
405.83	217.77
406.21	217.98
406.58	218.23
406.96	218.43
407.33	218.73
407.70	219.01
408.08	219.50
408.45	219.87
408.83	220.28
409.20	220.63
409.58	220.90
409.95	221.34
410.33	221.81
410.70	222.24
411.08	222.78
411.45	223.37
411.82	223.94
412.20	224.66
412.57	225.49
412.95	226.03
413.32	226.82
413.69	227.66
414.07	228.55
414.44	229.51
414.82	230.56
415.19	231.75
415.56	232.97
415.94	234.16
416.31	235.57
416.68	236.95
417.06	238.54
417.43	240.10
417.81	241.81
418.18	243.59
418.55	245.54
418.93	247.57
419.30	249.67
419.67	251.90
420.04	254.17
420.42	256.55
420.79	259.42
421.16	262.20
421.54	265.13
421.91	268.12
422.28	271.24
422.66	274.53
423.03	277.77
423.40	281.13
423.77	284.72
424.15	288.40
424.52	292.25
424.89	296.40
425.26	300.45
425.64	304.37
426.01	308.67
426.38	313.12
426.75	317.68
427.13	322.40
427.50	327.40
427.87	332.60
428.24	337.80
428.61	342.82
428.99	348.38
429.36	354.34
429.73	360.22
430.10	366.12
430.47	372.19
430.85	378.55
431.22	385.25
431.59	392.35
431.96	399.13
432.33	406.57
432.70	413.88
433.08	422.47
433.45	430.57
433.82	438.55
434.19	447.46
434.56	456.11
434.93	464.47
435.30	472.71
435.68	481.87
436.05	490.85
436.42	499.71
436.79	507.81
437.16	516.60
437.53	525.88
437.90	534.98
438.27	543.85
438.64	553.05
439.01	561.57
439.38	569.10
439.75	576.52
440.13	584.92
440.50	592.85
440.87	599.20
441.24	605.83
441.61	613.22
441.98	618.63
442.35	624.96
442.72	631.29
443.09	637.36
443.46	641.09
443.83	643.62
444.20	645.87
444.57	649.05
444.94	650.57
445.31	651.97
445.68	653.35
446.05	654.04
446.42	653.29
446.79	652.28
447.16	651.24
447.53	650.33
447.90	647.10
448.27	643.75
448.64	639.14
449.01	635.83
449.37	629.90
449.74	624.19
450.11	617.35
450.48	609.97
450.85	602.53
451.22	596.02
451.59	589.87
451.96	583.99
452.33	576.14
452.70	569.02
453.07	560.59
453.43	552.01
453.80	543.74
454.17	535.69
454.54	528.18
454.91	520.06
455.28	512.15
455.65	504.68
456.02	497.20
456.38	490.92
456.75	483.04
457.12	476.44
457.49	469.94
457.86	463.74
458.23	458.35
458.59	452.44
458.96	446.40
459.33	441.14
459.70	435.77
460.07	431.52
460.43	426.60
460.80	422.00
461.17	417.99
461.54	413.80
461.91	409.78
462.27	405.67
462.64	402.20
463.01	398.41
463.38	394.67
463.74	390.99
464.11	387.70
464.48	384.82
464.85	381.73
465.21	379.23
465.58	376.57
465.95	373.40
466.32	370.78
466.68	368.22
467.05	365.62
467.42	363.01
467.78	360.33
468.15	357.73
468.52	355.83
468.88	353.36
469.25	351.14
469.62	349.33
469.98	347.42
470.35	345.59
470.72	343.92
471.08	342.14
471.45	340.65
471.82	339.10
472.18	337.43
472.55	336.23
472.92	334.86
473.28	333.64
473.65	332.46
474.02	331.35
474.38	330.46
474.75	329.70
475.11	328.92
475.48	328.30
475.85	327.87
476.21	327.33
476.58	326.95
476.94	326.69
477.31	326.39
477.67	326.11
478.04	325.98
478.41	325.95
478.77	326.15
479.14	326.08
479.50	326.24
479.87	326.54
480.23	326.85
480.60	327.13
480.96	327.46
481.33	328.08
481.69	328.60
482.06	329.09
482.42	329.58
482.79	330.15
483.15	331.00
483.52	331.91
483.88	332.82
484.25	333.81
484.61	334.79
484.98	335.85
485.34	337.17
485.71	338.50
486.07	339.90
486.44	341.19
486.80	342.81
487.17	344.49
487.53	346.37
487.90	348.25
488.26	350.28
488.62	352.41
488.99	354.45
489.35	356.62
489.72	359.05
490.08	361.57
490.44	364.11
490.81	366.78
491.17	369.51
491.54	372.52
491.90	375.52
492.26	378.78
492.63	382.17
492.99	385.65
493.36	389.34
493.72	393.28
494.08	397.34
494.45	401.62
494.81	405.96
495.17	410.39
495.54	415.11
495.90	419.98
496.26	424.92
496.63	430.14
496.99	435.56
497.35	441.14
497.72	446.93
498.08	452.89
498.44	459.01
498.80	465.49
499.17	471.97
499.53	478.70
499.89	485.66
500.26	492.71
500.62	499.83
500.98	507.33
501.34	514.80
501.71	522.58
502.07	530.33
502.43	538.44
502.79	546.63
503.16	555.02
503.52	563.59
503.88	572.42
504.24	581.40
504.60	590.52
504.97	599.76
505.33	609.12
505.69	619.04
506.05	629.02
506.41	638.88
506.78	649.00
507.14	659.31
507.50	669.77
507.86	680.52
508.22	691.33
508.59	702.04
508.95	713.12
509.31	724.41
509.67	735.96
510.03	747.40
510.39	759.17
510.75	771.12
511.12	783.11
511.48	795.31
511.84	807.64
512.20	820.08
512.56	832.88
512.92	845.81
513.28	858.56
513.64	871.41
514.00	884.39
514.37	897.49
514.73	910.76
515.09	923.98
515.45	936.95
515.81	950.13
516.17	963.55
516.53	976.88
516.89	990.12
517.25	1003.39
517.61	1017.01
517.97	1030.54
518.33	1043.80
518.69	1057.46
519.05	1071.28
519.41	1085.05
519.77	1099.02
520.13	1112.31
520.49	1125.58
520.85	1139.05
521.21	1152.53
521.57	1166.29
521.93	1179.54
522.29	1193.29
522.65	1206.89
523.01	1220.65
523.37	1233.91
523.73	1247.43
524.09	1260.79
524.45	1274.34
524.81	1287.97
525.17	1301.44
525.53	1314.73
525.89	1328.04
526.25	1341.30
526.61	1354.16
526.97	1367.46
527.33	1380.52
527.68	1394.17
528.04	1407.85
528.40	1421.09
528.76	1434.46
529.12	1447.38
529.48	1460.73
529.84	1473.29
530.20	1486.21
530.56	1498.91
530.91	1512.34
531.27	1525.22
531.63	1538.01
531.99	1550.85
532.35	1563.14
532.71	1575.70
533.07	1588.74
533.42	1601.26
533.78	1613.43
534.14	1625.72
534.50	1636.99
534.86	1648.76
535.21	1659.77
535.57	1671.29
535.93	1682.75
536.29	1693.85
536.65	1705.53
537.00	1716.60
537.36	1728.06
537.72	1739.21
538.08	1750.82
538.44	1761.89
538.79	1773.13
539.15	1784.20
539.51	1795.06
539.87	1806.60
540.22	1817.44
540.58	1828.43
540.94	1839.40
541.29	1849.80
541.65	1859.54
542.01	1870.09
542.37	1880.27
542.72	1890.52
543.08	1900.39
543.44	1911.00
543.79	1920.54
544.15	1930.07
544.51	1940.25
544.87	1950.27
545.22	1959.49
545.58	1968.38
545.94	1977.31
546.29	1985.82
546.65	1994.28
547.01	2002.58
547.36	2010.33
547.72	2018.17
548.07	2025.81
548.43	2033.57
548.79	2041.54
549.14	2049.83
549.50	2058.51
549.86	2066.44
550.21	2073.94
550.57	2081.87
550.92	2088.69
551.28	2096.16
551.64	2103.46
551.99	2110.92
552.35	2118.03
552.70	2125.02
553.06	2131.79
553.41	2138.08
553.77	2144.73
554.13	2151.15
554.48	2158.34
554.84	2165.47
555.19	2172.11
555.55	2178.73
555.90	2185.19
556.26	2192.03
556.61	2198.13
556.97	2202.90
557.32	2208.78
557.68	2215.32
558.03	2220.88
558.39	2226.36
558.74	2232.41
559.10	2237.95
559.45	2243.50
559.81	2249.03
560.16	2254.57
560.52	2260.52
560.87	2267.03
561.23	2272.98
561.58	2279.72
561.94	2284.96
562.29	2289.68
562.64	2295.70
563.00	2301.25
563.35	2306.77
563.71	2312.50
564.06	2318.29
564.42	2324.20
564.77	2329.14
565.12	2334.38
565.48	2339.56
565.83	2344.98
566.19	2350.42
566.54	2355.83
566.89	2360.40
567.25	2365.12
567.60	2370.83
567.96	2375.99
568.31	2380.40
568.66	2384.65
569.02	2388.46
569.37	2392.14
569.72	2396.60
570.08	2400.21
570.43	2403.33
570.78	2406.49
571.14	2409.02
571.49	2411.92
571.84	2415.53
572.20	2418.57
572.55	2421.48
572.90	2423.79
573.26	2426.50
573.61	2428.99
573.96	2431.07
574.31	2433.12
574.67	2434.88
575.02	2435.77
575.37	2437.14
575.72	2437.98
576.08	2439.40
576.43	2439.66
576.78	2440.22
577.13	2441.83
577.49	2442.95
577.84	2444.12
578.19	2445.39
578.54	2445.97
578.90	2446.77
579.25	2446.62
579.60	2446.43
579.95	2445.61
580.30	2445.64
580.66	2444.84
581.01	2443.20
581.36	2440.93
581.71	2439.56
582.06	2438.39
582.42	2437.35
582.77	2435.00
583.12	2433.28
583.47	2431.87
583.82	2431.24
584.17	2429.87
584.53	2427.64
584.88	2425.41
585.23	2423.42
585.58	2420.98
585.93	2418.96
586.28	2416.68
586.63	2414.14
586.98	2411.96
587.34	2409.81
587.69	2407.44
588.04	2405.32
588.39	2403.85
588.74	2401.34
589.09	2398.47
589.44	2395.26
589.79	2392.53
590.14	2390.46
590.49	2387.67
590.84	2383.80
591.19	2380.52
591.54	2377.16
591.89	2373.02
592.25	2369.81
592.60	2365.43
592.95	2361.32
593.30	2357.05
593.65	2352.73
594.00	2348.09
594.35	2345.02
594.70	2340.49
595.05	2335.76
595.40	2330.38
595.75	2324.41
596.10	2320.66
596.45	2315.89
596.80	2311.29
597.15	2306.30
597.50	2300.40
597.85	2295.34
598.19	2289.98
598.54	2284.27
598.89	2278.98
599.24	2274.34
599.59	2268.14
599.94	2262.38
600.29	2256.30
600.64	2250.37
600.99	2243.47
601.34	2238.10
601.69	2230.99
602.04	2224.35
602.39	2217.59
602.74	2211.45
603.08	2205.97
603.43	2199.39
603.78	2192.52
604.13	2185.30
604.48	2177.81
604.83	2171.66
605.18	2165.43
605.53	2158.46
605.87	2151.18
606.22	2144.42
606.57	2136.57
606.92	2128.45
607.27	2121.26
607.62	2114.69
607.96	2107.59
608.31	2101.08
608.66	2093.34
609.01	2085.76
609.36	2078.79
609.70	2071.06
610.05	2063.26
610.40	2054.88
610.75	2046.58
611.10	2038.77
611.44	2029.98
611.79	2021.38
612.14	2011.47
612.49	2000.86
612.83	1991.57
613.18	1982.47
613.53	1973.06
613.88	1963.32
614.22	1954.73
614.57	1944.99
614.92	1934.31
615.27	1924.03
615.61	1913.88
615.96	1904.02
616.31	1894.23
616.65	1884.74
617.00	1875.06
617.35	1865.38
617.70	1855.52
618.04	1845.42
618.39	1835.23
618.74	1825.46
619.08	1815.76
619.43	1806.88
619.78	1798.49
620.12	1789.80
620.47	1779.87
620.82	1769.51
621.16	1759.75
621.51	1749.73
621.85	1739.80
622.20	1729.38
622.55	1718.72
622.89	1708.74
623.24	1699.14
623.59	1689.42
623.93	1679.25
624.28	1669.33
624.62	1659.11
624.97	1648.87
625.32	1638.92
625.66	1629.91
626.01	1620.98
626.35	1611.52
626.70	1601.47
627.04	1591.19
627.39	1580.92
627.73	1571.77
628.08	1562.83
628.43	1553.19
628.77	1544.01
629.12	1535.12
629.46	1527.26
629.81	1518.98
630.15	1509.42
630.50	1499.48
630.84	1488.93
631.19	1479.02
631.53	1469.74
631.88	1459.55
632.22	1449.52
632.57	1440.19
632.91	1430.09
633.26	1420.37
633.60	1410.83
633.95	1401.51
634.29	1392.08
634.64	1382.93
634.98	1372.91
635.32	1363.56
635.67	1354.94
636.01	1345.63
636.36	1335.82
636.70	1326.17
637.05	1316.80
637.39	1307.89
637.73	1299.23
638.08	1291.69
638.42	1283.41
638.77	1274.57
639.11	1266.34
639.45	1258.56
639.80	1249.97
640.14	1241.19
640.49	1232.19
640.83	1223.27
641.17	1215.01
641.52	1206.91
641.86	1198.27
642.20	1190.34
642.55	1181.73
642.89	1172.83
643.23	1164.09
643.58	1155.93
643.92	1146.93
644.26	1138.12
644.61	1129.62
644.95	1120.83
645.29	1111.47
645.64	1102.31
645.98	1093.85
646.32	1085.83
646.66	1077.20
647.01	1068.85
647.35	1060.70
647.69	1052.25
648.04	1043.84
648.38	1034.93
648.72	1026.00
649.06	1017.42
649.41	1009.23
649.75	1001.17
650.09	993.37
650.43	985.36
650.78	976.93
651.12	969.10
651.46	961.64
651.80	954.32
652.14	946.99
652.49	939.48
652.83	932.14
653.17	924.28
653.51	916.56
653.85	909.32
654.20	902.03
654.54	894.43
654.88	887.27
655.22	880.04
655.56	873.01
655.90	866.21
656.25	859.53
656.59	852.51
656.93	845.40
657.27	838.10
657.61	831.07
657.95	824.95
658.29	819.03
658.64	812.82
658.98	806.33
659.32	799.66
659.66	793.31
660.00	786.88
660.34	780.83
660.68	774.71
661.02	768.19
661.36	762.12
661.70	756.30
662.05	750.52
662.39	745.00
662.73	739.57
663.07	734.14
663.41	728.46
663.75	722.74
664.09	717.03
664.43	711.51
664.77	706.12
665.11	700.26
665.45	694.31
665.79	688.42
666.13	682.61
666.47	677.05
666.81	671.57
667.15	666.10
667.49	660.82
667.83	655.52
668.17	650.32
668.51	645.15
668.85	640.15
669.19	635.20
669.53	630.08
669.87	624.90
670.21	620.04
670.55	615.28
670.89	610.74
671.23	606.36
671.57	601.97
671.91	597.59
672.25	593.42
672.58	589.28
672.92	585.19
673.26	581.24
673.60	577.33
673.94	573.50
674.28	569.88
674.62	566.08
674.96	562.24
675.30	558.68
675.64	554.95
675.97	551.33
676.31	547.68
676.65	544.09
676.99	540.65
677.33	536.73
677.67	533.03
678.01	529.14
678.34	525.52
678.68	521.98
679.02	518.34
679.36	514.60
679.70	510.81
680.04	507.17
680.37	503.69
680.71	500.30
681.05	496.99
681.39	493.63
681.73	490.47
682.06	487.46
682.40	484.33
682.74	481.12
683.08	477.88
683.42	474.72
683.75	471.68
684.09	468.51
684.43	465.74
684.77	462.78
685.10	459.92
685.44	456.99
685.78	454.02
686.12	451.18
686.45	448.39
686.79	445.74
687.13	443.20
687.46	440.54
687.80	437.78
688.14	434.96
688.48	432.28
688.81	429.52
689.15	426.87
689.49	424.18
689.82	421.61
690.16	419.00
690.50	416.42
690.83	413.88
691.17	411.38
691.51	408.79
691.84	406.47
692.18	404.23
692.52	401.95
692.85	399.75
693.19	397.59
693.52	395.39
693.86	393.11
694.20	390.85
694.53	388.64
694.87	386.48
695.21	384.28
695.54	382.10
695.88	379.89
696.21	377.60
696.55	375.48
696.88	373.36
697.22	371.34
697.56	369.46
697.89	367.53
698.23	365.70
698.56	363.93
698.90	362.13
699.23	360.12
699.57	358.17
699.90	356.28
700.24	354.44
700.58	352.66
700.91	350.98
701.25	349.40
701.58	347.82
701.92	346.17
702.25	344.57
702.59	342.93
702.92	341.39
703.26	339.87
703.59	338.40
703.93	337.14
704.26	335.68
704.60	334.14
704.93	332.65
705.26	331.14
705.60	329.62
705.93	328.10
706.27	326.79
706.60	325.50
706.94	324.30
707.27	322.89
707.61	321.52
707.94	320.18
708.27	318.66
708.61	317.17
708.94	315.79
709.28	314.47
709.61	313.20
709.94	311.95
710.28	310.68
710.61	309.40
710.95	307.96
711.28	306.83
711.61	305.62
711.95	304.46
712.28	303.24
712.61	302.08
712.95	301.00
713.28	299.96
713.61	298.81
713.95	297.62
714.28	296.56
714.61	295.51
714.95	294.43
715.28	293.42
715.61	292.35
715.95	291.37
716.28	290.40
716.61	289.46
716.95	288.43
717.28	287.52
717.61	286.58
717.94	285.71
718.28	284.70
718.61	283.82
718.94	282.87
719.27	282.01
719.61	281.16
719.94	280.23
720.27	279.21
720.60	278.33
720.94	277.49
721.27	276.73
721.60	276.02
721.93	275.29
722.27	274.64
722.60	274.02
722.93	273.32
723.26	272.62
723.59	271.89
723.93	271.30
724.26	270.63
724.59	269.97
724.92	269.32
725.25	268.76
725.59	268.18
725.92	267.64
726.25	267.07
726.58	266.46
726.91	265.87
727.24	265.34
727.57	264.80
727.91	264.19
728.24	263.64
728.57	263.05
728.90	262.49
729.23	261.86
729.56	261.40
729.89	260.81
730.22	260.23
730.55	259.71
730.89	259.14
731.22	258.60
731.55	258.08
731.88	257.54
732.21	256.94
732.54	256.40
732.87	255.86
733.20	255.38
733.53	254.91
733.86	254.50
734.19	253.99
734.52	253.57
734.85	253.29
735.18	252.78
735.51	252.41
735.84	252.00
736.17	251.64
736.50	251.07
736.83	250.94
737.16	250.57
737.49	250.16
737.82	249.70
738.15	249.34
738.48	248.92
738.81	248.54
739.14	248.18
739.47	247.78
739.80	247.41
740.13	247.04
740.46	246.62
740.79	246.22
741.12	245.86
741.45	245.48
741.78	245.02
742.11	244.75
742.44	244.31
742.77	243.98
743.10	243.59
743.43	243.26
743.75	242.68
744.08	242.59
744.41	242.28
744.74	241.93
745.07	241.54
745.40	241.26
745.73	240.96
746.06	240.62
746.39	240.35
746.71	239.99
747.04	239.68
747.37	239.34
747.70	239.02
748.03	238.71
748.36	238.43
748.68	238.11
749.01	237.74
749.34	237.50
749.67	237.18
750.00	236.93
750.33	236.82
750.65	236.56
750.98	236.07
751.31	235.79
751.64	235.58
751.97	235.47
752.29	235.17
752.62	234.82
752.95	234.57
753.28	234.23
753.60	234.02
753.93	233.82
754.26	233.64
754.59	233.35
754.91	233.10
755.24	232.83
755.57	232.56
755.90	232.33
756.22	232.06
756.55	231.80
756.88	231.50
757.20	231.16
757.53	230.88
757.86	230.64
758.19	230.43
758.51	230.23
758.84	229.90
759.17	229.71
759.49	229.57
759.82	229.51
760.15	229.38
760.47	229.17
760.80	228.94
761.13	228.77
761.45	228.58
761.78	228.41
762.11	228.23
762.43	228.12
762.76	227.96
763.08	227.83
763.41	227.68
763.74	227.53
764.06	227.34
764.39	227.19
764.71	227.03
765.04	226.88
765.37	226.69
765.69	226.57
766.02	226.44
766.34	226.26
766.67	226.01
767.00	225.86
767.32	225.84
767.65	225.81
767.97	225.68
768.30	225.61
768.62	225.48
768.95	225.35
769.27	225.18
769.60	225.05
769.92	224.90
770.25	224.75
770.57	224.60
770.90	224.50
771.22	224.36
771.55	224.28
771.87	224.15
772.20	224.02
772.52	224.06
772.85	224.17
773.17	224.09
773.50	223.97
773.82	223.87
774.15	223.66
774.47	223.44
774.80	223.32
775.12	223.18
775.45	223.11
775.77	223.03
776.09	222.93
776.42	222.86
776.74	222.81
777.07	222.71
777.39	222.66
777.72	222.52
778.04	222.49
778.36	222.36
778.69	222.27
779.01	222.23
779.33	221.98
779.66	221.66
779.98	221.57
780.31	221.52
780.63	221.51
780.95	221.48
781.28	221.38
781.60	221.28
781.92	221.24
782.25	221.13
782.57	221.06
782.89	220.99
783.22	220.91
783.54	220.81
783.86	220.80
784.19	220.73
784.51	220.73
784.83	220.64
785.16	220.57
785.48	220.52
785.80	220.45
786.12	220.40
786.45	220.35
786.77	220.29
787.09	220.19
787.42	220.05
787.74	219.99
788.06	219.96
788.38	219.94
788.71	219.86
789.03	219.79
789.35	219.76
789.67	219.70
789.99	219.68
790.32	219.60
790.64	219.52
790.96	219.65
791.28	219.53
791.61	219.47
791.93	219.44
792.25	219.39
792.57	219.49
792.89	219.41
793.21	219.36
793.54	219.29
793.86	219.26
794.18	219.22
794.50	219.14
794.82	219.08
795.14	219.05
795.47	219.05
795.79	219.04
796.11	218.97
796.43	218.90
796.75	218.86
797.07	218.85
797.39	218.85
797.71	218.64
798.04	218.61
798.36	218.58
798.68	218.54
799.00	218.54
799.32	218.36
799.64	218.36
799.96	218.33
800.28	218.38
800.60	218.34
800.92	218.34
801.24	218.28
801.56	218.26
801.89	218.21
802.21	218.15
802.53	218.07
802.85	218.08
803.17	218.19
803.49	218.08
803.81	218.02
804.13	217.93
804.45	217.89
804.77	217.88
805.09	217.86
805.41	217.81
805.73	217.71
806.05	217.65
806.37	217.61
806.69	217.54
807.01	217.43
807.33	217.41
807.65	217.33
807.97	217.39
808.28	217.36
808.60	217.33
808.92	217.29
809.24	217.38
809.56	217.31
809.88	217.18
810.20	217.19
810.52	217.20
810.84	217.18
811.16	217.13
811.48	217.07
811.80	217.11
812.12	217.11
812.43	217.14
812.75	217.11
813.07	217.09
813.39	217.06
813.71	217.03
814.03	216.99
814.35	216.99
814.67	216.90
814.98	216.84
815.30	216.81
815.62	216.75
815.94	216.57
816.26	216.53
816.58	216.48
816.89	216.46
817.21	216.39
817.53	216.39
817.85	216.41
818.17	216.39
818.48	216.27
818.80	216.29
819.12	216.22
819.44	216.17
819.76	216.13
820.07	216.17
820.39	216.15
820.71	216.15
821.03	216.09
821.34	216.04
821.66	216.05
821.98	216.05
822.30	216.03
822.61	216.16
822.93	216.15
823.25	216.12
823.57	216.10
823.88	216.10
824.20	216.08
824.52	216.10
824.83	216.09
825.15	216.08
825.47	216.02
825.79	216.03
826.10	216.03
826.42	216.01
826.74	215.98
827.05	215.99
827.37	215.98
827.69	215.98
828.00	215.95
828.32	215.97
828.64	215.91
828.95	216.02
829.27	215.95
829.58	215.91
829.90	215.94
830.22	215.92
830.53	215.89
830.85	215.84
831.17	215.76
831.48	215.71
831.80	215.69
832.11	215.67
832.43	215.61
832.75	215.59
833.06	215.70
833.38	215.64
833.69	215.60
834.01	215.59
834.32	215.59
834.64	215.60
834.96	215.53
835.27	215.53
835.59	215.44
835.90	215.38
836.22	215.40
836.53	215.37
836.85	215.31
837.16	215.50
837.48	215.49
837.79	215.55
838.11	215.56
838.42	215.60
838.74	215.61
839.05	215.61
839.37	215.61
839.68	215.46
840.00	215.47
840.31	215.48
840.63	215.46
840.94	215.45
841.26	215.40
841.57	215.42
841.88	215.43
842.20	215.39
842.51	215.39
842.83	215.39
843.14	215.55
843.46	215.60
843.77	215.45
844.08	215.45
844.40	215.39
844.71	215.38
845.03	215.34
845.34	215.34
845.65	215.33
845.97	215.28
846.28	215.26
846.60	215.26
846.91	215.23
847.22	215.19
847.54	215.20
847.85	215.24
848.16	215.20
848.48	215.15
848.79	215.25
849.10	215.27
849.42	215.24
849.73	215.07
850.04	215.07
850.36	215.01
850.67	215.06
850.98	215.06
851.30	215.08
851.61	215.08
851.92	215.08
852.23	215.15
852.55	215.16
852.86	215.21
853.17	215.22
853.49	215.28
853.80	215.32
854.11	215.33
854.42	215.36
854.74	215.36
855.05	215.36
855.36	215.23
855.67	215.22
855.99	215.22
856.30	215.46
856.61	215.46
856.92	215.48
857.23	215.42
857.55	215.39
857.86	215.36
858.17	215.38
858.48	215.34
858.79	215.31
859.11	215.34
859.42	215.29
859.73	215.24
860.04	215.21
860.35	215.15
860.66	215.08
860.98	215.01
861.29	215.05
861.60	215.03
861.91	215.11
862.22	215.07
862.53	215.05
862.84	214.81
863.16	214.85
863.47	214.80
863.78	214.81
864.09	214.78
864.40	214.80
864.71	214.80
865.02	214.81
865.33	214.75
865.64	214.75
865.95	214.79
866.27	214.92
866.58	214.90
866.89	214.95
867.20	214.97
867.51	214.95
867.82	214.92
868.13	214.98
868.44	214.91
868.75	214.96
869.06	214.98
869.37	214.99
869.68	214.90
869.99	214.94
870.30	214.94
870.61	214.97
870.92	214.92
871.23	214.88
871.54	214.91
871.85	214.98
872.16	214.99
872.47	214.96
872.78	214.85
873.09	214.88
873.40	214.84
873.71	214.80
874.02	214.82
874.33	214.81
874.64	214.76
874.95	214.80
875.26	214.77
875.56	214.73
875.87	214.70
876.18	214.73
876.49	214.90
876.80	214.90
877.11	214.87
877.42	214.86
877.73	214.87
878.04	214.84
878.35	214.80
878.66	214.80
878.96	214.80
879.27	214.81
879.58	214.77
879.89	214.73
880.20	214.83
880.51	214.82
880.82	214.81
881.12	214.85
881.43	214.80
881.74	214.76
882.05	214.78
882.36	214.82
882.67	214.79
882.97	214.59
883.28	214.59
883.59	214.61
883.90	214.65
884.21	214.65
884.51	214.62
884.82	214.60
885.13	214.60
885.44	214.58
885.74	214.58
886.05	214.59
886.36	214.63
886.67	214.52
886.98	214.63
887.28	214.67
887.59	214.64
887.90	214.64
888.20	214.61
888.51	214.65
888.82	214.63
889.13	214.65
889.43	214.83
889.74	214.82
890.05	214.81
890.35	214.76
890.66	214.73
890.97	214.73
891.28	214.71
891.58	214.70
891.89	214.71
892.20	214.67
892.50	214.63
892.81	214.63
893.12	214.67
893.42	214.57
893.73	214.56
894.04	214.55
894.34	214.57
894.65	214.58
894.95	214.52
895.26	214.52
895.57	214.61
895.87	214.40
896.18	214.40
896.48	214.40
896.79	214.41
897.10	214.46
897.40	214.47
897.71	214.48
898.01	214.45
898.32	214.49
898.63	214.49
898.93	214.53
899.24	214.52
899.54	214.49
899.85	214.48
900.15	214.49
900.46	214.51
900.76	214.51
901.07	214.49
901.38	214.50
901.68	214.49
901.99	214.38
902.29	214.41
902.60	214.39
902.90	214.37
903.21	214.36
903.51	214.35
903.82	214.37
904.12	214.39
904.43	214.42
904.73	214.36
905.03	214.38
905.34	214.56
905.64	214.57
905.95	214.55
906.25	214.54
906.56	214.50
906.86	214.52
907.17	214.49
907.47	214.54
907.77	214.56
908.08	214.53
908.38	214.56
908.69	214.54
908.99	214.60
909.30	214.63
909.60	214.65
909.90	214.64
910.21	214.55
910.51	214.51
910.81	214.50
911.12	214.53
911.42	214.52
911.73	214.28
912.03	214.25
912.33	214.30
912.64	214.32
912.94	214.29
913.24	214.24
913.55	214.23
913.85	214.21
914.15	214.24
914.46	214.25
914.76	214.21
915.06	214.23
915.37	214.16
915.67	214.14
915.97	214.14
916.27	214.12
916.58	214.17
916.88	214.19
917.18	214.19
917.49	214.33
917.79	214.31
918.09	214.34
918.39	214.42
918.70	214.38
919.00	214.36
919.30	214.45
919.60	214.44
919.91	214.44
920.21	214.44
920.51	214.41
920.81	214.40
921.12	214.44
921.42	214.44
921.72	214.44
922.02	214.43
922.32	214.45
922.63	214.44
922.93	214.53
923.23	214.54
923.53	214.50
923.83	214.37
924.13	214.40
924.44	214.41
924.74	214.42
925.04	214.47
925.34	214.46
925.64	214.38
925.94	214.39
926.24	214.51
926.55	214.52
926.85	214.52
927.15	214.50
927.45	214.46
927.75	214.44
928.05	214.46
928.35	214.45
928.65	214.51
928.95	214.53
929.26	214.42
929.56	214.44
929.86	214.50
930.16	214.49
930.46	214.46
930.76	214.45
931.06	214.37
931.36	214.32
931.66	214.37
931.96	214.37
932.26	214.37
932.56	214.27
932.86	214.24
933.16	214.24
933.46	214.21
933.76	214.21
934.06	214.24
934.36	214.31
934.66	214.32
934.96	214.29
935.26	214.31
935.56	214.37
935.86	214.33
936.16	214.28
936.46	214.25
936.76	214.28
937.06	214.29
937.36	214.30
937.66	214.33
937.96	214.31
938.26	214.31
938.56	214.30
938.86	214.34
939.16	214.38
939.46	214.41
939.76	214.45
940.06	214.48
940.35	214.44
940.65	214.30
940.95	214.30
941.25	214.24
941.55	214.24
941.85	214.21
942.15	214.27
942.45	214.31
942.75	214.32
943.04	214.30
943.34	214.32
943.64	214.29
943.94	214.26
944.24	214.27
944.54	214.26
944.84	214.25
945.13	214.22
945.43	214.19
945.73	214.19
946.03	214.17
946.33	214.14
946.62	214.13
946.92	214.17
947.22	214.21
947.52	214.25
947.82	214.25
948.11	214.22
948.41	214.17
948.71	214.10
949.01	214.10
949.31	214.10
949.60	214.09
949.90	214.13
950.20	214.11
950.50	214.13
950.79	214.14
951.09	214.17
951.39	214.15
951.69	214.13
951.98	214.18
952.28	214.19
952.58	214.20
952.87	214.25
953.17	214.26
953.47	214.20
953.76	214.18
954.06	214.13
954.36	214.12
954.66	214.09
954.95	214.18
955.25	214.20
955.55	214.19
955.84	214.15
956.14	214.18
956.44	214.22
956.73	214.20
957.03	214.20
957.32	214.21
957.62	214.25
957.92	214.33
958.21	214.30
958.51	214.52
958.81	214.55
959.10	214.55
959.40	214.62
959.69	214.64
959.99	214.68
960.29	214.69
960.58	214.67
960.88	214.78
961.17	214.75
961.47	214.75
961.76	214.73
962.06	214.78
962.36	214.72
962.65	214.71
962.95	214.70
963.24	214.67
963.54	214.67
963.83	214.66
964.13	214.63
964.42	214.59
964.72	214.41
965.01	214.40
965.31	214.36
965.60	214.28
965.90	214.42
966.19	214.34
966.49	214.37
966.78	214.37
967.08	214.34
967.37	214.36
967.67	214.35
967.96	214.40
968.26	214.40
968.55	214.46
968.85	214.47
969.14	214.49
969.43	214.51
969.73	214.50
970.02	214.49
970.32	214.45
970.61	214.43
970.91	214.40
971.20	214.34
971.49	214.37
971.79	214.40
972.08	214.25
972.38	214.26
972.67	214.27
972.96	214.32
973.26	214.30
973.55	214.34
973.85	214.33
974.14	214.33
974.43	214.32
974.73	214.26
975.02	214.24
975.31	214.23
975.61	214.22
975.90	214.20
976.19	214.20
976.49	214.22
976.78	214.27
977.07	214.25
977.37	214.29
977.66	214.29
977.95	214.29
978.24	214.32
978.54	214.41
978.83	214.36
979.12	214.35
979.42	214.29
979.71	214.27
980.00	214.27
980.29	214.26
980.59	214.20
980.88	214.26
981.17	214.23
981.46	214.24
981.76	214.21
982.05	214.27
982.34	214.26
982.63	214.26
982.93	214.24
983.22	214.30
983.51	214.31
983.80	214.34
984.09	214.35
984.39	214.33
984.68	214.27
984.97	214.30
985.26	214.28
985.55	214.33
985.85	214.28
986.14	214.33
986.43	214.33
986.72	214.34
987.01	214.24
987.30	214.28
987.59	214.24
987.89	214.28
988.18	214.22
988.47	214.23
988.76	214.20
989.05	214.18
989.34	214.13
989.63	214.16
989.92	214.10
990.22	214.09
990.51	214.07
990.80	214.08
991.09	214.07
991.38	214.09
991.67	214.06
991.96	214.04
992.25	214.01
992.54	213.96
992.83	213.95
993.12	213.98
993.41	213.99
993.70	214.12
993.99	214.12
994.28	214.16
994.58	214.16
994.87	214.16
995.16	214.18
995.45	214.17
995.74	214.12
996.03	214.13
996.32	214.15
996.61	214.20
996.90	214.17
997.19	214.16
997.48	214.15
997.77	214.15
998.06	214.17
998.34	214.16
998.63	214.22
998.92	214.25
999.21	214.29
999.50	214.28
999.79	214.16
1000.08	214.17
1000.37	214.16
1000.66	214.16
1000.95	214.18
1001.24	214.17
1001.53	214.18
1001.82	214.16
1002.11	214.13
1002.40	214.15
1002.68	214.17
1002.97	214.36
1003.26	214.36
1003.55	214.36
1003.84	214.38
1004.13	214.47
1004.42	214.48
1004.71	214.44
1004.99	214.42
1005.28	214.43
1005.57	214.45
1005.86	214.44
1006.15	214.43
1006.44	214.39
1006.72	214.43
1007.01	214.45
1007.30	214.46
1007.59	214.44
1007.88	214.44
1008.17	214.45
1008.45	214.37
1008.74	214.25
1009.03	214.12
1009.32	214.14
1009.60	214.14
1009.89	214.09
1010.18	213.96
1010.47	213.91
1010.76	213.94
1011.04	213.94
1011.33	213.95
1011.62	213.94
1011.91	213.95
1012.19	213.94
1012.48	213.98
1012.77	213.98
1013.05	214.06
1013.34	214.06
1013.63	214.07
1013.92	214.10
1014.20	214.10
1014.49	214.12
1014.78	214.18
1015.06	214.14
1015.35	214.08
1015.64	214.12
1015.92	214.14
1016.21	214.18
1016.50	214.21
1016.78	214.24
1017.07	214.24
1017.36	214.23
1017.64	214.17
1017.93	214.20
1018.22	214.19
1018.50	214.15
1018.79	214.15
1019.08	214.00
1019.36	214.02
1019.65	214.02
1019.93	214.08
1020.22	214.09
1020.51	214.22
1020.79	214.20
1021.08	213.91
1021.36	213.60
1021.65	214.71
1021.94	213.51
1022.22	214.37
1022.51	214.02
1022.79	215.28
1023.08	214.17
1023.36	216.45
1023.65	213.77
>>>>>End Processed Spectral Data<<<<<
