SpectraSuite Data File
++++++++++++++++++++++++++++++++++++
Date: Tue Jan 29 16:34:08 EST 2013
User: group
Dark Spectrum Present: No
Reference Spectrum Present: No
Number of Sampled Component Spectra: 1
Spectrometers: USB2E7196
Integration Time (usec): 65000 (USB2E7196)
Spectra Averaged: 100 (USB2E7196)
Boxcar Smoothing: 10 (USB2E7196)
Correct for Electrical Dark: No (USB2E7196)
Strobe/Lamp Enabled: No (USB2E7196)
Correct for Detector Non-linearity: No (USB2E7196)
Correct for Stray Light: No (USB2E7196)
Number of Pixels in Processed Spectrum: 2048
>>>>>Begin Processed Spectral Data<<<<<
339.09	0.00
339.48	201.37
339.86	203.52
340.24	204.35
340.63	206.04
341.01	210.31
341.39	208.53
341.78	210.21
342.16	211.70
342.54	211.96
342.93	200.89
343.31	211.02
343.69	211.60
344.07	212.06
344.46	212.50
344.84	212.92
345.22	213.08
345.60	213.36
345.99	213.57
346.37	213.69
346.75	213.79
347.13	213.86
347.52	213.97
347.90	214.12
348.28	214.18
348.66	214.24
349.05	214.21
349.43	214.31
349.81	214.38
350.19	214.44
350.57	214.53
350.96	214.63
351.34	214.75
351.72	214.84
352.10	214.93
352.48	215.03
352.87	215.08
353.25	215.17
353.63	215.21
354.01	215.26
354.39	215.35
354.77	215.43
355.15	215.53
355.54	215.57
355.92	215.58
356.30	215.62
356.68	215.87
357.06	215.96
357.44	215.99
357.82	216.04
358.20	216.15
358.58	216.20
358.97	216.24
359.35	216.38
359.73	216.47
360.11	216.56
360.49	216.61
360.87	216.63
361.25	216.71
361.63	216.83
362.01	216.91
362.39	216.93
362.77	216.96
363.15	217.01
363.53	217.08
363.91	217.10
364.29	217.16
364.67	216.98
365.05	216.98
365.43	217.01
365.81	217.06
366.19	217.13
366.57	217.23
366.95	217.24
367.33	217.18
367.71	217.18
368.09	217.19
368.47	217.19
368.85	217.21
369.23	217.24
369.61	217.17
369.99	217.22
370.37	217.23
370.75	217.33
371.13	217.27
371.51	217.17
371.89	217.18
372.27	217.11
372.65	217.09
373.03	217.08
373.41	217.04
373.78	216.99
374.16	216.85
374.54	216.76
374.92	216.71
375.30	216.66
375.68	216.56
376.06	216.54
376.44	216.47
376.82	216.41
377.19	216.35
377.57	216.28
377.95	216.16
378.33	216.08
378.71	215.88
379.09	215.88
379.47	215.92
379.84	215.83
380.22	215.81
380.60	215.74
380.98	215.68
381.36	215.63
381.73	215.55
382.11	215.55
382.49	215.48
382.87	215.43
383.25	215.40
383.62	215.61
384.00	215.50
384.38	215.48
384.76	215.52
385.13	215.57
385.51	215.56
385.89	215.46
386.27	215.48
386.64	215.52
387.02	215.44
387.40	215.34
387.78	215.35
388.15	215.33
388.53	215.28
388.91	215.23
389.29	215.23
389.66	215.27
390.04	215.22
390.42	215.25
390.79	215.25
391.17	215.24
391.55	215.01
391.92	215.04
392.30	215.02
392.68	214.95
393.05	214.91
393.43	214.90
393.81	214.96
394.18	214.93
394.56	214.96
394.94	215.00
395.31	215.03
395.69	215.10
396.06	215.12
396.44	215.17
396.82	215.22
397.19	215.30
397.57	215.29
397.95	215.39
398.32	215.34
398.70	215.40
399.07	215.49
399.45	215.50
399.82	215.55
400.20	215.62
400.58	215.68
400.95	215.65
401.33	215.76
401.70	215.96
402.08	216.00
402.45	216.02
402.83	216.18
403.20	216.30
403.58	216.37
403.95	216.51
404.33	216.66
404.71	216.81
405.08	217.09
405.46	217.24
405.83	217.42
406.21	217.64
406.58	217.85
406.96	218.07
407.33	218.32
407.70	218.60
408.08	219.06
408.45	219.45
408.83	219.86
409.20	220.22
409.58	220.50
409.95	221.01
410.33	221.50
410.70	221.94
411.08	222.51
411.45	223.09
411.82	223.68
412.20	224.38
412.57	225.16
412.95	225.72
413.32	226.55
413.69	227.38
414.07	228.29
414.44	229.28
414.82	230.29
415.19	231.51
415.56	232.70
415.94	233.86
416.31	235.23
416.68	236.63
417.06	238.24
417.43	239.81
417.81	241.57
418.18	243.37
418.55	245.30
418.93	247.29
419.30	249.41
419.67	251.66
420.04	253.95
420.42	256.37
420.79	259.22
421.16	262.04
421.54	264.99
421.91	267.96
422.28	271.07
422.66	274.39
423.03	277.65
423.40	281.01
423.77	284.65
424.15	288.34
424.52	292.18
424.89	296.40
425.26	300.47
425.64	304.33
426.01	308.60
426.38	313.10
426.75	317.66
427.13	322.40
427.50	327.42
427.87	332.63
428.24	337.81
428.61	342.74
428.99	348.26
429.36	354.31
429.73	360.25
430.10	366.14
430.47	372.17
430.85	378.51
431.22	385.19
431.59	392.27
431.96	399.09
432.33	406.61
432.70	413.83
433.08	422.39
433.45	430.51
433.82	438.56
434.19	447.48
434.56	456.19
434.93	464.53
435.30	472.79
435.68	481.88
436.05	490.94
436.42	499.95
436.79	508.11
437.16	516.80
437.53	526.07
437.90	535.17
438.27	544.19
438.64	553.42
439.01	562.04
439.38	569.70
439.75	577.01
440.13	585.44
440.50	593.41
440.87	599.83
441.24	606.43
441.61	613.73
441.98	619.09
442.35	625.43
442.72	631.79
443.09	637.84
443.46	641.67
443.83	644.20
444.20	646.32
444.57	649.47
444.94	650.97
445.31	652.48
445.68	653.96
446.05	654.48
446.42	653.66
446.79	652.67
447.16	651.55
447.53	650.79
447.90	647.47
448.27	644.17
448.64	639.53
449.01	636.27
449.37	630.38
449.74	624.71
450.11	617.77
450.48	610.31
450.85	602.86
451.22	596.28
451.59	590.06
451.96	584.25
452.33	576.36
452.70	569.23
453.07	560.68
453.43	552.03
453.80	543.81
454.17	535.85
454.54	528.31
454.91	520.07
455.28	512.14
455.65	504.71
456.02	497.17
456.38	490.85
456.75	482.97
457.12	476.42
457.49	469.94
457.86	463.78
458.23	458.45
458.59	452.47
458.96	446.51
459.33	441.23
459.70	435.87
460.07	431.60
460.43	426.69
460.80	422.07
461.17	418.08
461.54	413.85
461.91	409.79
462.27	405.66
462.64	402.25
463.01	398.39
463.38	394.67
463.74	390.97
464.11	387.69
464.48	384.82
464.85	381.74
465.21	379.27
465.58	376.60
465.95	373.44
466.32	370.82
466.68	368.24
467.05	365.66
467.42	363.07
467.78	360.34
468.15	357.80
468.52	355.93
468.88	353.43
469.25	351.23
469.62	349.45
469.98	347.48
470.35	345.68
470.72	343.98
471.08	342.14
471.45	340.62
471.82	339.10
472.18	337.38
472.55	336.13
472.92	334.74
473.28	333.53
473.65	332.37
474.02	331.25
474.38	330.31
474.75	329.49
475.11	328.67
475.48	328.15
475.85	327.66
476.21	327.11
476.58	326.75
476.94	326.55
477.31	326.20
477.67	325.93
478.04	325.77
478.41	325.76
478.77	325.98
479.14	325.96
479.50	326.06
479.87	326.36
480.23	326.69
480.60	326.92
480.96	327.18
481.33	327.79
481.69	328.37
482.06	328.92
482.42	329.43
482.79	330.02
483.15	330.76
483.52	331.71
483.88	332.63
484.25	333.57
484.61	334.54
484.98	335.62
485.34	336.98
485.71	338.38
486.07	339.79
486.44	341.07
486.80	342.66
487.17	344.34
487.53	346.16
487.90	348.00
488.26	350.08
488.62	352.29
488.99	354.32
489.35	356.46
489.72	358.82
490.08	361.33
490.44	363.90
490.81	366.69
491.17	369.38
491.54	372.39
491.90	375.43
492.26	378.72
492.63	382.15
492.99	385.63
493.36	389.30
493.72	393.21
494.08	397.25
494.45	401.55
494.81	405.97
495.17	410.47
495.54	415.24
495.90	420.01
496.26	424.93
496.63	430.17
496.99	435.57
497.35	441.19
497.72	447.05
498.08	453.03
498.44	459.15
498.80	465.58
499.17	472.10
499.53	478.76
499.89	485.62
500.26	492.54
500.62	499.66
500.98	507.07
501.34	514.56
501.71	522.33
502.07	530.11
502.43	538.16
502.79	546.32
503.16	554.75
503.52	563.39
503.88	572.10
504.24	581.09
504.60	590.22
504.97	599.47
505.33	608.79
505.69	618.73
506.05	628.58
506.41	638.58
506.78	648.65
507.14	658.94
507.50	669.47
507.86	680.27
508.22	691.11
508.59	701.81
508.95	712.94
509.31	724.26
509.67	735.81
510.03	747.26
510.39	759.08
510.75	770.94
511.12	782.92
511.48	795.15
511.84	807.45
512.20	819.83
512.56	832.55
512.92	845.40
513.28	858.07
513.64	870.95
514.00	883.79
514.37	896.91
514.73	910.11
515.09	923.29
515.45	936.27
515.81	949.30
516.17	962.77
516.53	976.09
516.89	989.24
517.25	1002.39
517.61	1016.02
517.97	1029.49
518.33	1042.73
518.69	1056.35
519.05	1070.28
519.41	1084.10
519.77	1098.13
520.13	1111.49
520.49	1124.77
520.85	1138.27
521.21	1151.72
521.57	1165.45
521.93	1178.62
522.29	1192.56
522.65	1206.17
523.01	1219.89
523.37	1233.26
523.73	1246.74
524.09	1259.99
524.45	1273.65
524.81	1287.36
525.17	1300.82
525.53	1314.13
525.89	1327.69
526.25	1341.02
526.61	1353.84
526.97	1366.99
527.33	1380.14
527.68	1393.79
528.04	1407.37
528.40	1420.54
528.76	1433.92
529.12	1447.05
529.48	1460.40
529.84	1472.75
530.20	1485.67
530.56	1498.33
530.91	1511.78
531.27	1524.72
531.63	1537.60
531.99	1550.44
532.35	1562.78
532.71	1575.30
533.07	1588.28
533.42	1600.64
533.78	1612.89
534.14	1625.17
534.50	1636.69
534.86	1648.27
535.21	1659.16
535.57	1670.96
535.93	1682.28
536.29	1693.60
536.65	1705.11
537.00	1716.31
537.36	1727.94
537.72	1739.02
538.08	1750.63
538.44	1761.70
538.79	1773.02
539.15	1784.12
539.51	1794.96
539.87	1806.38
540.22	1817.34
540.58	1828.42
540.94	1839.44
541.29	1849.75
541.65	1859.54
542.01	1870.06
542.37	1880.28
542.72	1890.68
543.08	1900.39
543.44	1911.16
543.79	1920.50
544.15	1930.07
544.51	1940.00
544.87	1949.82
545.22	1959.15
545.58	1968.17
545.94	1977.08
546.29	1985.49
546.65	1993.91
547.01	2002.21
547.36	2010.02
547.72	2017.78
548.07	2025.34
548.43	2033.15
548.79	2041.13
549.14	2049.39
549.50	2057.96
549.86	2066.05
550.21	2073.63
550.57	2081.50
550.92	2088.30
551.28	2095.86
551.64	2103.23
551.99	2110.78
552.35	2118.01
552.70	2124.89
553.06	2131.56
553.41	2137.93
553.77	2144.59
554.13	2151.07
554.48	2158.26
554.84	2165.53
555.19	2172.19
555.55	2178.67
555.90	2184.89
556.26	2191.83
556.61	2198.04
556.97	2202.87
557.32	2208.58
557.68	2214.89
558.03	2220.67
558.39	2226.20
558.74	2232.33
559.10	2237.89
559.45	2243.60
559.81	2249.10
560.16	2254.75
560.52	2260.63
560.87	2267.05
561.23	2272.93
561.58	2279.56
561.94	2284.71
562.29	2289.08
562.64	2295.13
563.00	2300.88
563.35	2306.52
563.71	2312.05
564.06	2317.62
564.42	2323.60
564.77	2328.69
565.12	2334.07
565.48	2339.04
565.83	2344.40
566.19	2349.60
566.54	2354.91
566.89	2359.38
567.25	2364.09
567.60	2369.76
567.96	2374.90
568.31	2379.39
568.66	2383.84
569.02	2387.73
569.37	2391.53
569.72	2396.18
570.08	2399.60
570.43	2402.78
570.78	2405.78
571.14	2408.29
571.49	2411.40
571.84	2414.85
572.20	2417.73
572.55	2420.55
572.90	2422.99
573.26	2425.74
573.61	2428.43
573.96	2430.62
574.31	2432.69
574.67	2434.44
575.02	2435.15
575.37	2436.54
575.72	2437.22
576.08	2438.51
576.43	2438.56
576.78	2438.83
577.13	2440.17
577.49	2441.36
577.84	2442.18
578.19	2443.51
578.54	2443.99
578.90	2444.57
579.25	2444.40
579.60	2444.22
579.95	2443.40
580.30	2443.33
580.66	2442.52
581.01	2440.69
581.36	2438.23
581.71	2436.72
582.06	2435.52
582.42	2434.76
582.77	2432.45
583.12	2430.91
583.47	2429.48
583.82	2428.91
584.17	2427.63
584.53	2425.47
584.88	2423.32
585.23	2421.57
585.58	2419.19
585.93	2417.32
586.28	2415.14
586.63	2412.51
586.98	2410.39
587.34	2408.54
587.69	2405.96
588.04	2403.88
588.39	2402.42
588.74	2399.90
589.09	2397.35
589.44	2394.18
589.79	2391.38
590.14	2389.35
590.49	2386.33
590.84	2382.29
591.19	2378.97
591.54	2375.80
591.89	2371.87
592.25	2368.62
592.60	2364.22
592.95	2360.10
593.30	2355.88
593.65	2351.43
594.00	2347.02
594.35	2343.92
594.70	2339.12
595.05	2334.53
595.40	2329.12
595.75	2323.21
596.10	2319.48
596.45	2314.42
596.80	2309.78
597.15	2304.53
597.50	2298.50
597.85	2293.48
598.19	2288.39
598.54	2282.65
598.89	2277.30
599.24	2272.52
599.59	2266.24
599.94	2260.36
600.29	2254.34
600.64	2248.23
600.99	2241.35
601.34	2235.80
601.69	2228.61
602.04	2222.23
602.39	2215.51
602.74	2209.16
603.08	2203.56
603.43	2196.99
603.78	2190.16
604.13	2183.02
604.48	2175.71
604.83	2169.55
605.18	2163.21
605.53	2156.21
605.87	2149.21
606.22	2142.42
606.57	2134.63
606.92	2126.62
607.27	2119.66
607.62	2113.00
607.96	2106.04
608.31	2099.62
608.66	2091.84
609.01	2084.23
609.36	2076.97
609.70	2069.30
610.05	2061.55
610.40	2053.15
610.75	2044.67
611.10	2036.79
611.44	2027.71
611.79	2018.97
612.14	2009.06
612.49	1998.48
612.83	1989.08
613.18	1979.57
613.53	1970.14
613.88	1960.39
614.22	1951.73
614.57	1941.88
614.92	1931.05
615.27	1920.76
615.61	1910.54
615.96	1900.81
616.31	1891.14
616.65	1881.57
617.00	1871.84
617.35	1862.26
617.70	1852.54
618.04	1842.65
618.39	1832.46
618.74	1822.92
619.08	1813.24
619.43	1804.50
619.78	1796.26
620.12	1787.54
620.47	1778.06
620.82	1767.70
621.16	1757.88
621.51	1747.85
621.85	1737.94
622.20	1727.66
622.55	1717.02
622.89	1707.05
623.24	1697.41
623.59	1687.56
623.93	1677.43
624.28	1667.47
624.62	1657.30
624.97	1647.07
625.32	1637.13
625.66	1628.10
626.01	1619.32
626.35	1609.96
626.70	1599.82
627.04	1589.65
627.39	1579.48
627.73	1570.09
628.08	1561.19
628.43	1551.67
628.77	1542.52
629.12	1533.50
629.46	1525.71
629.81	1517.44
630.15	1507.93
630.50	1497.96
630.84	1487.51
631.19	1477.59
631.53	1468.37
631.88	1458.22
632.22	1448.14
632.57	1438.83
632.91	1428.84
633.26	1418.80
633.60	1409.21
633.95	1399.94
634.29	1390.32
634.64	1381.08
634.98	1371.04
635.32	1361.67
635.67	1353.05
636.01	1343.72
636.36	1334.03
636.70	1324.37
637.05	1314.81
637.39	1305.82
637.73	1297.23
638.08	1289.57
638.42	1281.33
638.77	1272.54
639.11	1264.30
639.45	1256.50
639.80	1247.99
640.14	1239.14
640.49	1230.44
640.83	1221.56
641.17	1213.34
641.52	1205.24
641.86	1196.68
642.20	1188.82
642.55	1180.04
642.89	1171.23
643.23	1162.57
643.58	1154.33
643.92	1145.28
644.26	1136.63
644.61	1128.23
644.95	1119.33
645.29	1110.17
645.64	1101.09
645.98	1092.51
646.32	1084.53
646.66	1075.92
647.01	1067.49
647.35	1059.32
647.69	1051.06
648.04	1042.76
648.38	1033.86
648.72	1025.08
649.06	1016.49
649.41	1008.23
649.75	1000.35
650.09	992.43
650.43	984.36
650.78	976.08
651.12	968.38
651.46	960.92
651.80	953.66
652.14	946.38
652.49	938.79
652.83	931.41
653.17	923.74
653.51	916.00
653.85	908.78
654.20	901.54
654.54	894.10
654.88	886.69
655.22	879.48
655.56	872.46
655.90	865.61
656.25	858.88
656.59	852.03
656.93	845.05
657.27	837.84
657.61	830.83
657.95	824.65
658.29	818.60
658.64	812.48
658.98	805.89
659.32	799.34
659.66	793.05
660.00	786.67
660.34	780.54
660.68	774.44
661.02	768.03
661.36	761.95
661.70	756.06
662.05	750.36
662.39	744.71
662.73	739.20
663.07	733.75
663.41	728.10
663.75	722.30
664.09	716.50
664.43	711.06
664.77	705.72
665.11	699.87
665.45	693.97
665.79	688.04
666.13	682.33
666.47	676.77
666.81	671.23
667.15	665.80
667.49	660.51
667.83	655.12
668.17	649.81
668.51	644.66
668.85	639.77
669.19	634.85
669.53	629.79
669.87	624.67
670.21	619.81
670.55	615.06
670.89	610.49
671.23	606.09
671.57	601.62
671.91	597.24
672.25	593.05
672.58	588.91
672.92	584.87
673.26	580.89
673.60	576.94
673.94	573.10
674.28	569.45
674.62	565.68
674.96	561.93
675.30	558.40
675.64	554.69
675.97	550.95
676.31	547.30
676.65	543.77
676.99	540.29
677.33	536.43
677.67	532.82
678.01	529.01
678.34	525.37
678.68	521.82
679.02	518.13
679.36	514.41
679.70	510.71
680.04	507.03
680.37	503.52
680.71	500.20
681.05	496.94
681.39	493.58
681.73	490.32
682.06	487.28
682.40	484.14
682.74	480.86
683.08	477.73
683.42	474.45
683.75	471.34
684.09	468.24
684.43	465.45
684.77	462.47
685.10	459.63
685.44	456.65
685.78	453.69
686.12	450.88
686.45	448.08
686.79	445.36
687.13	442.84
687.46	440.17
687.80	437.38
688.14	434.50
688.48	431.81
688.81	429.14
689.15	426.52
689.49	423.92
689.82	421.40
690.16	418.73
690.50	416.25
690.83	413.74
691.17	411.21
691.51	408.64
691.84	406.29
692.18	403.98
692.52	401.76
692.85	399.62
693.19	397.44
693.52	395.30
693.86	393.04
694.20	390.79
694.53	388.64
694.87	386.47
695.21	384.30
695.54	382.12
695.88	379.89
696.21	377.63
696.55	375.41
696.88	373.32
697.22	371.33
697.56	369.43
697.89	367.49
698.23	365.70
698.56	363.92
698.90	362.14
699.23	360.20
699.57	358.29
699.90	356.33
700.24	354.51
700.58	352.71
700.91	351.02
701.25	349.46
701.58	347.83
701.92	346.20
702.25	344.61
702.59	342.97
702.92	341.41
703.26	339.83
703.59	338.30
703.93	336.99
704.26	335.48
704.60	333.93
704.93	332.46
705.26	330.90
705.60	329.39
705.93	327.81
706.27	326.48
706.60	325.20
706.94	323.95
707.27	322.57
707.61	321.20
707.94	319.83
708.27	318.25
708.61	316.76
708.94	315.35
709.28	314.05
709.61	312.77
709.94	311.55
710.28	310.36
710.61	309.19
710.95	307.73
711.28	306.66
711.61	305.46
711.95	304.26
712.28	303.07
712.61	301.85
712.95	300.78
713.28	299.74
713.61	298.58
713.95	297.41
714.28	296.33
714.61	295.25
714.95	294.24
715.28	293.23
715.61	292.22
715.95	291.26
716.28	290.25
716.61	289.31
716.95	288.28
717.28	287.36
717.61	286.41
717.94	285.54
718.28	284.49
718.61	283.56
718.94	282.63
719.27	281.75
719.61	280.94
719.94	280.06
720.27	279.02
720.60	278.11
720.94	277.30
721.27	276.52
721.60	275.85
721.93	275.09
722.27	274.47
722.60	273.80
722.93	273.04
723.26	272.40
723.59	271.67
723.93	271.04
724.26	270.34
724.59	269.67
724.92	269.05
725.25	268.51
725.59	267.95
725.92	267.42
726.25	266.88
726.58	266.30
726.91	265.70
727.24	265.20
727.57	264.68
727.91	264.10
728.24	263.55
728.57	262.90
728.90	262.31
729.23	261.64
729.56	261.16
729.89	260.62
730.22	260.05
730.55	259.51
730.89	258.98
731.22	258.43
731.55	257.90
731.88	257.37
732.21	256.83
732.54	256.29
732.87	255.78
733.20	255.26
733.53	254.78
733.86	254.31
734.19	253.80
734.52	253.33
734.85	253.03
735.18	252.56
735.51	252.25
735.84	251.86
736.17	251.48
736.50	250.96
736.83	250.81
737.16	250.38
737.49	250.00
737.82	249.57
738.15	249.20
738.48	248.85
738.81	248.42
739.14	247.98
739.47	247.58
739.80	247.20
740.13	246.84
740.46	246.41
740.79	246.01
741.12	245.65
741.45	245.29
741.78	244.84
742.11	244.54
742.44	244.13
742.77	243.80
743.10	243.46
743.43	243.10
743.75	242.53
744.08	242.50
744.41	242.12
744.74	241.77
745.07	241.37
745.40	241.03
745.73	240.78
746.06	240.45
746.39	240.17
746.71	239.80
747.04	239.43
747.37	239.12
747.70	238.86
748.03	238.53
748.36	238.27
748.68	237.95
749.01	237.58
749.34	237.30
749.67	236.96
750.00	236.68
750.33	236.61
750.65	236.33
750.98	235.77
751.31	235.54
751.64	235.34
751.97	235.25
752.29	235.00
752.62	234.67
752.95	234.43
753.28	234.14
753.60	233.92
753.93	233.76
754.26	233.57
754.59	233.27
754.91	233.03
755.24	232.76
755.57	232.50
755.90	232.27
756.22	231.98
756.55	231.75
756.88	231.48
757.20	231.07
757.53	230.79
757.86	230.57
758.19	230.36
758.51	230.13
758.84	229.80
759.17	229.62
759.49	229.44
759.82	229.35
760.15	229.19
760.47	228.97
760.80	228.68
761.13	228.54
761.45	228.34
761.78	228.18
762.11	228.00
762.43	227.84
762.76	227.67
763.08	227.55
763.41	227.43
763.74	227.31
764.06	227.16
764.39	227.02
764.71	226.86
765.04	226.67
765.37	226.49
765.69	226.35
766.02	226.13
766.34	225.98
766.67	225.76
767.00	225.65
767.32	225.64
767.65	225.66
767.97	225.49
768.30	225.42
768.62	225.26
768.95	225.09
769.27	224.97
769.60	224.87
769.92	224.71
770.25	224.54
770.57	224.36
770.90	224.24
771.22	224.09
771.55	224.00
771.87	223.90
772.20	223.77
772.52	223.82
772.85	223.99
773.17	223.89
773.50	223.78
773.82	223.65
774.15	223.42
774.47	223.21
774.80	223.07
775.12	222.96
775.45	222.90
775.77	222.85
776.09	222.77
776.42	222.68
776.74	222.67
777.07	222.55
777.39	222.48
777.72	222.40
778.04	222.36
778.36	222.25
778.69	222.17
779.01	222.09
779.33	221.84
779.66	221.50
779.98	221.38
780.31	221.30
780.63	221.31
780.95	221.29
781.28	221.19
781.60	221.09
781.92	221.02
782.25	220.93
782.57	220.86
782.89	220.77
783.22	220.68
783.54	220.54
783.86	220.49
784.19	220.44
784.51	220.43
784.83	220.31
785.16	220.27
785.48	220.25
785.80	220.23
786.12	220.20
786.45	220.11
786.77	220.08
787.09	220.03
787.42	219.87
787.74	219.80
788.06	219.76
788.38	219.71
788.71	219.62
789.03	219.59
789.35	219.54
789.67	219.48
789.99	219.43
790.32	219.39
790.64	219.37
790.96	219.48
791.28	219.36
791.61	219.33
791.93	219.26
792.25	219.17
792.57	219.28
792.89	219.19
793.21	219.22
793.54	219.13
793.86	219.04
794.18	219.00
794.50	218.95
794.82	218.90
795.14	218.89
795.47	218.85
795.79	218.77
796.11	218.70
796.43	218.62
796.75	218.59
797.07	218.54
797.39	218.45
797.71	218.25
798.04	218.23
798.36	218.22
798.68	218.18
799.00	218.17
799.32	218.00
799.64	218.00
799.96	217.89
800.28	217.90
800.60	217.85
800.92	217.84
801.24	217.78
801.56	217.76
801.89	217.73
802.21	217.75
802.53	217.68
802.85	217.69
803.17	217.77
803.49	217.70
803.81	217.67
804.13	217.64
804.45	217.59
804.77	217.57
805.09	217.52
805.41	217.51
805.73	217.44
806.05	217.36
806.37	217.35
806.69	217.33
807.01	217.32
807.33	217.32
807.65	217.21
807.97	217.29
808.28	217.25
808.60	217.20
808.92	217.13
809.24	217.26
809.56	217.19
809.88	217.09
810.20	217.07
810.52	217.08
810.84	217.04
811.16	217.00
811.48	216.93
811.80	216.93
812.12	216.87
812.43	216.86
812.75	216.83
813.07	216.76
813.39	216.74
813.71	216.65
814.03	216.60
814.35	216.61
814.67	216.47
814.98	216.41
815.30	216.37
815.62	216.31
815.94	216.16
816.26	216.17
816.58	216.13
816.89	216.15
817.21	216.10
817.53	216.08
817.85	216.06
818.17	216.05
818.48	216.01
818.80	216.00
819.12	215.98
819.44	215.94
819.76	215.88
820.07	215.88
820.39	215.86
820.71	215.89
821.03	215.82
821.34	215.79
821.66	215.80
821.98	215.83
822.30	215.82
822.61	215.89
822.93	215.84
823.25	215.80
823.57	215.75
823.88	215.75
824.20	215.73
824.52	215.74
824.83	215.74
825.15	215.72
825.47	215.74
825.79	215.76
826.10	215.73
826.42	215.72
826.74	215.76
827.05	215.75
827.37	215.73
827.69	215.74
828.00	215.76
828.32	215.73
828.64	215.69
828.95	215.80
829.27	215.74
829.58	215.73
829.90	215.73
830.22	215.73
830.53	215.67
830.85	215.68
831.17	215.65
831.48	215.61
831.80	215.59
832.11	215.51
832.43	215.45
832.75	215.45
833.06	215.59
833.38	215.47
833.69	215.48
834.01	215.49
834.32	215.47
834.64	215.43
834.96	215.43
835.27	215.43
835.59	215.35
835.90	215.29
836.22	215.28
836.53	215.22
836.85	215.20
837.16	215.38
837.48	215.37
837.79	215.40
838.11	215.41
838.42	215.38
838.74	215.45
839.05	215.42
839.37	215.37
839.68	215.25
840.00	215.27
840.31	215.25
840.63	215.18
840.94	215.20
841.26	215.20
841.57	215.20
841.88	215.20
842.20	215.14
842.51	215.14
842.83	215.14
843.14	215.38
843.46	215.36
843.77	215.25
844.08	215.21
844.40	215.17
844.71	215.11
845.03	215.10
845.34	215.07
845.65	215.06
845.97	215.09
846.28	215.09
846.60	215.08
846.91	215.05
847.22	215.05
847.54	215.06
847.85	215.04
848.16	215.03
848.48	214.99
848.79	215.08
849.10	215.10
849.42	215.09
849.73	214.88
850.04	214.89
850.36	214.81
850.67	214.86
850.98	214.83
851.30	214.85
851.61	214.83
851.92	214.82
852.23	214.90
852.55	214.90
852.86	214.90
853.17	214.92
853.49	214.99
853.80	215.03
854.11	215.05
854.42	215.08
854.74	215.05
855.05	215.05
855.36	214.93
855.67	214.93
855.99	214.92
856.30	215.13
856.61	215.12
856.92	215.10
857.23	215.07
857.55	215.07
857.86	215.07
858.17	215.14
858.48	215.11
858.79	215.07
859.11	215.07
859.42	215.04
859.73	214.99
860.04	214.95
860.35	214.88
860.66	214.80
860.98	214.77
861.29	214.79
861.60	214.75
861.91	214.80
862.22	214.74
862.53	214.71
862.84	214.48
863.16	214.52
863.47	214.50
863.78	214.50
864.09	214.50
864.40	214.50
864.71	214.47
865.02	214.47
865.33	214.41
865.64	214.40
865.95	214.40
866.27	214.57
866.58	214.54
866.89	214.59
867.20	214.61
867.51	214.59
867.82	214.56
868.13	214.66
868.44	214.58
868.75	214.63
869.06	214.64
869.37	214.66
869.68	214.59
869.99	214.61
870.30	214.64
870.61	214.66
870.92	214.63
871.23	214.60
871.54	214.64
871.85	214.69
872.16	214.71
872.47	214.72
872.78	214.57
873.09	214.60
873.40	214.55
873.71	214.54
874.02	214.57
874.33	214.56
874.64	214.49
874.95	214.56
875.26	214.51
875.56	214.52
875.87	214.51
876.18	214.50
876.49	214.70
876.80	214.67
877.11	214.64
877.42	214.65
877.73	214.65
878.04	214.60
878.35	214.61
878.66	214.61
878.96	214.57
879.27	214.56
879.58	214.51
879.89	214.49
880.20	214.58
880.51	214.58
880.82	214.60
881.12	214.63
881.43	214.58
881.74	214.56
882.05	214.54
882.36	214.56
882.67	214.57
882.97	214.35
883.28	214.32
883.59	214.32
883.90	214.34
884.21	214.36
884.51	214.36
884.82	214.34
885.13	214.34
885.44	214.34
885.74	214.34
886.05	214.33
886.36	214.36
886.67	214.25
886.98	214.35
887.28	214.37
887.59	214.37
887.90	214.36
888.20	214.37
888.51	214.41
888.82	214.38
889.13	214.38
889.43	214.55
889.74	214.56
890.05	214.56
890.35	214.53
890.66	214.50
890.97	214.47
891.28	214.45
891.58	214.44
891.89	214.43
892.20	214.40
892.50	214.42
892.81	214.41
893.12	214.42
893.42	214.32
893.73	214.27
894.04	214.26
894.34	214.31
894.65	214.28
894.95	214.26
895.26	214.26
895.57	214.37
895.87	214.20
896.18	214.20
896.48	214.21
896.79	214.21
897.10	214.22
897.40	214.22
897.71	214.26
898.01	214.25
898.32	214.30
898.63	214.30
898.93	214.31
899.24	214.35
899.54	214.34
899.85	214.31
900.15	214.31
900.46	214.29
900.76	214.24
901.07	214.25
901.38	214.22
901.68	214.23
901.99	214.13
902.29	214.12
902.60	214.10
902.90	214.05
903.21	214.04
903.51	214.05
903.82	214.12
904.12	214.12
904.43	214.14
904.73	214.11
905.03	214.12
905.34	214.32
905.64	214.29
905.95	214.30
906.25	214.33
906.56	214.36
906.86	214.37
907.17	214.39
907.47	214.37
907.77	214.37
908.08	214.35
908.38	214.37
908.69	214.41
908.99	214.47
909.30	214.52
909.60	214.54
909.90	214.56
910.21	214.49
910.51	214.44
910.81	214.43
911.12	214.47
911.42	214.50
911.73	214.24
912.03	214.25
912.33	214.27
912.64	214.26
912.94	214.22
913.24	214.22
913.55	214.17
913.85	214.18
914.15	214.21
914.46	214.21
914.76	214.20
915.06	214.16
915.37	214.13
915.67	214.08
915.97	214.08
916.27	214.01
916.58	214.03
916.88	214.03
917.18	214.03
917.49	214.13
917.79	214.09
918.09	214.17
918.39	214.22
918.70	214.21
919.00	214.21
919.30	214.31
919.60	214.32
919.91	214.34
920.21	214.37
920.51	214.35
920.81	214.36
921.12	214.41
921.42	214.43
921.72	214.44
922.02	214.47
922.32	214.50
922.63	214.50
922.93	214.60
923.23	214.63
923.53	214.61
923.83	214.48
924.13	214.51
924.44	214.45
924.74	214.47
925.04	214.52
925.34	214.49
925.64	214.44
925.94	214.41
926.24	214.55
926.55	214.48
926.85	214.54
927.15	214.55
927.45	214.53
927.75	214.53
928.05	214.55
928.35	214.52
928.65	214.55
928.95	214.59
929.26	214.50
929.56	214.53
929.86	214.58
930.16	214.57
930.46	214.59
930.76	214.65
931.06	214.57
931.36	214.53
931.66	214.57
931.96	214.53
932.26	214.53
932.56	214.41
932.86	214.47
933.16	214.43
933.46	214.44
933.76	214.43
934.06	214.45
934.36	214.52
934.66	214.53
934.96	214.48
935.26	214.49
935.56	214.52
935.86	214.48
936.16	214.43
936.46	214.41
936.76	214.38
937.06	214.32
937.36	214.34
937.66	214.34
937.96	214.33
938.26	214.33
938.56	214.35
938.86	214.35
939.16	214.38
939.46	214.41
939.76	214.37
940.06	214.34
940.35	214.29
940.65	214.16
940.95	214.18
941.25	214.14
941.55	214.10
941.85	214.11
942.15	214.17
942.45	214.21
942.75	214.26
943.04	214.26
943.34	214.29
943.64	214.25
943.94	214.24
944.24	214.23
944.54	214.23
944.84	214.21
945.13	214.21
945.43	214.16
945.73	214.15
946.03	214.15
946.33	214.13
946.62	214.12
946.92	214.15
947.22	214.16
947.52	214.15
947.82	214.21
948.11	214.14
948.41	214.05
948.71	213.99
949.01	213.98
949.31	213.97
949.60	213.96
949.90	213.99
950.20	213.97
950.50	213.99
950.79	213.99
951.09	214.03
951.39	214.04
951.69	214.04
951.98	214.05
952.28	214.07
952.58	214.09
952.87	214.11
953.17	214.16
953.47	214.16
953.76	214.18
954.06	214.13
954.36	214.11
954.66	214.11
954.95	214.19
955.25	214.16
955.55	214.18
955.84	214.15
956.14	214.16
956.44	214.22
956.73	214.17
957.03	214.16
957.32	214.17
957.62	214.15
957.92	214.21
958.21	214.20
958.51	214.45
958.81	214.47
959.10	214.48
959.40	214.49
959.69	214.46
959.99	214.48
960.29	214.46
960.58	214.47
960.88	214.56
961.17	214.52
961.47	214.56
961.76	214.51
962.06	214.55
962.36	214.54
962.65	214.55
962.95	214.57
963.24	214.56
963.54	214.53
963.83	214.52
964.13	214.46
964.42	214.41
964.72	214.22
965.01	214.22
965.31	214.21
965.60	214.15
965.90	214.27
966.19	214.24
966.49	214.32
966.78	214.29
967.08	214.27
967.37	214.23
967.67	214.19
967.96	214.22
968.26	214.19
968.55	214.21
968.85	214.15
969.14	214.17
969.43	214.19
969.73	214.19
970.02	214.21
970.32	214.22
970.61	214.21
970.91	214.14
971.20	214.10
971.49	214.08
971.79	214.10
972.08	214.00
972.38	213.99
972.67	213.91
972.96	213.96
973.26	213.91
973.55	213.99
973.85	213.98
974.14	213.98
974.43	214.03
974.73	213.98
975.02	213.99
975.31	213.96
975.61	213.93
975.90	213.90
976.19	213.85
976.49	213.85
976.78	213.87
977.07	213.87
977.37	213.89
977.66	213.89
977.95	213.85
978.24	213.84
978.54	213.88
978.83	213.86
979.12	213.86
979.42	213.86
979.71	213.82
980.00	213.84
980.29	213.82
980.59	213.77
980.88	213.81
981.17	213.77
981.46	213.78
981.76	213.79
982.05	213.88
982.34	213.93
982.63	213.92
982.93	213.94
983.22	213.96
983.51	213.96
983.80	214.00
984.09	214.01
984.39	213.97
984.68	213.95
984.97	213.99
985.26	213.96
985.55	213.97
985.85	213.93
986.14	213.95
986.43	214.01
986.72	214.00
987.01	213.93
987.30	213.97
987.59	213.91
987.89	213.92
988.18	213.84
988.47	213.80
988.76	213.81
989.05	213.76
989.34	213.80
989.63	213.83
989.92	213.80
990.22	213.78
990.51	213.82
990.80	213.81
991.09	213.80
991.38	213.84
991.67	213.81
991.96	213.80
992.25	213.77
992.54	213.70
992.83	213.70
993.12	213.71
993.41	213.72
993.70	213.84
993.99	213.88
994.28	213.93
994.58	213.95
994.87	213.95
995.16	213.96
995.45	213.92
995.74	213.88
996.03	213.90
996.32	213.95
996.61	213.97
996.90	213.97
997.19	213.97
997.48	213.97
997.77	214.01
998.06	214.04
998.34	214.07
998.63	214.12
998.92	214.16
999.21	214.19
999.50	214.20
999.79	214.10
1000.08	214.09
1000.37	214.06
1000.66	214.03
1000.95	214.05
1001.24	214.06
1001.53	214.07
1001.82	214.05
1002.11	214.01
1002.40	214.05
1002.68	214.08
1002.97	214.21
1003.26	214.19
1003.55	214.18
1003.84	214.15
1004.13	214.22
1004.42	214.19
1004.71	214.16
1004.99	214.12
1005.28	214.16
1005.57	214.15
1005.86	214.15
1006.15	214.11
1006.44	214.09
1006.72	214.11
1007.01	214.08
1007.30	214.07
1007.59	214.04
1007.88	214.06
1008.17	214.08
1008.45	214.01
1008.74	213.93
1009.03	213.82
1009.32	213.83
1009.60	213.81
1009.89	213.81
1010.18	213.70
1010.47	213.68
1010.76	213.67
1011.04	213.67
1011.33	213.70
1011.62	213.70
1011.91	213.73
1012.19	213.74
1012.48	213.75
1012.77	213.74
1013.05	213.84
1013.34	213.86
1013.63	213.86
1013.92	213.85
1014.20	213.86
1014.49	213.85
1014.78	213.91
1015.06	213.86
1015.35	213.85
1015.64	213.88
1015.92	213.92
1016.21	213.93
1016.50	213.93
1016.78	213.96
1017.07	213.98
1017.36	213.90
1017.64	213.88
1017.93	213.91
1018.22	213.91
1018.50	213.93
1018.79	213.95
1019.08	213.83
1019.36	213.83
1019.65	213.81
1019.93	213.88
1020.22	213.88
1020.51	214.02
1020.79	213.95
1021.08	213.79
1021.36	213.63
1021.65	214.01
1021.94	213.53
1022.22	213.93
1022.51	213.59
1022.79	214.87
1023.08	214.11
1023.36	216.47
1023.65	212.92
>>>>>End Processed Spectral Data<<<<<
