SpectraSuite Data File
++++++++++++++++++++++++++++++++++++
Date: Tue Jan 29 15:54:30 EST 2013
User: group
Dark Spectrum Present: No
Reference Spectrum Present: No
Number of Sampled Component Spectra: 1
Spectrometers: USB2E7196
Integration Time (usec): 65000 (USB2E7196)
Spectra Averaged: 100 (USB2E7196)
Boxcar Smoothing: 10 (USB2E7196)
Correct for Electrical Dark: No (USB2E7196)
Strobe/Lamp Enabled: No (USB2E7196)
Correct for Detector Non-linearity: No (USB2E7196)
Correct for Stray Light: No (USB2E7196)
Number of Pixels in Processed Spectrum: 2048
>>>>>Begin Processed Spectral Data<<<<<
339.09	0.00
339.48	203.11
339.86	204.20
340.24	206.28
340.63	207.05
341.01	211.62
341.39	210.16
341.78	211.67
342.16	212.61
342.54	212.86
342.93	202.10
343.31	212.29
343.69	212.82
344.07	213.28
344.46	213.71
344.84	214.11
345.22	214.28
345.60	214.55
345.99	214.74
346.37	214.87
346.75	215.00
347.13	215.07
347.52	215.13
347.90	215.26
348.28	215.29
348.66	215.38
349.05	215.36
349.43	215.40
349.81	215.44
350.19	215.51
350.57	215.60
350.96	215.70
351.34	215.82
351.72	215.93
352.10	216.04
352.48	216.11
352.87	216.17
353.25	216.23
353.63	216.27
354.01	216.33
354.39	216.40
354.77	216.47
355.15	216.60
355.54	216.65
355.92	216.69
356.30	216.76
356.68	216.98
357.06	217.10
357.44	217.16
357.82	217.24
358.20	217.31
358.58	217.32
358.97	217.39
359.35	217.49
359.73	217.58
360.11	217.61
360.49	217.68
360.87	217.71
361.25	217.77
361.63	217.90
362.01	217.96
362.39	217.98
362.77	218.05
363.15	218.07
363.53	218.13
363.91	218.12
364.29	218.14
364.67	217.93
365.05	217.91
365.43	217.94
365.81	217.95
366.19	218.02
366.57	218.15
366.95	218.14
367.33	218.06
367.71	218.06
368.09	218.11
368.47	218.10
368.85	218.08
369.23	218.12
369.61	218.06
369.99	218.11
370.37	218.14
370.75	218.23
371.13	218.18
371.51	218.14
371.89	218.15
372.27	218.14
372.65	218.15
373.03	218.16
373.41	218.12
373.78	218.09
374.16	218.00
374.54	217.88
374.92	217.84
375.30	217.85
375.68	217.78
376.06	217.75
376.44	217.71
376.82	217.72
377.19	217.67
377.57	217.59
377.95	217.51
378.33	217.45
378.71	217.28
379.09	217.24
379.47	217.25
379.84	217.19
380.22	217.13
380.60	217.05
380.98	216.98
381.36	216.93
381.73	216.87
382.11	216.83
382.49	216.80
382.87	216.72
383.25	216.69
383.62	216.88
384.00	216.82
384.38	216.77
384.76	216.80
385.13	216.80
385.51	216.78
385.89	216.70
386.27	216.67
386.64	216.65
387.02	216.62
387.40	216.57
387.78	216.53
388.15	216.51
388.53	216.49
388.91	216.49
389.29	216.44
389.66	216.48
390.04	216.47
390.42	216.49
390.79	216.50
391.17	216.47
391.55	216.25
391.92	216.26
392.30	216.26
392.68	216.20
393.05	216.18
393.43	216.20
393.81	216.22
394.18	216.16
394.56	216.18
394.94	216.22
395.31	216.21
395.69	216.29
396.06	216.33
396.44	216.37
396.82	216.36
397.19	216.52
397.57	216.53
397.95	216.60
398.32	216.56
398.70	216.63
399.07	216.70
399.45	216.70
399.82	216.76
400.20	216.80
400.58	216.85
400.95	216.83
401.33	216.95
401.70	217.13
402.08	217.25
402.45	217.36
402.83	217.48
403.20	217.59
403.58	217.66
403.95	217.81
404.33	217.93
404.71	218.07
405.08	218.32
405.46	218.44
405.83	218.62
406.21	218.81
406.58	219.01
406.96	219.24
407.33	219.50
407.70	219.79
408.08	220.23
408.45	220.58
408.83	221.00
409.20	221.31
409.58	221.58
409.95	222.01
410.33	222.46
410.70	222.89
411.08	223.40
411.45	223.96
411.82	224.52
412.20	225.20
412.57	226.02
412.95	226.53
413.32	227.34
413.69	228.08
414.07	228.93
414.44	229.88
414.82	230.84
415.19	231.98
415.56	233.08
415.94	234.19
416.31	235.53
416.68	236.85
417.06	238.36
417.43	239.85
417.81	241.54
418.18	243.25
418.55	245.09
418.93	247.04
419.30	249.08
419.67	251.19
420.04	253.40
420.42	255.62
420.79	258.34
421.16	261.04
421.54	263.87
421.91	266.71
422.28	269.65
422.66	272.83
423.03	275.96
423.40	279.15
423.77	282.59
424.15	286.07
424.52	289.73
424.89	293.76
425.26	297.64
425.64	301.33
426.01	305.43
426.38	309.72
426.75	314.02
427.13	318.47
427.50	323.23
427.87	328.18
428.24	333.21
428.61	337.96
428.99	343.22
429.36	348.96
429.73	354.60
430.10	360.29
430.47	366.10
430.85	372.14
431.22	378.60
431.59	385.42
431.96	391.91
432.33	399.08
432.70	405.96
433.08	414.15
433.45	421.85
433.82	429.53
434.19	438.06
434.56	446.46
434.93	454.44
435.30	462.34
435.68	471.09
436.05	479.65
436.42	488.19
436.79	495.98
437.16	504.34
437.53	513.29
437.90	522.03
438.27	530.62
438.64	539.43
439.01	547.54
439.38	554.82
439.75	561.89
440.13	569.97
440.50	577.63
440.87	583.74
441.24	590.14
441.61	597.12
441.98	602.20
442.35	608.22
442.72	614.31
443.09	620.07
443.46	623.60
443.83	626.02
444.20	628.09
444.57	631.04
444.94	632.37
445.31	633.64
445.68	634.91
446.05	635.44
446.42	634.66
446.79	633.68
447.16	632.62
447.53	631.77
447.90	628.50
448.27	625.31
448.64	620.85
449.01	617.60
449.37	611.91
449.74	606.45
450.11	599.83
450.48	592.67
450.85	585.49
451.22	579.29
451.59	573.42
451.96	567.80
452.33	560.29
452.70	553.53
453.07	545.50
453.43	537.24
453.80	529.30
454.17	521.72
454.54	514.61
454.91	506.82
455.28	499.28
455.65	492.25
456.02	485.14
456.38	479.15
456.75	471.70
457.12	465.48
457.49	459.36
457.86	453.51
458.23	448.46
458.59	442.88
458.96	437.19
459.33	432.13
459.70	427.05
460.07	423.00
460.43	418.32
460.80	413.97
461.17	410.22
461.54	406.22
461.91	402.39
462.27	398.40
462.64	395.07
463.01	391.48
463.38	387.97
463.74	384.46
464.11	381.34
464.48	378.60
464.85	375.67
465.21	373.28
465.58	370.75
465.95	367.72
466.32	365.27
466.68	362.82
467.05	360.36
467.42	357.96
467.78	355.43
468.15	353.09
468.52	351.30
468.88	348.93
469.25	346.84
469.62	345.13
469.98	343.35
470.35	341.69
470.72	340.09
471.08	338.41
471.45	337.02
471.82	335.63
472.18	334.10
472.55	332.97
472.92	331.70
473.28	330.56
473.65	329.45
474.02	328.39
474.38	327.56
474.75	326.87
475.11	326.12
475.48	325.62
475.85	325.21
476.21	324.72
476.58	324.38
476.94	324.19
477.31	323.89
477.67	323.67
478.04	323.53
478.41	323.49
478.77	323.64
479.14	323.55
479.50	323.64
479.87	323.90
480.23	324.25
480.60	324.51
480.96	324.85
481.33	325.50
481.69	326.10
482.06	326.59
482.42	327.08
482.79	327.68
483.15	328.43
483.52	329.34
483.88	330.24
484.25	331.22
484.61	332.22
484.98	333.31
485.34	334.61
485.71	335.96
486.07	337.39
486.44	338.71
486.80	340.36
487.17	342.03
487.53	343.91
487.90	345.79
488.26	347.80
488.62	349.88
488.99	351.88
489.35	354.04
489.72	356.47
490.08	358.99
490.44	361.51
490.81	364.25
491.17	366.92
491.54	369.90
491.90	372.91
492.26	376.17
492.63	379.59
492.99	383.09
493.36	386.82
493.72	390.67
494.08	394.73
494.45	398.91
494.81	403.34
495.17	407.75
495.54	412.45
495.90	417.27
496.26	422.20
496.63	427.44
496.99	432.86
497.35	438.45
497.72	444.21
498.08	450.16
498.44	456.15
498.80	462.55
499.17	469.05
499.53	475.70
499.89	482.56
500.26	489.46
500.62	496.45
500.98	503.77
501.34	511.28
501.71	519.00
502.07	526.82
502.43	534.67
502.79	542.78
503.16	551.08
503.52	559.62
503.88	568.31
504.24	577.24
504.60	586.22
504.97	595.41
505.33	604.70
505.69	614.50
506.05	624.38
506.41	634.20
506.78	644.21
507.14	654.42
507.50	664.78
507.86	675.48
508.22	686.24
508.59	696.87
508.95	707.79
509.31	718.93
509.67	730.32
510.03	741.71
510.39	753.43
510.75	765.25
511.12	777.13
511.48	789.09
511.84	801.19
512.20	813.39
512.56	825.88
512.92	838.48
513.28	850.98
513.64	863.58
514.00	876.24
514.37	889.03
514.73	901.95
515.09	914.79
515.45	927.47
515.81	940.22
516.17	953.37
516.53	966.43
516.89	979.33
517.25	992.21
517.61	1005.52
517.97	1018.54
518.33	1031.40
518.69	1044.65
519.05	1058.22
519.41	1071.62
519.77	1085.37
520.13	1098.35
520.49	1111.23
520.85	1124.45
521.21	1137.62
521.57	1151.00
521.93	1163.80
522.29	1177.38
522.65	1190.83
523.01	1204.18
523.37	1217.25
523.73	1230.23
524.09	1243.07
524.45	1256.15
524.81	1269.29
525.17	1282.31
525.53	1295.14
525.89	1308.06
526.25	1320.79
526.61	1333.22
526.97	1345.97
527.33	1358.42
527.68	1371.50
528.04	1384.68
528.40	1397.31
528.76	1410.25
529.12	1422.68
529.48	1435.68
529.84	1447.54
530.20	1459.82
530.56	1471.97
530.91	1484.77
531.27	1497.26
531.63	1509.64
531.99	1522.00
532.35	1533.90
532.71	1545.87
533.07	1558.40
533.42	1570.25
533.78	1581.99
534.14	1593.75
534.50	1604.63
534.86	1615.77
535.21	1626.26
535.57	1637.30
535.93	1648.10
536.29	1658.71
536.65	1669.82
537.00	1680.24
537.36	1691.20
537.72	1701.67
538.08	1712.60
538.44	1723.10
538.79	1733.79
539.15	1744.34
539.51	1754.73
539.87	1765.60
540.22	1775.92
540.58	1786.46
540.94	1797.02
541.29	1806.98
541.65	1816.31
542.01	1826.46
542.37	1836.24
542.72	1846.07
543.08	1855.43
543.44	1865.62
543.79	1874.58
544.15	1883.59
544.51	1893.22
544.87	1902.69
545.22	1911.69
545.58	1920.23
545.94	1928.68
546.29	1936.77
546.65	1944.63
547.01	1952.32
547.36	1959.55
547.72	1966.94
548.07	1973.97
548.43	1981.25
548.79	1988.66
549.14	1996.35
549.50	2004.23
549.86	2011.68
550.21	2018.72
550.57	2026.16
550.92	2032.52
551.28	2039.62
551.64	2046.70
551.99	2053.88
552.35	2060.66
552.70	2067.04
553.06	2073.31
553.41	2079.51
553.77	2085.85
554.13	2092.03
554.48	2098.90
554.84	2105.87
555.19	2112.24
555.55	2118.61
555.90	2124.72
556.26	2131.35
556.61	2137.16
556.97	2141.97
557.32	2147.69
557.68	2153.94
558.03	2159.31
558.39	2164.49
558.74	2170.32
559.10	2175.73
559.45	2181.12
559.81	2186.67
560.16	2192.37
560.52	2198.31
560.87	2204.46
561.23	2210.38
561.58	2216.92
561.94	2222.10
562.29	2226.92
562.64	2233.22
563.00	2238.83
563.35	2244.42
563.71	2250.11
564.06	2255.79
564.42	2261.61
564.77	2266.67
565.12	2271.94
565.48	2277.30
565.83	2282.95
566.19	2288.42
566.54	2293.93
566.89	2298.56
567.25	2303.21
567.60	2308.90
567.96	2314.00
568.31	2318.67
568.66	2323.08
569.02	2327.11
569.37	2330.84
569.72	2335.13
570.08	2338.51
570.43	2341.71
570.78	2344.89
571.14	2347.51
571.49	2350.86
571.84	2354.55
572.20	2357.48
572.55	2360.42
572.90	2362.86
573.26	2365.89
573.61	2368.64
573.96	2370.91
574.31	2373.11
574.67	2375.09
575.02	2375.95
575.37	2377.57
575.72	2378.55
576.08	2379.91
576.43	2380.10
576.78	2381.00
577.13	2382.85
577.49	2384.11
577.84	2385.42
578.19	2387.24
578.54	2388.32
578.90	2389.44
579.25	2389.69
579.60	2390.06
579.95	2389.81
580.30	2390.22
580.66	2389.73
581.01	2388.36
581.36	2386.40
581.71	2385.29
582.06	2384.60
582.42	2384.16
582.77	2382.46
583.12	2381.24
583.47	2380.42
583.82	2380.47
584.17	2379.45
584.53	2377.69
584.88	2376.04
585.23	2374.59
585.58	2372.40
585.93	2370.45
586.28	2368.45
586.63	2366.39
586.98	2364.59
587.34	2362.89
587.69	2360.80
588.04	2359.09
588.39	2357.73
588.74	2355.63
589.09	2353.34
589.44	2350.45
589.79	2348.19
590.14	2346.35
590.49	2343.86
590.84	2340.17
591.19	2337.44
591.54	2334.51
591.89	2330.74
592.25	2327.90
592.60	2324.10
592.95	2320.39
593.30	2316.57
593.65	2312.41
594.00	2308.26
594.35	2305.29
594.70	2300.96
595.05	2296.58
595.40	2291.39
595.75	2286.15
596.10	2282.59
596.45	2277.97
596.80	2273.59
597.15	2268.60
597.50	2262.80
597.85	2257.87
598.19	2252.73
598.54	2246.83
598.89	2241.95
599.24	2237.62
599.59	2231.55
599.94	2225.80
600.29	2219.91
600.64	2214.04
600.99	2207.41
601.34	2202.05
601.69	2195.18
602.04	2188.97
602.39	2182.50
602.74	2176.50
603.08	2171.05
603.43	2164.70
603.78	2158.03
604.13	2151.16
604.48	2143.98
604.83	2138.15
605.18	2131.97
605.53	2125.34
605.87	2118.51
606.22	2111.74
606.57	2103.90
606.92	2096.14
607.27	2089.23
607.62	2082.72
607.96	2075.94
608.31	2069.69
608.66	2061.93
609.01	2054.60
609.36	2047.55
609.70	2039.95
610.05	2032.32
610.40	2024.03
610.75	2015.79
611.10	2008.15
611.44	1999.27
611.79	1990.69
612.14	1980.78
612.49	1970.33
612.83	1961.08
613.18	1951.97
613.53	1942.68
613.88	1933.17
614.22	1924.55
614.57	1914.78
614.92	1904.29
615.27	1894.16
615.61	1884.12
615.96	1874.60
616.31	1864.99
616.65	1855.47
617.00	1845.81
617.35	1836.20
617.70	1826.53
618.04	1816.47
618.39	1806.31
618.74	1796.69
619.08	1787.10
619.43	1778.47
619.78	1770.27
620.12	1761.64
620.47	1751.97
620.82	1741.73
621.16	1731.98
621.51	1721.98
621.85	1712.17
622.20	1701.75
622.55	1691.11
622.89	1681.19
623.24	1671.53
623.59	1661.79
623.93	1651.76
624.28	1641.97
624.62	1631.80
624.97	1621.59
625.32	1611.86
625.66	1602.90
626.01	1594.04
626.35	1584.70
626.70	1574.61
627.04	1564.43
627.39	1554.34
627.73	1545.07
628.08	1536.01
628.43	1526.51
628.77	1517.47
629.12	1508.57
629.46	1500.80
629.81	1492.43
630.15	1482.87
630.50	1472.94
630.84	1462.37
631.19	1452.47
631.53	1443.09
631.88	1432.92
632.22	1422.98
632.57	1413.63
632.91	1403.52
633.26	1393.61
633.60	1383.99
633.95	1374.74
634.29	1365.46
634.64	1356.08
634.98	1346.18
635.32	1336.92
635.67	1328.35
636.01	1318.98
636.36	1309.24
636.70	1299.57
637.05	1290.29
637.39	1281.39
637.73	1272.89
638.08	1265.30
638.42	1257.08
638.77	1248.30
639.11	1240.05
639.45	1232.17
639.80	1223.50
640.14	1214.73
640.49	1206.06
640.83	1197.20
641.17	1189.05
641.52	1180.76
641.86	1172.20
642.20	1164.26
642.55	1155.56
642.89	1146.65
643.23	1138.07
643.58	1129.98
643.92	1121.03
644.26	1112.40
644.61	1103.93
644.95	1095.03
645.29	1085.86
645.64	1076.67
645.98	1068.17
646.32	1060.19
646.66	1051.64
647.01	1043.34
647.35	1035.11
647.69	1026.70
648.04	1018.40
648.38	1009.42
648.72	1000.69
649.06	992.30
649.41	984.09
649.75	976.21
650.09	968.40
650.43	960.33
650.78	951.97
651.12	944.32
651.46	936.92
651.80	929.71
652.14	922.44
652.49	914.90
652.83	907.57
653.17	900.03
653.51	892.53
653.85	885.31
654.20	878.20
654.54	870.91
654.88	863.73
655.22	856.73
655.56	849.83
655.90	843.06
656.25	836.42
656.59	829.69
656.93	822.74
657.27	815.64
657.61	808.82
657.95	802.86
658.29	796.87
658.64	790.65
658.98	784.26
659.32	777.80
659.66	771.68
660.00	765.47
660.34	759.44
660.68	753.38
661.02	747.16
661.36	741.21
661.70	735.57
662.05	730.00
662.39	724.52
662.73	719.21
663.07	713.90
663.41	708.32
663.75	702.65
664.09	697.06
664.43	691.70
664.77	686.38
665.11	680.65
665.45	674.91
665.79	669.34
666.13	663.73
666.47	658.31
666.81	652.95
667.15	647.62
667.49	642.46
667.83	637.25
668.17	632.06
668.51	627.03
668.85	622.10
669.19	617.28
669.53	612.34
669.87	607.29
670.21	602.59
670.55	597.93
670.89	593.58
671.23	589.36
671.57	585.10
671.91	580.86
672.25	576.69
672.58	572.62
672.92	568.58
673.26	564.72
673.60	560.89
673.94	557.16
674.28	553.64
674.62	549.98
674.96	546.38
675.30	542.97
675.64	539.41
675.97	535.90
676.31	532.35
676.65	528.82
676.99	525.52
677.33	521.77
677.67	518.28
678.01	514.53
678.34	510.97
678.68	507.45
679.02	503.95
679.36	500.34
679.70	496.82
680.04	493.40
680.37	490.05
680.71	486.86
681.05	483.74
681.39	480.55
681.73	477.47
682.06	474.48
682.40	471.40
682.74	468.25
683.08	465.07
683.42	461.96
683.75	459.01
684.09	456.06
684.43	453.35
684.77	450.44
685.10	447.63
685.44	444.75
685.78	441.92
686.12	439.18
686.45	436.57
686.79	434.01
687.13	431.52
687.46	428.90
687.80	426.25
688.14	423.52
688.48	420.96
688.81	418.34
689.15	415.81
689.49	413.31
689.82	410.86
690.16	408.39
690.50	406.06
690.83	403.67
691.17	401.18
691.51	398.76
691.84	396.63
692.18	394.52
692.52	392.38
692.85	390.34
693.19	388.26
693.52	386.17
693.86	384.06
694.20	381.88
694.53	379.83
694.87	377.69
695.21	375.59
695.54	373.49
695.88	371.43
696.21	369.35
696.55	367.32
696.88	365.38
697.22	363.52
697.56	361.65
697.89	359.84
698.23	358.13
698.56	356.44
698.90	354.70
699.23	352.84
699.57	351.05
699.90	349.25
700.24	347.50
700.58	345.78
700.91	344.11
701.25	342.60
701.58	341.03
701.92	339.53
702.25	337.94
702.59	336.40
702.92	334.92
703.26	333.42
703.59	332.01
703.93	330.75
704.26	329.34
704.60	327.87
704.93	326.42
705.26	325.00
705.60	323.54
705.93	322.07
706.27	320.79
706.60	319.61
706.94	318.42
707.27	317.10
707.61	315.83
707.94	314.54
708.27	313.15
708.61	311.78
708.94	310.45
709.28	309.28
709.61	308.12
709.94	306.96
710.28	305.75
710.61	304.57
710.95	303.19
711.28	302.18
711.61	301.07
711.95	300.00
712.28	298.84
712.61	297.70
712.95	296.72
713.28	295.71
713.61	294.59
713.95	293.47
714.28	292.47
714.61	291.49
714.95	290.52
715.28	289.50
715.61	288.53
715.95	287.62
716.28	286.66
716.61	285.73
716.95	284.77
717.28	283.88
717.61	282.97
717.94	282.12
718.28	281.11
718.61	280.28
718.94	279.41
719.27	278.60
719.61	277.84
719.94	277.01
720.27	276.06
720.60	275.25
720.94	274.48
721.27	273.79
721.60	273.10
721.93	272.41
722.27	271.80
722.60	271.19
722.93	270.50
723.26	269.87
723.59	269.17
723.93	268.60
724.26	268.04
724.59	267.46
724.92	266.92
725.25	266.43
725.59	265.86
725.92	265.35
726.25	264.81
726.58	264.27
726.91	263.67
727.24	263.20
727.57	262.62
727.91	262.05
728.24	261.51
728.57	260.93
728.90	260.37
729.23	259.76
729.56	259.29
729.89	258.80
730.22	258.26
730.55	257.76
730.89	257.22
731.22	256.68
731.55	256.17
731.88	255.66
732.21	255.09
732.54	254.57
732.87	254.09
733.20	253.63
733.53	253.17
733.86	252.77
734.19	252.27
734.52	251.88
734.85	251.61
735.18	251.17
735.51	250.82
735.84	250.44
736.17	250.12
736.50	249.62
736.83	249.43
737.16	249.05
737.49	248.72
737.82	248.31
738.15	247.95
738.48	247.59
738.81	247.19
739.14	246.80
739.47	246.45
739.80	246.06
740.13	245.72
740.46	245.32
740.79	244.93
741.12	244.62
741.45	244.26
741.78	243.81
742.11	243.54
742.44	243.18
742.77	242.91
743.10	242.56
743.43	242.24
743.75	241.69
744.08	241.67
744.41	241.29
744.74	240.95
745.07	240.63
745.40	240.35
745.73	240.12
746.06	239.80
746.39	239.46
746.71	239.15
747.04	238.81
747.37	238.53
747.70	238.24
748.03	237.94
748.36	237.70
748.68	237.43
749.01	237.12
749.34	236.85
749.67	236.53
750.00	236.29
750.33	236.18
750.65	235.96
750.98	235.42
751.31	235.21
751.64	235.05
751.97	234.93
752.29	234.66
752.62	234.35
752.95	234.12
753.28	233.89
753.60	233.66
753.93	233.51
754.26	233.30
754.59	233.09
754.91	232.84
755.24	232.61
755.57	232.41
755.90	232.16
756.22	231.95
756.55	231.71
756.88	231.46
757.20	231.13
757.53	230.88
757.86	230.70
758.19	230.50
758.51	230.30
758.84	229.98
759.17	229.78
759.49	229.64
759.82	229.56
760.15	229.42
760.47	229.23
760.80	228.97
761.13	228.83
761.45	228.64
761.78	228.50
762.11	228.33
762.43	228.14
762.76	227.94
763.08	227.75
763.41	227.61
763.74	227.45
764.06	227.31
764.39	227.19
764.71	227.03
765.04	226.88
765.37	226.69
765.69	226.62
766.02	226.50
766.34	226.36
766.67	226.16
767.00	226.07
767.32	226.05
767.65	226.05
767.97	225.89
768.30	225.78
768.62	225.68
768.95	225.55
769.27	225.44
769.60	225.39
769.92	225.28
770.25	225.16
770.57	225.05
770.90	224.94
771.22	224.80
771.55	224.70
771.87	224.60
772.20	224.53
772.52	224.58
772.85	224.67
773.17	224.55
773.50	224.45
773.82	224.35
774.15	224.16
774.47	223.96
774.80	223.89
775.12	223.78
775.45	223.66
775.77	223.59
776.09	223.51
776.42	223.42
776.74	223.41
777.07	223.30
777.39	223.18
777.72	223.08
778.04	223.00
778.36	222.92
778.69	222.87
779.01	222.79
779.33	222.49
779.66	222.19
779.98	222.11
780.31	222.05
780.63	222.05
780.95	222.02
781.28	221.95
781.60	221.84
781.92	221.79
782.25	221.72
782.57	221.64
782.89	221.57
783.22	221.46
783.54	221.34
783.86	221.32
784.19	221.27
784.51	221.29
784.83	221.22
785.16	221.14
785.48	221.08
785.80	221.04
786.12	221.00
786.45	220.95
786.77	220.90
787.09	220.80
787.42	220.66
787.74	220.58
788.06	220.53
788.38	220.47
788.71	220.37
789.03	220.34
789.35	220.32
789.67	220.25
789.99	220.25
790.32	220.20
790.64	220.16
790.96	220.28
791.28	220.16
791.61	220.12
791.93	220.08
792.25	220.04
792.57	220.13
792.89	220.04
793.21	220.00
793.54	219.94
793.86	219.89
794.18	219.85
794.50	219.78
794.82	219.73
795.14	219.71
795.47	219.72
795.79	219.71
796.11	219.63
796.43	219.57
796.75	219.53
797.07	219.47
797.39	219.41
797.71	219.21
798.04	219.20
798.36	219.21
798.68	219.15
799.00	219.08
799.32	218.93
799.64	218.95
799.96	218.92
800.28	218.95
800.60	218.91
800.92	218.91
801.24	218.84
801.56	218.80
801.89	218.79
802.21	218.75
802.53	218.65
802.85	218.66
803.17	218.72
803.49	218.61
803.81	218.56
804.13	218.54
804.45	218.50
804.77	218.47
805.09	218.41
805.41	218.37
805.73	218.34
806.05	218.27
806.37	218.22
806.69	218.19
807.01	218.15
807.33	218.13
807.65	218.02
807.97	218.14
808.28	218.12
808.60	218.08
808.92	218.04
809.24	218.17
809.56	218.12
809.88	218.02
810.20	218.02
810.52	218.05
810.84	218.00
811.16	217.92
811.48	217.87
811.80	217.89
812.12	217.88
812.43	217.86
812.75	217.84
813.07	217.80
813.39	217.82
813.71	217.76
814.03	217.72
814.35	217.72
814.67	217.62
814.98	217.59
815.30	217.54
815.62	217.49
815.94	217.32
816.26	217.31
816.58	217.28
816.89	217.29
817.21	217.23
817.53	217.22
817.85	217.27
818.17	217.24
818.48	217.17
818.80	217.19
819.12	217.14
819.44	217.11
819.76	217.10
820.07	217.04
820.39	217.04
820.71	217.05
821.03	217.04
821.34	216.99
821.66	217.00
821.98	217.02
822.30	217.02
822.61	217.13
822.93	217.10
823.25	217.07
823.57	217.01
823.88	217.03
824.20	217.02
824.52	217.02
824.83	217.04
825.15	216.99
825.47	216.97
825.79	217.02
826.10	217.00
826.42	216.94
826.74	216.95
827.05	216.95
827.37	216.93
827.69	216.89
828.00	216.88
828.32	216.87
828.64	216.82
828.95	216.91
829.27	216.84
829.58	216.84
829.90	216.85
830.22	216.90
830.53	216.82
830.85	216.78
831.17	216.72
831.48	216.70
831.80	216.70
832.11	216.65
832.43	216.59
832.75	216.57
833.06	216.69
833.38	216.62
833.69	216.61
834.01	216.61
834.32	216.63
834.64	216.65
834.96	216.66
835.27	216.67
835.59	216.55
835.90	216.51
836.22	216.49
836.53	216.46
836.85	216.40
837.16	216.62
837.48	216.61
837.79	216.66
838.11	216.62
838.42	216.62
838.74	216.65
839.05	216.66
839.37	216.69
839.68	216.57
840.00	216.58
840.31	216.55
840.63	216.50
840.94	216.48
841.26	216.43
841.57	216.41
841.88	216.40
842.20	216.38
842.51	216.34
842.83	216.32
843.14	216.50
843.46	216.52
843.77	216.39
844.08	216.39
844.40	216.31
844.71	216.31
845.03	216.31
845.34	216.29
845.65	216.25
845.97	216.22
846.28	216.21
846.60	216.24
846.91	216.21
847.22	216.22
847.54	216.23
847.85	216.23
848.16	216.23
848.48	216.21
848.79	216.30
849.10	216.36
849.42	216.37
849.73	216.19
850.04	216.15
850.36	216.12
850.67	216.13
850.98	216.17
851.30	216.15
851.61	216.13
851.92	216.14
852.23	216.20
852.55	216.20
852.86	216.22
853.17	216.16
853.49	216.21
853.80	216.26
854.11	216.26
854.42	216.29
854.74	216.24
855.05	216.20
855.36	216.13
855.67	216.10
855.99	216.09
856.30	216.35
856.61	216.35
856.92	216.35
857.23	216.34
857.55	216.30
857.86	216.28
858.17	216.31
858.48	216.26
858.79	216.20
859.11	216.21
859.42	216.20
859.73	216.21
860.04	216.19
860.35	216.10
860.66	216.04
860.98	216.02
861.29	216.03
861.60	216.02
861.91	216.03
862.22	215.97
862.53	215.93
862.84	215.65
863.16	215.70
863.47	215.62
863.78	215.63
864.09	215.63
864.40	215.65
864.71	215.66
865.02	215.68
865.33	215.65
865.64	215.60
865.95	215.58
866.27	215.71
866.58	215.73
866.89	215.74
867.20	215.76
867.51	215.72
867.82	215.70
868.13	215.79
868.44	215.74
868.75	215.78
869.06	215.78
869.37	215.83
869.68	215.73
869.99	215.78
870.30	215.78
870.61	215.80
870.92	215.75
871.23	215.73
871.54	215.75
871.85	215.80
872.16	215.85
872.47	215.82
872.78	215.68
873.09	215.65
873.40	215.66
873.71	215.68
874.02	215.66
874.33	215.62
874.64	215.55
874.95	215.62
875.26	215.59
875.56	215.60
875.87	215.60
876.18	215.62
876.49	215.80
876.80	215.76
877.11	215.73
877.42	215.73
877.73	215.73
878.04	215.71
878.35	215.68
878.66	215.68
878.96	215.72
879.27	215.72
879.58	215.73
879.89	215.72
880.20	215.75
880.51	215.80
880.82	215.85
881.12	215.86
881.43	215.79
881.74	215.78
882.05	215.77
882.36	215.74
882.67	215.79
882.97	215.56
883.28	215.57
883.59	215.59
883.90	215.61
884.21	215.64
884.51	215.63
884.82	215.59
885.13	215.57
885.44	215.54
885.74	215.52
886.05	215.50
886.36	215.47
886.67	215.41
886.98	215.50
887.28	215.50
887.59	215.50
887.90	215.52
888.20	215.51
888.51	215.55
888.82	215.56
889.13	215.50
889.43	215.69
889.74	215.70
890.05	215.68
890.35	215.66
890.66	215.61
890.97	215.58
891.28	215.60
891.58	215.60
891.89	215.61
892.20	215.63
892.50	215.63
892.81	215.61
893.12	215.59
893.42	215.48
893.73	215.47
894.04	215.45
894.34	215.43
894.65	215.44
894.95	215.40
895.26	215.41
895.57	215.53
895.87	215.35
896.18	215.37
896.48	215.39
896.79	215.39
897.10	215.43
897.40	215.49
897.71	215.50
898.01	215.53
898.32	215.50
898.63	215.48
898.93	215.49
899.24	215.51
899.54	215.49
899.85	215.49
900.15	215.48
900.46	215.47
900.76	215.49
901.07	215.46
901.38	215.46
901.68	215.47
901.99	215.34
902.29	215.33
902.60	215.30
902.90	215.25
903.21	215.25
903.51	215.21
903.82	215.22
904.12	215.21
904.43	215.22
904.73	215.24
905.03	215.26
905.34	215.45
905.64	215.45
905.95	215.48
906.25	215.48
906.56	215.46
906.86	215.49
907.17	215.50
907.47	215.50
907.77	215.49
908.08	215.46
908.38	215.46
908.69	215.45
908.99	215.50
909.30	215.53
909.60	215.55
909.90	215.57
910.21	215.50
910.51	215.48
910.81	215.45
911.12	215.43
911.42	215.45
911.73	215.22
912.03	215.21
912.33	215.24
912.64	215.25
912.94	215.26
913.24	215.21
913.55	215.20
913.85	215.19
914.15	215.26
914.46	215.25
914.76	215.24
915.06	215.26
915.37	215.19
915.67	215.17
915.97	215.14
916.27	215.08
916.58	215.11
916.88	215.11
917.18	215.11
917.49	215.26
917.79	215.23
918.09	215.27
918.39	215.32
918.70	215.32
919.00	215.32
919.30	215.40
919.60	215.40
919.91	215.36
920.21	215.38
920.51	215.30
920.81	215.31
921.12	215.35
921.42	215.34
921.72	215.37
922.02	215.39
922.32	215.42
922.63	215.42
922.93	215.51
923.23	215.55
923.53	215.56
923.83	215.42
924.13	215.44
924.44	215.43
924.74	215.47
925.04	215.50
925.34	215.49
925.64	215.40
925.94	215.39
926.24	215.54
926.55	215.51
926.85	215.57
927.15	215.56
927.45	215.55
927.75	215.56
928.05	215.58
928.35	215.55
928.65	215.58
928.95	215.62
929.26	215.52
929.56	215.55
929.86	215.53
930.16	215.52
930.46	215.50
930.76	215.52
931.06	215.43
931.36	215.37
931.66	215.40
931.96	215.43
932.26	215.48
932.56	215.38
932.86	215.44
933.16	215.43
933.46	215.41
933.76	215.36
934.06	215.40
934.36	215.46
934.66	215.46
934.96	215.46
935.26	215.48
935.56	215.51
935.86	215.43
936.16	215.43
936.46	215.42
936.76	215.42
937.06	215.37
937.36	215.37
937.66	215.39
937.96	215.37
938.26	215.34
938.56	215.32
938.86	215.33
939.16	215.34
939.46	215.34
939.76	215.37
940.06	215.40
940.35	215.33
940.65	215.21
940.95	215.23
941.25	215.17
941.55	215.12
941.85	215.13
942.15	215.19
942.45	215.24
942.75	215.24
943.04	215.26
943.34	215.31
943.64	215.30
943.94	215.27
944.24	215.27
944.54	215.26
944.84	215.26
945.13	215.23
945.43	215.21
945.73	215.18
946.03	215.15
946.33	215.16
946.62	215.17
946.92	215.18
947.22	215.18
947.52	215.20
947.82	215.23
948.11	215.19
948.41	215.15
948.71	215.08
949.01	215.07
949.31	215.05
949.60	215.02
949.90	215.07
950.20	215.07
950.50	215.07
950.79	215.08
951.09	215.08
951.39	215.08
951.69	215.05
951.98	215.11
952.28	215.16
952.58	215.15
952.87	215.16
953.17	215.20
953.47	215.19
953.76	215.18
954.06	215.15
954.36	215.12
954.66	215.11
954.95	215.19
955.25	215.22
955.55	215.24
955.84	215.23
956.14	215.24
956.44	215.25
956.73	215.22
957.03	215.21
957.32	215.24
957.62	215.21
957.92	215.29
958.21	215.26
958.51	215.51
958.81	215.53
959.10	215.53
959.40	215.57
959.69	215.59
959.99	215.63
960.29	215.66
960.58	215.66
960.88	215.75
961.17	215.71
961.47	215.72
961.76	215.71
962.06	215.71
962.36	215.66
962.65	215.65
962.95	215.65
963.24	215.64
963.54	215.62
963.83	215.62
964.13	215.58
964.42	215.50
964.72	215.32
965.01	215.30
965.31	215.29
965.60	215.23
965.90	215.35
966.19	215.30
966.49	215.29
966.78	215.28
967.08	215.25
967.37	215.24
967.67	215.19
967.96	215.23
968.26	215.23
968.55	215.29
968.85	215.30
969.14	215.33
969.43	215.33
969.73	215.33
970.02	215.30
970.32	215.27
970.61	215.30
970.91	215.21
971.20	215.17
971.49	215.14
971.79	215.16
972.08	215.01
972.38	215.03
972.67	215.04
972.96	215.07
973.26	215.03
973.55	215.11
973.85	215.11
974.14	215.09
974.43	215.10
974.73	215.05
975.02	215.02
975.31	215.01
975.61	215.00
975.90	214.98
976.19	214.99
976.49	215.02
976.78	215.00
977.07	215.01
977.37	215.03
977.66	215.09
977.95	215.06
978.24	215.07
978.54	215.10
978.83	215.07
979.12	215.06
979.42	215.03
979.71	215.00
980.00	214.98
980.29	215.00
980.59	214.95
980.88	215.03
981.17	215.05
981.46	215.05
981.76	215.05
982.05	215.12
982.34	215.12
982.63	215.10
982.93	215.15
983.22	215.21
983.51	215.21
983.80	215.22
984.09	215.27
984.39	215.23
984.68	215.19
984.97	215.21
985.26	215.21
985.55	215.24
985.85	215.18
986.14	215.23
986.43	215.24
986.72	215.29
987.01	215.19
987.30	215.17
987.59	215.14
987.89	215.13
988.18	215.06
988.47	215.06
988.76	215.05
989.05	215.00
989.34	214.95
989.63	215.02
989.92	214.99
990.22	214.95
990.51	214.97
990.80	214.96
991.09	214.96
991.38	214.96
991.67	214.97
991.96	214.97
992.25	214.95
992.54	214.87
992.83	214.86
993.12	214.84
993.41	214.86
993.70	214.93
993.99	215.01
994.28	215.05
994.58	215.09
994.87	215.08
995.16	215.09
995.45	215.07
995.74	214.98
996.03	215.00
996.32	215.03
996.61	215.07
996.90	215.07
997.19	215.08
997.48	215.10
997.77	215.05
998.06	215.03
998.34	215.01
998.63	215.02
998.92	215.02
999.21	215.05
999.50	215.10
999.79	215.03
1000.08	215.04
1000.37	215.02
1000.66	214.95
1000.95	215.03
1001.24	215.04
1001.53	215.12
1001.82	215.09
1002.11	215.04
1002.40	215.06
1002.68	215.08
1002.97	215.25
1003.26	215.19
1003.55	215.16
1003.84	215.22
1004.13	215.33
1004.42	215.34
1004.71	215.36
1004.99	215.35
1005.28	215.40
1005.57	215.35
1005.86	215.34
1006.15	215.32
1006.44	215.29
1006.72	215.34
1007.01	215.27
1007.30	215.27
1007.59	215.21
1007.88	215.24
1008.17	215.26
1008.45	215.22
1008.74	215.18
1009.03	215.05
1009.32	215.06
1009.60	215.08
1009.89	215.03
1010.18	214.96
1010.47	214.96
1010.76	214.95
1011.04	214.94
1011.33	214.96
1011.62	214.99
1011.91	215.04
1012.19	215.05
1012.48	215.05
1012.77	215.03
1013.05	215.15
1013.34	215.13
1013.63	215.13
1013.92	215.13
1014.20	215.13
1014.49	215.14
1014.78	215.14
1015.06	215.09
1015.35	215.11
1015.64	215.14
1015.92	215.17
1016.21	215.19
1016.50	215.19
1016.78	215.22
1017.07	215.26
1017.36	215.19
1017.64	215.14
1017.93	215.14
1018.22	215.15
1018.50	215.14
1018.79	215.17
1019.08	215.06
1019.36	215.10
1019.65	215.08
1019.93	215.15
1020.22	215.17
1020.51	215.29
1020.79	215.24
1021.08	215.48
1021.36	214.64
1021.65	215.36
1021.94	214.83
1022.22	215.34
1022.51	214.56
1022.79	216.36
1023.08	215.24
1023.36	217.55
1023.65	214.29
>>>>>End Processed Spectral Data<<<<<
