SpectraSuite Data File
++++++++++++++++++++++++++++++++++++
Date: Tue Jan 29 16:25:13 EST 2013
User: group
Dark Spectrum Present: No
Reference Spectrum Present: No
Number of Sampled Component Spectra: 1
Spectrometers: USB2E7196
Integration Time (usec): 65000 (USB2E7196)
Spectra Averaged: 100 (USB2E7196)
Boxcar Smoothing: 10 (USB2E7196)
Correct for Electrical Dark: No (USB2E7196)
Strobe/Lamp Enabled: No (USB2E7196)
Correct for Detector Non-linearity: No (USB2E7196)
Correct for Stray Light: No (USB2E7196)
Number of Pixels in Processed Spectrum: 2048
>>>>>Begin Processed Spectral Data<<<<<
339.09	0.00
339.48	202.48
339.86	203.70
340.24	205.19
340.63	206.70
341.01	211.39
341.39	209.44
341.78	211.25
342.16	212.47
342.54	212.70
342.93	201.73
343.31	211.90
343.69	212.45
344.07	212.90
344.46	213.34
344.84	213.73
345.22	213.87
345.60	214.13
345.99	214.32
346.37	214.43
346.75	214.51
347.13	214.58
347.52	214.60
347.90	214.74
348.28	214.77
348.66	214.86
349.05	214.78
349.43	214.85
349.81	214.89
350.19	214.95
350.57	214.98
350.96	215.07
351.34	215.17
351.72	215.23
352.10	215.36
352.48	215.43
352.87	215.44
353.25	215.51
353.63	215.55
354.01	215.61
354.39	215.69
354.77	215.75
355.15	215.84
355.54	215.90
355.92	215.89
356.30	215.95
356.68	216.09
357.06	216.17
357.44	216.20
357.82	216.23
358.20	216.27
358.58	216.32
358.97	216.36
359.35	216.47
359.73	216.57
360.11	216.62
360.49	216.66
360.87	216.75
361.25	216.81
361.63	216.92
362.01	216.93
362.39	216.96
362.77	217.02
363.15	217.04
363.53	217.07
363.91	217.09
364.29	217.12
364.67	216.96
365.05	216.99
365.43	217.03
365.81	217.09
366.19	217.21
366.57	217.31
366.95	217.31
367.33	217.25
367.71	217.25
368.09	217.31
368.47	217.29
368.85	217.27
369.23	217.30
369.61	217.19
369.99	217.28
370.37	217.31
370.75	217.37
371.13	217.33
371.51	217.29
371.89	217.27
372.27	217.26
372.65	217.24
373.03	217.22
373.41	217.17
373.78	217.13
374.16	216.99
374.54	216.91
374.92	216.86
375.30	216.84
375.68	216.78
376.06	216.72
376.44	216.67
376.82	216.63
377.19	216.56
377.57	216.54
377.95	216.44
378.33	216.37
378.71	216.21
379.09	216.21
379.47	216.19
379.84	216.14
380.22	216.08
380.60	216.01
380.98	215.96
381.36	215.89
381.73	215.85
382.11	215.88
382.49	215.81
382.87	215.76
383.25	215.72
383.62	215.93
384.00	215.85
384.38	215.83
384.76	215.86
385.13	215.90
385.51	215.88
385.89	215.83
386.27	215.79
386.64	215.78
387.02	215.76
387.40	215.71
387.78	215.71
388.15	215.71
388.53	215.70
388.91	215.70
389.29	215.68
389.66	215.66
390.04	215.57
390.42	215.61
390.79	215.64
391.17	215.61
391.55	215.35
391.92	215.38
392.30	215.39
392.68	215.34
393.05	215.34
393.43	215.36
393.81	215.34
394.18	215.33
394.56	215.33
394.94	215.36
395.31	215.33
395.69	215.42
396.06	215.46
396.44	215.49
396.82	215.46
397.19	215.58
397.57	215.60
397.95	215.68
398.32	215.62
398.70	215.63
399.07	215.71
399.45	215.75
399.82	215.77
400.20	215.85
400.58	215.94
400.95	215.92
401.33	216.05
401.70	216.32
402.08	216.40
402.45	216.50
402.83	216.63
403.20	216.77
403.58	216.81
403.95	216.95
404.33	217.13
404.71	217.34
405.08	217.59
405.46	217.81
405.83	218.02
406.21	218.24
406.58	218.49
406.96	218.73
407.33	219.00
407.70	219.32
408.08	219.75
408.45	220.09
408.83	220.47
409.20	220.78
409.58	221.00
409.95	221.49
410.33	221.99
410.70	222.44
411.08	222.98
411.45	223.58
411.82	224.16
412.20	224.82
412.57	225.61
412.95	226.18
413.32	226.99
413.69	227.79
414.07	228.68
414.44	229.63
414.82	230.66
415.19	231.83
415.56	233.02
415.94	234.21
416.31	235.58
416.68	237.02
417.06	238.58
417.43	240.15
417.81	241.87
418.18	243.62
418.55	245.55
418.93	247.61
419.30	249.70
419.67	251.94
420.04	254.23
420.42	256.61
420.79	259.43
421.16	262.23
421.54	265.12
421.91	268.17
422.28	271.29
422.66	274.55
423.03	277.78
423.40	281.12
423.77	284.71
424.15	288.36
424.52	292.20
424.89	296.41
425.26	300.42
425.64	304.30
426.01	308.60
426.38	313.02
426.75	317.53
427.13	322.24
427.50	327.18
427.87	332.35
428.24	337.54
428.61	342.51
428.99	348.00
429.36	354.03
429.73	359.83
430.10	365.70
430.47	371.79
430.85	378.04
431.22	384.71
431.59	391.77
431.96	398.58
432.33	406.02
432.70	413.20
433.08	421.77
433.45	429.81
433.82	437.77
434.19	446.61
434.56	455.25
434.93	463.55
435.30	471.82
435.68	480.91
436.05	489.85
436.42	498.71
436.79	506.84
437.16	515.55
437.53	524.80
437.90	533.91
438.27	542.77
438.64	551.93
439.01	560.44
439.38	567.99
439.75	575.26
440.13	583.71
440.50	591.67
440.87	598.05
441.24	604.64
441.61	611.93
441.98	617.27
442.35	623.58
442.72	629.92
443.09	635.91
443.46	639.64
443.83	642.12
444.20	644.33
444.57	647.44
444.94	648.86
445.31	650.28
445.68	651.65
446.05	652.25
446.42	651.50
446.79	650.48
447.16	649.39
447.53	648.64
447.90	645.25
448.27	641.95
448.64	637.28
449.01	633.94
449.37	628.04
449.74	622.42
450.11	615.53
450.48	608.10
450.85	600.68
451.22	594.16
451.59	588.11
451.96	582.26
452.33	574.42
452.70	567.36
453.07	558.94
453.43	550.39
453.80	542.14
454.17	534.20
454.54	526.73
454.91	518.57
455.28	510.58
455.65	503.21
456.02	495.74
456.38	489.38
456.75	481.58
457.12	475.08
457.49	468.54
457.86	462.35
458.23	457.05
458.59	451.12
458.96	445.22
459.33	439.90
459.70	434.50
460.07	430.25
460.43	425.37
460.80	420.83
461.17	416.82
461.54	412.64
461.91	408.60
462.27	404.52
462.64	401.13
463.01	397.43
463.38	393.71
463.74	389.98
464.11	386.77
464.48	383.96
464.85	380.90
465.21	378.54
465.58	375.93
465.95	372.75
466.32	370.16
466.68	367.53
467.05	364.92
467.42	362.45
467.78	359.79
468.15	357.27
468.52	355.33
468.88	352.84
469.25	350.64
469.62	348.88
469.98	346.95
470.35	345.15
470.72	343.45
471.08	341.69
471.45	340.27
471.82	338.78
472.18	337.09
472.55	335.87
472.92	334.51
473.28	333.32
473.65	332.20
474.02	331.10
474.38	330.27
474.75	329.50
475.11	328.67
475.48	328.13
475.85	327.63
476.21	327.17
476.58	326.82
476.94	326.59
477.31	326.29
477.67	326.06
478.04	325.90
478.41	325.87
478.77	326.05
479.14	325.99
479.50	326.14
479.87	326.47
480.23	326.84
480.60	327.10
480.96	327.38
481.33	327.95
481.69	328.50
482.06	329.03
482.42	329.54
482.79	330.14
483.15	330.93
483.52	331.95
483.88	332.83
484.25	333.77
484.61	334.81
484.98	335.85
485.34	337.10
485.71	338.46
486.07	339.88
486.44	341.21
486.80	342.84
487.17	344.53
487.53	346.36
487.90	348.18
488.26	350.13
488.62	352.32
488.99	354.39
489.35	356.57
489.72	358.92
490.08	361.45
490.44	364.03
490.81	366.74
491.17	369.46
491.54	372.48
491.90	375.59
492.26	378.83
492.63	382.25
492.99	385.85
493.36	389.54
493.72	393.47
494.08	397.50
494.45	401.68
494.81	406.07
495.17	410.51
495.54	415.25
495.90	420.16
496.26	425.07
496.63	430.31
496.99	435.72
497.35	441.32
497.72	447.20
498.08	453.22
498.44	459.32
498.80	465.73
499.17	472.19
499.53	478.79
499.89	485.71
500.26	492.71
500.62	499.79
500.98	507.19
501.34	514.66
501.71	522.47
502.07	530.37
502.43	538.42
502.79	546.61
503.16	555.11
503.52	563.72
503.88	572.54
504.24	581.49
504.60	590.66
504.97	599.99
505.33	609.33
505.69	619.25
506.05	629.24
506.41	639.20
506.78	649.32
507.14	659.71
507.50	670.22
507.86	681.05
508.22	691.92
508.59	702.65
508.95	713.86
509.31	725.23
509.67	736.77
510.03	748.29
510.39	760.15
510.75	772.02
511.12	784.05
511.48	796.25
511.84	808.61
512.20	821.06
512.56	833.83
512.92	846.76
513.28	859.53
513.64	872.35
514.00	885.28
514.37	898.40
514.73	911.66
515.09	924.79
515.45	937.74
515.81	950.85
516.17	964.46
516.53	977.76
516.89	990.85
517.25	1004.03
517.61	1017.63
517.97	1031.12
518.33	1044.42
518.69	1058.12
519.05	1071.89
519.41	1085.72
519.77	1099.71
520.13	1113.19
520.49	1126.38
520.85	1139.75
521.21	1153.16
521.57	1167.02
521.93	1180.28
522.29	1194.15
522.65	1207.93
523.01	1221.74
523.37	1235.13
523.73	1248.52
524.09	1261.70
524.45	1275.34
524.81	1289.09
525.17	1302.58
525.53	1315.81
525.89	1329.24
526.25	1342.44
526.61	1355.49
526.97	1368.77
527.33	1381.77
527.68	1395.30
528.04	1409.00
528.40	1422.40
528.76	1436.00
529.12	1448.91
529.48	1462.24
529.84	1474.66
530.20	1487.46
530.56	1500.22
530.91	1513.54
531.27	1526.56
531.63	1539.48
531.99	1552.24
532.35	1564.62
532.71	1577.16
533.07	1590.24
533.42	1602.58
533.78	1614.76
534.14	1626.85
534.50	1638.20
534.86	1649.85
535.21	1660.96
535.57	1672.50
535.93	1683.71
536.29	1694.87
536.65	1706.51
537.00	1717.61
537.36	1729.04
537.72	1740.19
538.08	1751.64
538.44	1762.71
538.79	1773.83
539.15	1784.85
539.51	1795.70
539.87	1807.10
540.22	1818.08
540.58	1829.11
540.94	1840.16
541.29	1850.57
541.65	1860.56
542.01	1871.11
542.37	1881.31
542.72	1891.41
543.08	1901.26
543.44	1911.95
543.79	1921.30
544.15	1930.65
544.51	1940.78
544.87	1950.69
545.22	1959.99
545.58	1968.89
545.94	1977.90
546.29	1986.48
546.65	1994.91
547.01	2003.27
547.36	2011.03
547.72	2018.67
548.07	2026.32
548.43	2034.03
548.79	2041.96
549.14	2050.03
549.50	2058.54
549.86	2066.54
550.21	2074.04
550.57	2081.89
550.92	2088.62
551.28	2096.07
551.64	2103.51
551.99	2110.98
552.35	2118.25
552.70	2125.13
553.06	2131.78
553.41	2138.02
553.77	2144.68
554.13	2151.19
554.48	2158.20
554.84	2165.26
555.19	2172.01
555.55	2178.41
555.90	2184.82
556.26	2191.61
556.61	2197.80
556.97	2202.70
557.32	2208.56
557.68	2215.04
558.03	2220.88
558.39	2226.28
558.74	2232.47
559.10	2238.19
559.45	2243.81
559.81	2249.37
560.16	2254.93
560.52	2260.92
560.87	2267.46
561.23	2273.39
561.58	2280.02
561.94	2285.27
562.29	2290.06
562.64	2296.13
563.00	2301.94
563.35	2307.59
563.71	2313.44
564.06	2319.21
564.42	2325.22
564.77	2330.26
565.12	2335.51
565.48	2340.71
565.83	2346.35
566.19	2351.65
566.54	2357.00
566.89	2361.61
567.25	2366.34
567.60	2372.19
567.96	2377.47
568.31	2382.01
568.66	2386.35
569.02	2390.38
569.37	2394.43
569.72	2399.01
570.08	2402.46
570.43	2405.60
570.78	2408.58
571.14	2411.17
571.49	2414.38
571.84	2417.82
572.20	2420.78
572.55	2423.94
572.90	2426.18
573.26	2429.00
573.61	2431.59
573.96	2433.75
574.31	2435.95
574.67	2437.71
575.02	2438.60
575.37	2439.98
575.72	2440.67
576.08	2442.09
576.43	2442.28
576.78	2442.61
577.13	2444.17
577.49	2445.37
577.84	2446.26
578.19	2447.68
578.54	2448.31
578.90	2449.06
579.25	2449.13
579.60	2449.10
579.95	2448.31
580.30	2448.53
580.66	2447.92
581.01	2446.39
581.36	2444.02
581.71	2442.58
582.06	2441.52
582.42	2440.61
582.77	2438.42
583.12	2436.86
583.47	2435.51
583.82	2434.96
584.17	2433.75
584.53	2431.75
584.88	2429.82
585.23	2428.11
585.58	2425.90
585.93	2423.91
586.28	2421.67
586.63	2419.21
586.98	2417.16
587.34	2415.17
587.69	2412.67
588.04	2410.69
588.39	2409.31
588.74	2406.93
589.09	2404.31
589.44	2401.27
589.79	2398.81
590.14	2396.88
590.49	2394.13
590.84	2390.34
591.19	2387.22
591.54	2383.98
591.89	2379.76
592.25	2376.53
592.60	2372.46
592.95	2368.43
593.30	2364.15
593.65	2359.68
594.00	2355.16
594.35	2351.99
594.70	2347.32
595.05	2342.77
595.40	2337.18
595.75	2331.34
596.10	2327.70
596.45	2322.88
596.80	2318.26
597.15	2313.04
597.50	2307.15
597.85	2302.23
598.19	2297.04
598.54	2291.09
598.89	2285.90
599.24	2281.42
599.59	2275.13
599.94	2269.35
600.29	2263.20
600.64	2257.27
600.99	2250.46
601.34	2245.18
601.69	2238.18
602.04	2231.73
602.39	2225.01
602.74	2218.98
603.08	2213.52
603.43	2206.83
603.78	2199.74
604.13	2192.60
604.48	2185.20
604.83	2179.01
605.18	2172.74
605.53	2165.61
605.87	2158.57
606.22	2151.73
606.57	2143.63
606.92	2135.56
607.27	2128.43
607.62	2121.84
607.96	2114.80
608.31	2108.37
608.66	2100.37
609.01	2092.80
609.36	2085.65
609.70	2077.87
610.05	2069.91
610.40	2061.55
610.75	2053.41
611.10	2045.58
611.44	2036.62
611.79	2027.90
612.14	2017.91
612.49	2007.23
612.83	1997.92
613.18	1988.72
613.53	1979.26
613.88	1969.75
614.22	1961.15
614.57	1951.37
614.92	1940.56
615.27	1930.27
615.61	1920.09
615.96	1910.25
616.31	1900.49
616.65	1890.99
617.00	1881.14
617.35	1871.45
617.70	1861.50
618.04	1851.20
618.39	1841.05
618.74	1831.31
619.08	1821.52
619.43	1812.65
619.78	1804.28
620.12	1795.60
620.47	1785.80
620.82	1775.44
621.16	1765.56
621.51	1755.53
621.85	1745.42
622.20	1735.02
622.55	1724.39
622.89	1714.32
623.24	1704.69
623.59	1694.82
623.93	1684.53
624.28	1674.76
624.62	1664.51
624.97	1654.13
625.32	1644.23
625.66	1635.26
626.01	1626.41
626.35	1617.02
626.70	1606.88
627.04	1596.65
627.39	1586.36
627.73	1577.06
628.08	1568.03
628.43	1558.39
628.77	1549.11
629.12	1540.18
629.46	1532.27
629.81	1523.91
630.15	1514.28
630.50	1504.35
630.84	1493.68
631.19	1483.68
631.53	1474.27
631.88	1463.96
632.22	1453.91
632.57	1444.56
632.91	1434.29
633.26	1424.29
633.60	1414.66
633.95	1405.28
634.29	1395.67
634.64	1386.25
634.98	1376.15
635.32	1366.74
635.67	1358.13
636.01	1348.75
636.36	1338.83
636.70	1329.21
637.05	1319.67
637.39	1310.62
637.73	1301.84
638.08	1294.36
638.42	1286.12
638.77	1277.22
639.11	1268.96
639.45	1261.10
639.80	1252.37
640.14	1243.61
640.49	1234.68
640.83	1225.76
641.17	1217.47
641.52	1209.23
641.86	1200.63
642.20	1192.66
642.55	1184.01
642.89	1174.96
643.23	1166.16
643.58	1157.98
643.92	1148.80
644.26	1140.01
644.61	1131.48
644.95	1122.58
645.29	1113.11
645.64	1103.82
645.98	1095.17
646.32	1087.18
646.66	1078.46
647.01	1070.04
647.35	1061.78
647.69	1053.37
648.04	1044.94
648.38	1035.95
648.72	1027.07
649.06	1018.57
649.41	1010.18
649.75	1002.11
650.09	994.20
650.43	986.07
650.78	977.58
651.12	969.85
651.46	962.33
651.80	955.02
652.14	947.63
652.49	940.01
652.83	932.64
653.17	924.87
653.51	917.20
653.85	909.80
654.20	902.50
654.54	894.95
654.88	887.62
655.22	880.25
655.56	873.17
655.90	866.26
656.25	859.43
656.59	852.59
656.93	845.42
657.27	838.20
657.61	831.15
657.95	824.98
658.29	818.96
658.64	812.75
658.98	806.25
659.32	799.69
659.66	793.42
660.00	787.01
660.34	780.90
660.68	774.60
661.02	768.23
661.36	762.17
661.70	756.24
662.05	750.48
662.39	744.99
662.73	739.53
663.07	734.08
663.41	728.40
663.75	722.60
664.09	716.89
664.43	711.33
664.77	705.98
665.11	700.20
665.45	694.23
665.79	688.41
666.13	682.61
666.47	677.03
666.81	671.48
667.15	666.03
667.49	660.79
667.83	655.52
668.17	650.26
668.51	645.03
668.85	640.07
669.19	635.12
669.53	630.05
669.87	624.86
670.21	620.05
670.55	615.23
670.89	610.68
671.23	606.24
671.57	601.82
671.91	597.43
672.25	593.14
672.58	588.98
672.92	584.85
673.26	580.83
673.60	576.85
673.94	572.98
674.28	569.33
674.62	565.52
674.96	561.67
675.30	558.12
675.64	554.42
675.97	550.82
676.31	547.20
676.65	543.50
676.99	540.02
677.33	536.13
677.67	532.46
678.01	528.56
678.34	524.91
678.68	521.33
679.02	517.70
679.36	514.00
679.70	510.26
680.04	506.68
680.37	503.19
680.71	499.87
681.05	496.64
681.39	493.29
681.73	490.09
682.06	487.09
682.40	483.93
682.74	480.70
683.08	477.47
683.42	474.24
683.75	471.19
684.09	468.11
684.43	465.26
684.77	462.29
685.10	459.43
685.44	456.46
685.78	453.49
686.12	450.72
686.45	447.90
686.79	445.22
687.13	442.59
687.46	439.89
687.80	437.14
688.14	434.27
688.48	431.57
688.81	428.75
689.15	426.07
689.49	423.41
689.82	420.86
690.16	418.18
690.50	415.64
690.83	413.09
691.17	410.52
691.51	408.00
691.84	405.70
692.18	403.43
692.52	401.20
692.85	399.06
693.19	396.78
693.52	394.63
693.86	392.32
694.20	390.08
694.53	387.97
694.87	385.78
695.21	383.61
695.54	381.48
695.88	379.33
696.21	377.12
696.55	374.96
696.88	372.90
697.22	370.87
697.56	368.95
697.89	367.05
698.23	365.31
698.56	363.48
698.90	361.65
699.23	359.73
699.57	357.84
699.90	355.95
700.24	354.15
700.58	352.32
700.91	350.70
701.25	349.14
701.58	347.48
701.92	345.85
702.25	344.23
702.59	342.55
702.92	341.00
703.26	339.39
703.59	337.95
703.93	336.70
704.26	335.28
704.60	333.72
704.93	332.22
705.26	330.64
705.60	329.18
705.93	327.66
706.27	326.32
706.60	325.03
706.94	323.79
707.27	322.41
707.61	321.12
707.94	319.75
708.27	318.22
708.61	316.76
708.94	315.39
709.28	314.07
709.61	312.86
709.94	311.59
710.28	310.40
710.61	309.16
710.95	307.68
711.28	306.60
711.61	305.47
711.95	304.33
712.28	303.19
712.61	301.93
712.95	300.89
713.28	299.78
713.61	298.61
713.95	297.42
714.28	296.37
714.61	295.26
714.95	294.24
715.28	293.25
715.61	292.21
715.95	291.19
716.28	290.23
716.61	289.24
716.95	288.26
717.28	287.34
717.61	286.37
717.94	285.46
718.28	284.41
718.61	283.48
718.94	282.55
719.27	281.66
719.61	280.91
719.94	280.05
720.27	279.11
720.60	278.26
720.94	277.44
721.27	276.68
721.60	275.99
721.93	275.21
722.27	274.53
722.60	273.89
722.93	273.23
723.26	272.55
723.59	271.84
723.93	271.19
724.26	270.51
724.59	269.86
724.92	269.27
725.25	268.72
725.59	268.15
725.92	267.62
726.25	267.06
726.58	266.48
726.91	265.83
727.24	265.30
727.57	264.73
727.91	264.15
728.24	263.58
728.57	263.00
728.90	262.48
729.23	261.84
729.56	261.38
729.89	260.81
730.22	260.25
730.55	259.69
730.89	259.13
731.22	258.57
731.55	258.05
731.88	257.52
732.21	256.95
732.54	256.41
732.87	255.89
733.20	255.36
733.53	254.85
733.86	254.39
734.19	253.90
734.52	253.49
734.85	253.20
735.18	252.74
735.51	252.37
735.84	251.93
736.17	251.57
736.50	251.06
736.83	250.90
737.16	250.51
737.49	250.14
737.82	249.76
738.15	249.39
738.48	249.02
738.81	248.56
739.14	248.18
739.47	247.80
739.80	247.38
740.13	247.06
740.46	246.64
740.79	246.23
741.12	245.85
741.45	245.46
741.78	244.98
742.11	244.68
742.44	244.27
742.77	243.96
743.10	243.59
743.43	243.19
743.75	242.61
744.08	242.50
744.41	242.15
744.74	241.79
745.07	241.44
745.40	241.06
745.73	240.86
746.06	240.50
746.39	240.19
746.71	239.90
747.04	239.52
747.37	239.20
747.70	238.93
748.03	238.60
748.36	238.31
748.68	237.98
749.01	237.62
749.34	237.33
749.67	237.00
750.00	236.77
750.33	236.66
750.65	236.40
750.98	235.90
751.31	235.66
751.64	235.43
751.97	235.31
752.29	235.05
752.62	234.73
752.95	234.48
753.28	234.20
753.60	233.92
753.93	233.77
754.26	233.55
754.59	233.31
754.91	233.08
755.24	232.88
755.57	232.66
755.90	232.45
756.22	232.21
756.55	231.97
756.88	231.65
757.20	231.28
757.53	231.03
757.86	230.80
758.19	230.59
758.51	230.38
758.84	230.08
759.17	229.94
759.49	229.75
759.82	229.68
760.15	229.52
760.47	229.36
760.80	229.12
761.13	228.98
761.45	228.76
761.78	228.58
762.11	228.36
762.43	228.13
762.76	227.93
763.08	227.80
763.41	227.68
763.74	227.53
764.06	227.37
764.39	227.21
764.71	227.09
765.04	226.90
765.37	226.71
765.69	226.54
766.02	226.38
766.34	226.23
766.67	225.99
767.00	225.92
767.32	225.88
767.65	225.89
767.97	225.75
768.30	225.66
768.62	225.56
768.95	225.41
769.27	225.30
769.60	225.24
769.92	225.06
770.25	224.90
770.57	224.74
770.90	224.63
771.22	224.51
771.55	224.37
771.87	224.27
772.20	224.17
772.52	224.21
772.85	224.34
773.17	224.26
773.50	224.15
773.82	224.00
774.15	223.82
774.47	223.58
774.80	223.45
775.12	223.36
775.45	223.27
775.77	223.20
776.09	223.11
776.42	223.01
776.74	222.97
777.07	222.83
777.39	222.79
777.72	222.70
778.04	222.64
778.36	222.56
778.69	222.49
779.01	222.42
779.33	222.17
779.66	221.87
779.98	221.74
780.31	221.65
780.63	221.63
780.95	221.59
781.28	221.51
781.60	221.41
781.92	221.31
782.25	221.20
782.57	221.14
782.89	221.06
783.22	220.97
783.54	220.85
783.86	220.85
784.19	220.78
784.51	220.78
784.83	220.68
785.16	220.59
785.48	220.56
785.80	220.50
786.12	220.45
786.45	220.38
786.77	220.36
787.09	220.29
787.42	220.14
787.74	220.08
788.06	220.01
788.38	219.96
788.71	219.91
789.03	219.87
789.35	219.84
789.67	219.79
789.99	219.72
790.32	219.66
790.64	219.60
790.96	219.72
791.28	219.59
791.61	219.53
791.93	219.50
792.25	219.43
792.57	219.52
792.89	219.43
793.21	219.42
793.54	219.33
793.86	219.28
794.18	219.26
794.50	219.18
794.82	219.14
795.14	219.12
795.47	219.10
795.79	219.06
796.11	218.97
796.43	218.90
796.75	218.86
797.07	218.86
797.39	218.85
797.71	218.64
798.04	218.63
798.36	218.61
798.68	218.57
799.00	218.53
799.32	218.36
799.64	218.40
799.96	218.35
800.28	218.38
800.60	218.35
800.92	218.32
801.24	218.27
801.56	218.27
801.89	218.24
802.21	218.21
802.53	218.15
802.85	218.16
803.17	218.24
803.49	218.20
803.81	218.12
804.13	218.08
804.45	218.00
804.77	217.99
805.09	217.97
805.41	217.93
805.73	217.88
806.05	217.81
806.37	217.76
806.69	217.72
807.01	217.67
807.33	217.64
807.65	217.55
807.97	217.64
808.28	217.56
808.60	217.52
808.92	217.45
809.24	217.58
809.56	217.50
809.88	217.43
810.20	217.41
810.52	217.44
810.84	217.36
811.16	217.34
811.48	217.28
811.80	217.32
812.12	217.28
812.43	217.27
812.75	217.30
813.07	217.22
813.39	217.23
813.71	217.18
814.03	217.13
814.35	217.13
814.67	217.02
814.98	216.99
815.30	216.96
815.62	216.93
815.94	216.75
816.26	216.73
816.58	216.63
816.89	216.63
817.21	216.54
817.53	216.55
817.85	216.56
818.17	216.55
818.48	216.46
818.80	216.50
819.12	216.46
819.44	216.39
819.76	216.38
820.07	216.33
820.39	216.30
820.71	216.34
821.03	216.30
821.34	216.29
821.66	216.32
821.98	216.32
822.30	216.26
822.61	216.37
822.93	216.34
823.25	216.35
823.57	216.30
823.88	216.34
824.20	216.32
824.52	216.33
824.83	216.31
825.15	216.27
825.47	216.26
825.79	216.28
826.10	216.28
826.42	216.27
826.74	216.29
827.05	216.26
827.37	216.25
827.69	216.27
828.00	216.24
828.32	216.23
828.64	216.19
828.95	216.29
829.27	216.20
829.58	216.21
829.90	216.24
830.22	216.25
830.53	216.17
830.85	216.16
831.17	216.09
831.48	216.06
831.80	216.10
832.11	216.05
832.43	215.97
832.75	215.94
833.06	216.02
833.38	215.93
833.69	215.95
834.01	215.92
834.32	215.89
834.64	215.85
834.96	215.82
835.27	215.83
835.59	215.77
835.90	215.74
836.22	215.70
836.53	215.63
836.85	215.59
837.16	215.80
837.48	215.82
837.79	215.87
838.11	215.88
838.42	215.83
838.74	215.87
839.05	215.86
839.37	215.85
839.68	215.73
840.00	215.73
840.31	215.70
840.63	215.69
840.94	215.65
841.26	215.62
841.57	215.65
841.88	215.66
842.20	215.65
842.51	215.62
842.83	215.64
843.14	215.82
843.46	215.84
843.77	215.71
844.08	215.64
844.40	215.58
844.71	215.53
845.03	215.49
845.34	215.46
845.65	215.43
845.97	215.46
846.28	215.49
846.60	215.49
846.91	215.51
847.22	215.48
847.54	215.55
847.85	215.58
848.16	215.54
848.48	215.47
848.79	215.51
849.10	215.55
849.42	215.57
849.73	215.38
850.04	215.35
850.36	215.26
850.67	215.32
850.98	215.33
851.30	215.34
851.61	215.36
851.92	215.35
852.23	215.45
852.55	215.48
852.86	215.48
853.17	215.51
853.49	215.53
853.80	215.56
854.11	215.54
854.42	215.54
854.74	215.50
855.05	215.54
855.36	215.46
855.67	215.46
855.99	215.44
856.30	215.73
856.61	215.73
856.92	215.73
857.23	215.70
857.55	215.68
857.86	215.66
858.17	215.67
858.48	215.64
858.79	215.59
859.11	215.57
859.42	215.55
859.73	215.49
860.04	215.50
860.35	215.47
860.66	215.43
860.98	215.43
861.29	215.45
861.60	215.41
861.91	215.46
862.22	215.40
862.53	215.37
862.84	215.08
863.16	215.12
863.47	215.08
863.78	215.07
864.09	215.10
864.40	215.15
864.71	215.16
865.02	215.19
865.33	215.15
865.64	215.13
865.95	215.13
866.27	215.28
866.58	215.23
866.89	215.25
867.20	215.23
867.51	215.21
867.82	215.18
868.13	215.26
868.44	215.17
868.75	215.24
869.06	215.24
869.37	215.25
869.68	215.16
869.99	215.22
870.30	215.25
870.61	215.23
870.92	215.19
871.23	215.15
871.54	215.15
871.85	215.20
872.16	215.18
872.47	215.13
872.78	214.99
873.09	214.99
873.40	214.97
873.71	214.99
874.02	215.00
874.33	215.00
874.64	214.95
874.95	215.01
875.26	214.93
875.56	214.93
875.87	214.95
876.18	214.96
876.49	215.15
876.80	215.12
877.11	215.06
877.42	215.07
877.73	215.07
878.04	215.06
878.35	215.03
878.66	215.03
878.96	215.04
879.27	215.03
879.58	215.03
879.89	215.02
880.20	215.06
880.51	215.02
880.82	215.02
881.12	215.04
881.43	214.98
881.74	214.98
882.05	214.97
882.36	214.97
882.67	214.98
882.97	214.78
883.28	214.76
883.59	214.79
883.90	214.81
884.21	214.84
884.51	214.83
884.82	214.82
885.13	214.81
885.44	214.81
885.74	214.82
886.05	214.79
886.36	214.81
886.67	214.73
886.98	214.82
887.28	214.82
887.59	214.80
887.90	214.82
888.20	214.80
888.51	214.85
888.82	214.79
889.13	214.78
889.43	214.93
889.74	214.91
890.05	214.88
890.35	214.86
890.66	214.80
890.97	214.76
891.28	214.73
891.58	214.72
891.89	214.73
892.20	214.70
892.50	214.70
892.81	214.67
893.12	214.64
893.42	214.58
893.73	214.61
894.04	214.58
894.34	214.58
894.65	214.56
894.95	214.52
895.26	214.56
895.57	214.66
895.87	214.49
896.18	214.54
896.48	214.57
896.79	214.53
897.10	214.58
897.40	214.60
897.71	214.61
898.01	214.60
898.32	214.61
898.63	214.65
898.93	214.68
899.24	214.69
899.54	214.70
899.85	214.66
900.15	214.64
900.46	214.65
900.76	214.68
901.07	214.70
901.38	214.69
901.68	214.70
901.99	214.59
902.29	214.59
902.60	214.55
902.90	214.53
903.21	214.57
903.51	214.54
903.82	214.59
904.12	214.59
904.43	214.63
904.73	214.61
905.03	214.60
905.34	214.79
905.64	214.77
905.95	214.80
906.25	214.80
906.56	214.79
906.86	214.81
907.17	214.79
907.47	214.79
907.77	214.80
908.08	214.76
908.38	214.76
908.69	214.76
908.99	214.79
909.30	214.80
909.60	214.78
909.90	214.79
910.21	214.75
910.51	214.71
910.81	214.68
911.12	214.69
911.42	214.70
911.73	214.47
912.03	214.50
912.33	214.52
912.64	214.52
912.94	214.49
913.24	214.44
913.55	214.44
913.85	214.45
914.15	214.49
914.46	214.53
914.76	214.53
915.06	214.53
915.37	214.52
915.67	214.54
915.97	214.53
916.27	214.47
916.58	214.48
916.88	214.50
917.18	214.50
917.49	214.66
917.79	214.62
918.09	214.66
918.39	214.71
918.70	214.69
919.00	214.70
919.30	214.79
919.60	214.80
919.91	214.75
920.21	214.74
920.51	214.66
920.81	214.64
921.12	214.65
921.42	214.62
921.72	214.60
922.02	214.60
922.32	214.63
922.63	214.65
922.93	214.74
923.23	214.78
923.53	214.78
923.83	214.60
924.13	214.62
924.44	214.63
924.74	214.62
925.04	214.69
925.34	214.67
925.64	214.59
925.94	214.59
926.24	214.73
926.55	214.71
926.85	214.73
927.15	214.72
927.45	214.73
927.75	214.75
928.05	214.77
928.35	214.77
928.65	214.83
928.95	214.86
929.26	214.79
929.56	214.79
929.86	214.80
930.16	214.83
930.46	214.84
930.76	214.84
931.06	214.79
931.36	214.68
931.66	214.71
931.96	214.74
932.26	214.80
932.56	214.71
932.86	214.74
933.16	214.77
933.46	214.79
933.76	214.76
934.06	214.83
934.36	214.94
934.66	214.90
934.96	214.85
935.26	214.86
935.56	214.85
935.86	214.81
936.16	214.80
936.46	214.75
936.76	214.76
937.06	214.70
937.36	214.69
937.66	214.74
937.96	214.75
938.26	214.72
938.56	214.69
938.86	214.70
939.16	214.75
939.46	214.77
939.76	214.76
940.06	214.75
940.35	214.65
940.65	214.50
940.95	214.53
941.25	214.49
941.55	214.48
941.85	214.47
942.15	214.47
942.45	214.55
942.75	214.55
943.04	214.53
943.34	214.61
943.64	214.60
943.94	214.56
944.24	214.56
944.54	214.57
944.84	214.52
945.13	214.52
945.43	214.44
945.73	214.41
946.03	214.41
946.33	214.37
946.62	214.37
946.92	214.36
947.22	214.40
947.52	214.44
947.82	214.47
948.11	214.46
948.41	214.46
948.71	214.37
949.01	214.39
949.31	214.41
949.60	214.38
949.90	214.44
950.20	214.44
950.50	214.43
950.79	214.41
951.09	214.46
951.39	214.42
951.69	214.44
951.98	214.49
952.28	214.50
952.58	214.54
952.87	214.58
953.17	214.60
953.47	214.56
953.76	214.52
954.06	214.46
954.36	214.42
954.66	214.41
954.95	214.44
955.25	214.47
955.55	214.49
955.84	214.42
956.14	214.42
956.44	214.43
956.73	214.38
957.03	214.39
957.32	214.39
957.62	214.41
957.92	214.43
958.21	214.40
958.51	214.62
958.81	214.63
959.10	214.65
959.40	214.70
959.69	214.72
959.99	214.78
960.29	214.77
960.58	214.78
960.88	214.88
961.17	214.87
961.47	214.84
961.76	214.78
962.06	214.84
962.36	214.80
962.65	214.81
962.95	214.82
963.24	214.81
963.54	214.82
963.83	214.82
964.13	214.78
964.42	214.73
964.72	214.58
965.01	214.59
965.31	214.56
965.60	214.52
965.90	214.63
966.19	214.57
966.49	214.60
966.78	214.57
967.08	214.54
967.37	214.55
967.67	214.56
967.96	214.64
968.26	214.64
968.55	214.66
968.85	214.66
969.14	214.69
969.43	214.71
969.73	214.69
970.02	214.64
970.32	214.65
970.61	214.65
970.91	214.56
971.20	214.53
971.49	214.52
971.79	214.52
972.08	214.39
972.38	214.42
972.67	214.42
972.96	214.47
973.26	214.43
973.55	214.48
973.85	214.45
974.14	214.41
974.43	214.40
974.73	214.37
975.02	214.34
975.31	214.34
975.61	214.36
975.90	214.36
976.19	214.36
976.49	214.37
976.78	214.36
977.07	214.34
977.37	214.35
977.66	214.37
977.95	214.36
978.24	214.39
978.54	214.40
978.83	214.38
979.12	214.35
979.42	214.36
979.71	214.33
980.00	214.33
980.29	214.32
980.59	214.29
980.88	214.33
981.17	214.32
981.46	214.32
981.76	214.32
982.05	214.39
982.34	214.43
982.63	214.42
982.93	214.45
983.22	214.52
983.51	214.52
983.80	214.53
984.09	214.56
984.39	214.52
984.68	214.51
984.97	214.53
985.26	214.52
985.55	214.51
985.85	214.48
986.14	214.48
986.43	214.49
986.72	214.51
987.01	214.46
987.30	214.47
987.59	214.44
987.89	214.41
988.18	214.30
988.47	214.27
988.76	214.26
989.05	214.24
989.34	214.20
989.63	214.26
989.92	214.27
990.22	214.22
990.51	214.25
990.80	214.23
991.09	214.25
991.38	214.29
991.67	214.26
991.96	214.26
992.25	214.30
992.54	214.28
992.83	214.26
993.12	214.27
993.41	214.30
993.70	214.40
993.99	214.46
994.28	214.56
994.58	214.58
994.87	214.56
995.16	214.54
995.45	214.56
995.74	214.51
996.03	214.49
996.32	214.55
996.61	214.56
996.90	214.56
997.19	214.54
997.48	214.51
997.77	214.50
998.06	214.48
998.34	214.49
998.63	214.50
998.92	214.52
999.21	214.52
999.50	214.51
999.79	214.45
1000.08	214.45
1000.37	214.42
1000.66	214.41
1000.95	214.47
1001.24	214.49
1001.53	214.48
1001.82	214.48
1002.11	214.45
1002.40	214.46
1002.68	214.48
1002.97	214.63
1003.26	214.61
1003.55	214.62
1003.84	214.67
1004.13	214.77
1004.42	214.73
1004.71	214.71
1004.99	214.72
1005.28	214.76
1005.57	214.76
1005.86	214.75
1006.15	214.71
1006.44	214.66
1006.72	214.70
1007.01	214.68
1007.30	214.69
1007.59	214.69
1007.88	214.66
1008.17	214.65
1008.45	214.60
1008.74	214.51
1009.03	214.41
1009.32	214.42
1009.60	214.41
1009.89	214.35
1010.18	214.26
1010.47	214.24
1010.76	214.26
1011.04	214.25
1011.33	214.28
1011.62	214.29
1011.91	214.28
1012.19	214.28
1012.48	214.32
1012.77	214.29
1013.05	214.38
1013.34	214.36
1013.63	214.36
1013.92	214.39
1014.20	214.40
1014.49	214.41
1014.78	214.45
1015.06	214.42
1015.35	214.41
1015.64	214.44
1015.92	214.48
1016.21	214.46
1016.50	214.48
1016.78	214.51
1017.07	214.52
1017.36	214.42
1017.64	214.38
1017.93	214.42
1018.22	214.38
1018.50	214.35
1018.79	214.34
1019.08	214.23
1019.36	214.25
1019.65	214.21
1019.93	214.27
1020.22	214.31
1020.51	214.43
1020.79	214.37
1021.08	213.77
1021.36	213.76
1021.65	214.18
1021.94	214.25
1022.22	214.38
1022.51	213.70
1022.79	215.30
1023.08	214.82
1023.36	216.77
1023.65	213.64
>>>>>End Processed Spectral Data<<<<<
