SpectraSuite Data File
++++++++++++++++++++++++++++++++++++
Date: Tue Jan 29 16:14:11 EST 2013
User: group
Dark Spectrum Present: No
Reference Spectrum Present: No
Number of Sampled Component Spectra: 1
Spectrometers: USB2E7196
Integration Time (usec): 65000 (USB2E7196)
Spectra Averaged: 100 (USB2E7196)
Boxcar Smoothing: 10 (USB2E7196)
Correct for Electrical Dark: No (USB2E7196)
Strobe/Lamp Enabled: No (USB2E7196)
Correct for Detector Non-linearity: No (USB2E7196)
Correct for Stray Light: No (USB2E7196)
Number of Pixels in Processed Spectrum: 2048
>>>>>Begin Processed Spectral Data<<<<<
339.09	0.00
339.48	202.50
339.86	203.89
340.24	206.02
340.63	206.86
341.01	211.15
341.39	209.44
341.78	211.22
342.16	212.42
342.54	212.64
342.93	201.89
343.31	212.11
343.69	212.63
344.07	213.12
344.46	213.56
344.84	213.96
345.22	214.15
345.60	214.42
345.99	214.57
346.37	214.69
346.75	214.81
347.13	214.88
347.52	214.97
347.90	215.10
348.28	215.10
348.66	215.17
349.05	215.12
349.43	215.18
349.81	215.21
350.19	215.29
350.57	215.34
350.96	215.41
351.34	215.48
351.72	215.58
352.10	215.66
352.48	215.69
352.87	215.76
353.25	215.81
353.63	215.85
354.01	215.95
354.39	216.06
354.77	216.13
355.15	216.24
355.54	216.26
355.92	216.23
356.30	216.31
356.68	216.53
357.06	216.63
357.44	216.63
357.82	216.68
358.20	216.72
358.58	216.79
358.97	216.85
359.35	216.95
359.73	217.03
360.11	217.07
360.49	217.16
360.87	217.15
361.25	217.24
361.63	217.35
362.01	217.39
362.39	217.41
362.77	217.45
363.15	217.46
363.53	217.50
363.91	217.52
364.29	217.53
364.67	217.34
365.05	217.37
365.43	217.43
365.81	217.49
366.19	217.59
366.57	217.65
366.95	217.62
367.33	217.57
367.71	217.55
368.09	217.60
368.47	217.56
368.85	217.56
369.23	217.55
369.61	217.47
369.99	217.49
370.37	217.49
370.75	217.54
371.13	217.48
371.51	217.42
371.89	217.40
372.27	217.38
372.65	217.33
373.03	217.30
373.41	217.22
373.78	217.14
374.16	217.00
374.54	216.92
374.92	216.89
375.30	216.86
375.68	216.81
376.06	216.76
376.44	216.72
376.82	216.68
377.19	216.63
377.57	216.59
377.95	216.52
378.33	216.46
378.71	216.31
379.09	216.30
379.47	216.31
379.84	216.24
380.22	216.21
380.60	216.16
380.98	216.14
381.36	216.09
381.73	216.05
382.11	216.06
382.49	216.01
382.87	215.93
383.25	215.86
383.62	216.07
384.00	215.99
384.38	215.95
384.76	215.99
385.13	216.05
385.51	216.01
385.89	215.94
386.27	215.91
386.64	215.90
387.02	215.85
387.40	215.79
387.78	215.80
388.15	215.77
388.53	215.78
388.91	215.70
389.29	215.70
389.66	215.71
390.04	215.63
390.42	215.67
390.79	215.70
391.17	215.71
391.55	215.45
391.92	215.45
392.30	215.45
392.68	215.38
393.05	215.33
393.43	215.32
393.81	215.32
394.18	215.30
394.56	215.29
394.94	215.35
395.31	215.32
395.69	215.41
396.06	215.47
396.44	215.49
396.82	215.53
397.19	215.66
397.57	215.68
397.95	215.78
398.32	215.74
398.70	215.79
399.07	215.87
399.45	215.93
399.82	215.96
400.20	216.02
400.58	216.09
400.95	216.10
401.33	216.24
401.70	216.48
402.08	216.55
402.45	216.66
402.83	216.81
403.20	216.95
403.58	217.02
403.95	217.13
404.33	217.28
404.71	217.41
405.08	217.68
405.46	217.82
405.83	218.01
406.21	218.19
406.58	218.42
406.96	218.63
407.33	218.89
407.70	219.20
408.08	219.61
408.45	219.94
408.83	220.33
409.20	220.66
409.58	220.92
409.95	221.39
410.33	221.86
410.70	222.28
411.08	222.82
411.45	223.37
411.82	223.94
412.20	224.58
412.57	225.39
412.95	225.88
413.32	226.72
413.69	227.53
414.07	228.41
414.44	229.36
414.82	230.33
415.19	231.51
415.56	232.66
415.94	233.83
416.31	235.19
416.68	236.50
417.06	238.03
417.43	239.55
417.81	241.22
418.18	242.94
418.55	244.74
418.93	246.67
419.30	248.72
419.67	250.90
420.04	253.12
420.42	255.41
420.79	258.15
421.16	260.79
421.54	263.56
421.91	266.45
422.28	269.48
422.66	272.67
423.03	275.81
423.40	279.04
423.77	282.53
424.15	286.05
424.52	289.75
424.89	293.78
425.26	297.72
425.64	301.47
426.01	305.64
426.38	310.01
426.75	314.44
427.13	319.02
427.50	323.76
427.87	328.79
428.24	333.81
428.61	338.61
428.99	343.96
429.36	349.81
429.73	355.48
430.10	361.16
430.47	367.02
430.85	373.12
431.22	379.64
431.59	386.53
431.96	393.16
432.33	400.42
432.70	407.40
433.08	415.61
433.45	423.39
433.82	431.08
434.19	439.65
434.56	448.08
434.93	456.09
435.30	464.11
435.68	472.86
436.05	481.54
436.42	490.21
436.79	498.08
437.16	506.54
437.53	515.55
437.90	524.31
438.27	532.97
438.64	541.79
439.01	550.03
439.38	557.29
439.75	564.42
440.13	572.54
440.50	580.19
440.87	586.39
441.24	592.79
441.61	599.92
441.98	605.11
442.35	611.21
442.72	617.31
443.09	623.17
443.46	626.85
443.83	629.26
444.20	631.31
444.57	634.35
444.94	635.74
445.31	637.08
445.68	638.42
446.05	638.97
446.42	638.22
446.79	637.26
447.16	636.21
447.53	635.41
447.90	632.20
448.27	629.09
448.64	624.56
449.01	621.35
449.37	615.63
449.74	610.14
450.11	603.50
450.48	596.35
450.85	589.09
451.22	582.78
451.59	576.88
451.96	571.24
452.33	563.62
452.70	556.68
453.07	548.52
453.43	540.24
453.80	532.25
454.17	524.52
454.54	517.25
454.91	509.41
455.28	501.73
455.65	494.57
456.02	487.32
456.38	481.24
456.75	473.69
457.12	467.35
457.49	461.12
457.86	455.11
458.23	450.00
458.59	444.35
458.96	438.64
459.33	433.50
459.70	428.38
460.07	424.33
460.43	419.70
460.80	415.28
461.17	411.46
461.54	407.39
461.91	403.60
462.27	399.61
462.64	396.26
463.01	392.57
463.38	389.06
463.74	385.52
464.11	382.43
464.48	379.72
464.85	376.76
465.21	374.43
465.58	371.87
465.95	368.81
466.32	366.29
466.68	363.78
467.05	361.27
467.42	358.79
467.78	356.21
468.15	353.74
468.52	351.95
468.88	349.55
469.25	347.44
469.62	345.69
469.98	343.83
470.35	342.13
470.72	340.50
471.08	338.76
471.45	337.37
471.82	335.93
472.18	334.32
472.55	333.16
472.92	331.79
473.28	330.65
473.65	329.54
474.02	328.48
474.38	327.62
474.75	326.92
475.11	326.17
475.48	325.65
475.85	325.16
476.21	324.69
476.58	324.39
476.94	324.20
477.31	323.92
477.67	323.72
478.04	323.60
478.41	323.61
478.77	323.78
479.14	323.73
479.50	323.83
479.87	324.14
480.23	324.47
480.60	324.75
480.96	325.07
481.33	325.72
481.69	326.29
482.06	326.84
482.42	327.35
482.79	327.98
483.15	328.74
483.52	329.74
483.88	330.66
484.25	331.58
484.61	332.61
484.98	333.67
485.34	334.97
485.71	336.36
486.07	337.77
486.44	339.10
486.80	340.64
487.17	342.35
487.53	344.16
487.90	345.99
488.26	348.02
488.62	350.11
488.99	352.16
489.35	354.33
489.72	356.71
490.08	359.22
490.44	361.79
490.81	364.52
491.17	367.25
491.54	370.20
491.90	373.23
492.26	376.45
492.63	379.84
492.99	383.30
493.36	386.94
493.72	390.81
494.08	394.84
494.45	399.07
494.81	403.42
495.17	407.81
495.54	412.51
495.90	417.32
496.26	422.19
496.63	427.35
496.99	432.72
497.35	438.23
497.72	444.05
498.08	449.95
498.44	455.98
498.80	462.41
499.17	468.84
499.53	475.48
499.89	482.34
500.26	489.25
500.62	496.35
500.98	503.70
501.34	511.19
501.71	518.87
502.07	526.61
502.43	534.56
502.79	542.67
503.16	550.96
503.52	559.45
503.88	568.15
504.24	577.04
504.60	586.09
504.97	595.31
505.33	604.45
505.69	614.27
506.05	624.08
506.41	633.81
506.78	643.82
507.14	654.05
507.50	664.40
507.86	675.07
508.22	685.84
508.59	696.52
508.95	707.46
509.31	718.65
509.67	730.04
510.03	741.37
510.39	753.08
510.75	764.87
511.12	776.73
511.48	788.79
511.84	800.97
512.20	813.14
512.56	825.65
512.92	838.34
513.28	850.86
513.64	863.43
514.00	876.12
514.37	888.84
514.73	901.78
515.09	914.62
515.45	927.32
515.81	940.02
516.17	953.17
516.53	966.22
516.89	979.06
517.25	992.04
517.61	1005.29
517.97	1018.42
518.33	1031.33
518.69	1044.63
519.05	1058.15
519.41	1071.52
519.77	1085.18
520.13	1098.15
520.49	1111.09
520.85	1124.17
521.21	1137.26
521.57	1150.69
521.93	1163.63
522.29	1177.08
522.65	1190.42
523.01	1203.77
523.37	1216.73
523.73	1229.84
524.09	1242.78
524.45	1255.98
524.81	1269.17
525.17	1282.30
525.53	1295.19
525.89	1308.29
526.25	1321.14
526.61	1333.58
526.97	1346.30
527.33	1358.93
527.68	1372.20
528.04	1385.47
528.40	1398.26
528.76	1411.46
529.12	1424.05
529.48	1437.07
529.84	1449.15
530.20	1461.66
530.56	1473.90
530.91	1486.84
531.27	1499.29
531.63	1511.74
531.99	1524.17
532.35	1536.16
532.71	1548.26
533.07	1560.82
533.42	1572.57
533.78	1584.32
534.14	1596.19
534.50	1607.23
534.86	1618.48
535.21	1628.96
535.57	1640.06
535.93	1651.13
536.29	1661.80
536.65	1672.83
537.00	1683.43
537.36	1694.43
537.72	1705.17
538.08	1716.30
538.44	1726.89
538.79	1737.57
539.15	1748.06
539.51	1758.45
539.87	1769.48
540.22	1779.93
540.58	1790.46
540.94	1801.11
541.29	1811.12
541.65	1820.57
542.01	1830.79
542.37	1840.62
542.72	1850.59
543.08	1860.03
543.44	1870.21
543.79	1879.21
544.15	1888.42
544.51	1898.18
544.87	1907.65
545.22	1916.46
545.58	1925.12
545.94	1933.71
546.29	1942.03
546.65	1950.23
547.01	1958.33
547.36	1965.78
547.72	1973.28
548.07	1980.84
548.43	1988.40
548.79	1996.02
549.14	2003.89
549.50	2012.03
549.86	2019.61
550.21	2026.70
550.57	2034.03
550.92	2040.47
551.28	2047.73
551.64	2054.77
551.99	2061.96
552.35	2068.94
552.70	2075.68
553.06	2082.08
553.41	2088.20
553.77	2094.60
554.13	2100.80
554.48	2107.62
554.84	2114.43
555.19	2120.74
555.55	2126.81
555.90	2132.94
556.26	2139.61
556.61	2145.41
556.97	2150.10
557.32	2155.85
557.68	2162.25
558.03	2168.00
558.39	2173.25
558.74	2179.11
559.10	2184.63
559.45	2190.18
559.81	2195.68
560.16	2201.09
560.52	2206.95
560.87	2213.20
561.23	2219.09
561.58	2225.71
561.94	2230.69
562.29	2235.47
562.64	2241.62
563.00	2247.36
563.35	2252.92
563.71	2258.71
564.06	2264.44
564.42	2270.51
564.77	2275.53
565.12	2280.52
565.48	2285.83
565.83	2291.29
566.19	2296.80
566.54	2302.20
566.89	2306.62
567.25	2311.37
567.60	2317.06
567.96	2322.21
568.31	2326.93
568.66	2331.16
569.02	2335.00
569.37	2338.99
569.72	2343.32
570.08	2346.90
570.43	2350.00
570.78	2353.11
571.14	2355.73
571.49	2358.87
571.84	2362.32
572.20	2365.22
572.55	2368.58
572.90	2370.74
573.26	2373.79
573.61	2376.45
573.96	2378.69
574.31	2381.02
574.67	2382.87
575.02	2383.84
575.37	2385.41
575.72	2386.20
576.08	2387.89
576.43	2388.15
576.78	2388.98
577.13	2391.00
577.49	2392.19
577.84	2393.46
578.19	2395.06
578.54	2395.86
578.90	2396.94
579.25	2396.95
579.60	2397.32
579.95	2396.61
580.30	2397.07
580.66	2396.39
581.01	2394.87
581.36	2392.71
581.71	2391.40
582.06	2390.56
582.42	2389.94
582.77	2387.89
583.12	2386.47
583.47	2385.21
583.82	2384.81
584.17	2383.58
584.53	2381.32
584.88	2379.52
585.23	2377.70
585.58	2375.62
585.93	2373.49
586.28	2371.31
586.63	2369.21
586.98	2367.06
587.34	2365.33
587.69	2363.11
588.04	2361.35
588.39	2359.94
588.74	2357.67
589.09	2355.24
589.44	2352.17
589.79	2349.89
590.14	2348.17
590.49	2345.53
590.84	2341.91
591.19	2339.21
591.54	2336.09
591.89	2332.31
592.25	2329.20
592.60	2325.25
592.95	2321.23
593.30	2317.32
593.65	2313.26
594.00	2308.91
594.35	2306.05
594.70	2301.57
595.05	2297.05
595.40	2291.75
595.75	2286.33
596.10	2282.95
596.45	2278.21
596.80	2273.78
597.15	2268.67
597.50	2262.94
597.85	2258.07
598.19	2252.90
598.54	2247.08
598.89	2242.04
599.24	2237.60
599.59	2231.58
599.94	2225.96
600.29	2220.16
600.64	2214.40
600.99	2207.76
601.34	2202.44
601.69	2195.47
602.04	2189.12
602.39	2182.58
602.74	2176.66
603.08	2171.15
603.43	2164.58
603.78	2157.94
604.13	2151.02
604.48	2143.82
604.83	2137.78
605.18	2131.64
605.53	2124.65
605.87	2117.69
606.22	2111.04
606.57	2103.23
606.92	2095.46
607.27	2088.64
607.62	2082.01
607.96	2075.04
608.31	2068.58
608.66	2060.96
609.01	2053.41
609.36	2046.46
609.70	2038.84
610.05	2031.11
610.40	2022.83
610.75	2014.66
611.10	2006.99
611.44	1998.26
611.79	1989.64
612.14	1979.65
612.49	1969.18
612.83	1960.14
613.18	1951.01
613.53	1941.53
613.88	1931.88
614.22	1923.33
614.57	1913.42
614.92	1902.94
615.27	1892.89
615.61	1882.89
615.96	1873.26
616.31	1863.77
616.65	1854.30
617.00	1844.49
617.35	1834.94
617.70	1825.27
618.04	1815.26
618.39	1805.04
618.74	1795.35
619.08	1785.80
619.43	1777.16
619.78	1768.98
620.12	1760.21
620.47	1750.58
620.82	1740.37
621.16	1730.66
621.51	1720.65
621.85	1710.87
622.20	1700.41
622.55	1689.80
622.89	1679.95
623.24	1670.34
623.59	1660.60
623.93	1650.52
624.28	1640.85
624.62	1630.65
624.97	1620.47
625.32	1610.80
625.66	1602.05
626.01	1593.35
626.35	1583.97
626.70	1573.91
627.04	1563.70
627.39	1553.76
627.73	1544.46
628.08	1535.51
628.43	1526.15
628.77	1516.98
629.12	1508.16
629.46	1500.42
629.81	1492.03
630.15	1482.44
630.50	1472.54
630.84	1462.16
631.19	1452.39
631.53	1443.09
631.88	1433.00
632.22	1423.09
632.57	1413.75
632.91	1403.59
633.26	1393.72
633.60	1384.23
633.95	1375.00
634.29	1365.75
634.64	1356.49
634.98	1346.66
635.32	1337.39
635.67	1328.86
636.01	1319.72
636.36	1309.89
636.70	1300.42
637.05	1291.14
637.39	1282.19
637.73	1273.57
638.08	1265.95
638.42	1257.60
638.77	1248.89
639.11	1240.66
639.45	1232.73
639.80	1224.10
640.14	1215.52
640.49	1206.79
640.83	1198.01
641.17	1189.95
641.52	1181.76
641.86	1173.09
642.20	1165.21
642.55	1156.70
642.89	1147.81
643.23	1139.09
643.58	1131.18
643.92	1122.14
644.26	1113.58
644.61	1105.30
644.95	1096.68
645.29	1087.53
645.64	1078.53
645.98	1070.18
646.32	1062.31
646.66	1053.90
647.01	1045.67
647.35	1037.47
647.69	1029.03
648.04	1020.72
648.38	1011.89
648.72	1003.16
649.06	994.86
649.41	986.72
649.75	978.73
650.09	970.89
650.43	962.92
650.78	954.57
651.12	947.05
651.46	939.65
651.80	932.43
652.14	925.08
652.49	917.62
652.83	910.42
653.17	902.69
653.51	895.15
653.85	887.94
654.20	880.72
654.54	873.26
654.88	866.21
655.22	859.09
655.56	852.13
655.90	845.44
656.25	838.83
656.59	831.91
656.93	825.02
657.27	818.02
657.61	811.17
657.95	805.20
658.29	799.40
658.64	793.35
658.98	786.98
659.32	780.53
659.66	774.37
660.00	767.98
660.34	762.04
660.68	756.01
661.02	749.75
661.36	743.88
661.70	738.26
662.05	732.62
662.39	727.18
662.73	721.83
663.07	716.45
663.41	710.87
663.75	705.32
664.09	699.81
664.43	694.48
664.77	689.26
665.11	683.46
665.45	677.58
665.79	671.87
666.13	666.21
666.47	660.74
666.81	655.37
667.15	650.23
667.49	645.11
667.83	639.90
668.17	634.78
668.51	629.75
668.85	624.91
669.19	620.15
669.53	615.18
669.87	610.18
670.21	605.53
670.55	600.86
670.89	596.59
671.23	592.29
671.57	587.98
671.91	583.69
672.25	579.61
672.58	575.54
672.92	571.52
673.26	567.66
673.60	563.93
673.94	560.19
674.28	556.54
674.62	552.84
674.96	549.18
675.30	545.75
675.64	542.18
675.97	538.61
676.31	535.03
676.65	531.54
676.99	528.15
677.33	524.40
677.67	520.93
678.01	517.08
678.34	513.50
678.68	509.99
679.02	506.42
679.36	502.83
679.70	499.17
680.04	495.68
680.37	492.33
680.71	489.05
681.05	485.92
681.39	482.74
681.73	479.64
682.06	476.67
682.40	473.57
682.74	470.40
683.08	467.30
683.42	464.15
683.75	461.29
684.09	458.31
684.43	455.51
684.77	452.63
685.10	449.81
685.44	446.94
685.78	444.11
686.12	441.48
686.45	438.78
686.79	436.27
687.13	433.78
687.46	431.18
687.80	428.56
688.14	425.79
688.48	423.22
688.81	420.60
689.15	418.05
689.49	415.50
689.82	413.05
690.16	410.46
690.50	408.04
690.83	405.50
691.17	402.95
691.51	400.57
691.84	398.39
692.18	396.26
692.52	394.17
692.85	392.10
693.19	389.96
693.52	387.88
693.86	385.66
694.20	383.55
694.53	381.47
694.87	379.35
695.21	377.26
695.54	375.17
695.88	373.09
696.21	370.94
696.55	368.88
696.88	366.89
697.22	364.99
697.56	363.17
697.89	361.34
698.23	359.70
698.56	357.92
698.90	356.13
699.23	354.27
699.57	352.39
699.90	350.60
700.24	348.84
700.58	347.11
700.91	345.49
701.25	343.95
701.58	342.39
701.92	340.83
702.25	339.28
702.59	337.69
702.92	336.18
703.26	334.67
703.59	333.30
703.93	332.03
704.26	330.65
704.60	329.20
704.93	327.74
705.26	326.28
705.60	324.89
705.93	323.44
706.27	322.10
706.60	320.90
706.94	319.66
707.27	318.29
707.61	316.97
707.94	315.68
708.27	314.15
708.61	312.71
708.94	311.35
709.28	310.09
709.61	308.87
709.94	307.64
710.28	306.47
710.61	305.28
710.95	303.92
711.28	302.85
711.61	301.66
711.95	300.55
712.28	299.37
712.61	298.22
712.95	297.17
713.28	296.19
713.61	295.07
713.95	293.95
714.28	292.98
714.61	291.98
714.95	290.97
715.28	290.04
715.61	289.09
715.95	288.18
716.28	287.22
716.61	286.32
716.95	285.41
717.28	284.50
717.61	283.53
717.94	282.65
718.28	281.61
718.61	280.78
718.94	279.95
719.27	279.14
719.61	278.34
719.94	277.48
720.27	276.55
720.60	275.72
720.94	274.97
721.27	274.23
721.60	273.55
721.93	272.88
722.27	272.25
722.60	271.59
722.93	270.89
723.26	270.26
723.59	269.52
723.93	268.87
724.26	268.26
724.59	267.65
724.92	267.00
725.25	266.51
725.59	265.96
725.92	265.41
726.25	264.82
726.58	264.29
726.91	263.74
727.24	263.23
727.57	262.66
727.91	262.03
728.24	261.51
728.57	260.92
728.90	260.38
729.23	259.79
729.56	259.34
729.89	258.84
730.22	258.27
730.55	257.79
730.89	257.28
731.22	256.74
731.55	256.19
731.88	255.74
732.21	255.20
732.54	254.68
732.87	254.19
733.20	253.80
733.53	253.28
733.86	252.80
734.19	252.35
734.52	251.98
734.85	251.73
735.18	251.28
735.51	250.94
735.84	250.48
736.17	250.09
736.50	249.61
736.83	249.48
737.16	249.16
737.49	248.80
737.82	248.41
738.15	248.09
738.48	247.76
738.81	247.38
739.14	246.97
739.47	246.58
739.80	246.19
740.13	245.83
740.46	245.51
740.79	245.14
741.12	244.78
741.45	244.43
741.78	243.99
742.11	243.68
742.44	243.31
742.77	243.04
743.10	242.71
743.43	242.35
743.75	241.78
744.08	241.68
744.41	241.35
744.74	241.02
745.07	240.64
745.40	240.34
745.73	240.10
746.06	239.80
746.39	239.53
746.71	239.23
747.04	238.89
747.37	238.56
747.70	238.31
748.03	238.00
748.36	237.74
748.68	237.41
749.01	237.07
749.34	236.79
749.67	236.51
750.00	236.26
750.33	236.17
750.65	235.94
750.98	235.42
751.31	235.19
751.64	234.96
751.97	234.81
752.29	234.53
752.62	234.21
752.95	233.97
753.28	233.65
753.60	233.41
753.93	233.22
754.26	232.99
754.59	232.71
754.91	232.50
755.24	232.26
755.57	232.06
755.90	231.86
756.22	231.63
756.55	231.40
756.88	231.15
757.20	230.84
757.53	230.59
757.86	230.37
758.19	230.17
758.51	229.99
758.84	229.71
759.17	229.55
759.49	229.40
759.82	229.29
760.15	229.19
760.47	229.01
760.80	228.78
761.13	228.65
761.45	228.48
761.78	228.27
762.11	228.09
762.43	227.90
762.76	227.74
763.08	227.61
763.41	227.48
763.74	227.32
764.06	227.14
764.39	226.99
764.71	226.85
765.04	226.70
765.37	226.52
765.69	226.38
766.02	226.24
766.34	226.03
766.67	225.82
767.00	225.71
767.32	225.70
767.65	225.67
767.97	225.52
768.30	225.41
768.62	225.30
768.95	225.16
769.27	225.04
769.60	224.95
769.92	224.78
770.25	224.61
770.57	224.48
770.90	224.32
771.22	224.21
771.55	224.14
771.87	224.05
772.20	223.97
772.52	224.01
772.85	224.16
773.17	224.11
773.50	224.01
773.82	223.90
774.15	223.70
774.47	223.50
774.80	223.38
775.12	223.27
775.45	223.17
775.77	223.11
776.09	223.03
776.42	222.93
776.74	222.87
777.07	222.78
777.39	222.73
777.72	222.67
778.04	222.57
778.36	222.47
778.69	222.38
779.01	222.30
779.33	222.06
779.66	221.74
779.98	221.63
780.31	221.56
780.63	221.58
780.95	221.53
781.28	221.47
781.60	221.39
781.92	221.32
782.25	221.27
782.57	221.21
782.89	221.12
783.22	221.03
783.54	220.97
783.86	220.93
784.19	220.82
784.51	220.80
784.83	220.76
785.16	220.69
785.48	220.63
785.80	220.56
786.12	220.54
786.45	220.47
786.77	220.44
787.09	220.36
787.42	220.23
787.74	220.19
788.06	220.13
788.38	220.10
788.71	220.03
789.03	220.01
789.35	219.95
789.67	219.90
789.99	219.87
790.32	219.78
790.64	219.74
790.96	219.89
791.28	219.79
791.61	219.71
791.93	219.66
792.25	219.56
792.57	219.70
792.89	219.58
793.21	219.54
793.54	219.47
793.86	219.44
794.18	219.42
794.50	219.33
794.82	219.29
795.14	219.24
795.47	219.26
795.79	219.22
796.11	219.16
796.43	219.09
796.75	219.02
797.07	219.00
797.39	218.95
797.71	218.75
798.04	218.74
798.36	218.73
798.68	218.70
799.00	218.70
799.32	218.51
799.64	218.53
799.96	218.48
800.28	218.43
800.60	218.38
800.92	218.34
801.24	218.26
801.56	218.24
801.89	218.19
802.21	218.14
802.53	218.04
802.85	218.07
803.17	218.13
803.49	218.08
803.81	218.04
804.13	218.01
804.45	217.96
804.77	217.93
805.09	217.88
805.41	217.82
805.73	217.77
806.05	217.71
806.37	217.67
806.69	217.65
807.01	217.64
807.33	217.64
807.65	217.58
807.97	217.65
808.28	217.62
808.60	217.59
808.92	217.54
809.24	217.68
809.56	217.58
809.88	217.50
810.20	217.47
810.52	217.50
810.84	217.44
811.16	217.39
811.48	217.35
811.80	217.40
812.12	217.38
812.43	217.39
812.75	217.37
813.07	217.34
813.39	217.36
813.71	217.30
814.03	217.28
814.35	217.26
814.67	217.17
814.98	217.12
815.30	217.08
815.62	217.01
815.94	216.85
816.26	216.86
816.58	216.80
816.89	216.80
817.21	216.72
817.53	216.70
817.85	216.68
818.17	216.65
818.48	216.56
818.80	216.60
819.12	216.54
819.44	216.49
819.76	216.48
820.07	216.41
820.39	216.38
820.71	216.36
821.03	216.32
821.34	216.32
821.66	216.34
821.98	216.37
822.30	216.35
822.61	216.47
822.93	216.43
823.25	216.40
823.57	216.37
823.88	216.43
824.20	216.44
824.52	216.46
824.83	216.46
825.15	216.44
825.47	216.41
825.79	216.43
826.10	216.45
826.42	216.36
826.74	216.39
827.05	216.40
827.37	216.40
827.69	216.37
828.00	216.33
828.32	216.31
828.64	216.26
828.95	216.37
829.27	216.27
829.58	216.27
829.90	216.32
830.22	216.34
830.53	216.24
830.85	216.16
831.17	216.12
831.48	216.08
831.80	216.06
832.11	216.00
832.43	215.97
832.75	215.92
833.06	216.07
833.38	216.00
833.69	215.97
834.01	215.98
834.32	215.95
834.64	215.93
834.96	215.95
835.27	215.98
835.59	215.89
835.90	215.84
836.22	215.81
836.53	215.79
836.85	215.74
837.16	215.95
837.48	215.97
837.79	215.99
838.11	216.01
838.42	216.03
838.74	216.07
839.05	216.02
839.37	216.02
839.68	215.88
840.00	215.89
840.31	215.92
840.63	215.87
840.94	215.88
841.26	215.86
841.57	215.82
841.88	215.81
842.20	215.74
842.51	215.73
842.83	215.72
843.14	215.85
843.46	215.87
843.77	215.76
844.08	215.75
844.40	215.72
844.71	215.68
845.03	215.63
845.34	215.59
845.65	215.59
845.97	215.59
846.28	215.59
846.60	215.59
846.91	215.55
847.22	215.53
847.54	215.58
847.85	215.58
848.16	215.54
848.48	215.50
848.79	215.62
849.10	215.67
849.42	215.65
849.73	215.45
850.04	215.43
850.36	215.34
850.67	215.37
850.98	215.38
851.30	215.39
851.61	215.38
851.92	215.39
852.23	215.46
852.55	215.47
852.86	215.46
853.17	215.46
853.49	215.50
853.80	215.55
854.11	215.51
854.42	215.56
854.74	215.54
855.05	215.55
855.36	215.43
855.67	215.38
855.99	215.40
856.30	215.64
856.61	215.60
856.92	215.61
857.23	215.61
857.55	215.56
857.86	215.56
858.17	215.59
858.48	215.55
858.79	215.47
859.11	215.48
859.42	215.48
859.73	215.44
860.04	215.42
860.35	215.35
860.66	215.29
860.98	215.26
861.29	215.29
861.60	215.28
861.91	215.31
862.22	215.30
862.53	215.26
862.84	215.02
863.16	215.11
863.47	215.07
863.78	215.05
864.09	215.07
864.40	215.04
864.71	215.05
865.02	215.07
865.33	215.07
865.64	215.04
865.95	215.02
866.27	215.16
866.58	215.15
866.89	215.19
867.20	215.17
867.51	215.10
867.82	215.08
868.13	215.12
868.44	215.08
868.75	215.12
869.06	215.13
869.37	215.16
869.68	215.07
869.99	215.10
870.30	215.10
870.61	215.14
870.92	215.14
871.23	215.09
871.54	215.10
871.85	215.14
872.16	215.15
872.47	215.15
872.78	215.04
873.09	215.05
873.40	214.99
873.71	215.04
874.02	215.06
874.33	215.04
874.64	214.97
874.95	215.01
875.26	214.98
875.56	215.00
875.87	214.97
876.18	214.96
876.49	215.16
876.80	215.13
877.11	215.11
877.42	215.10
877.73	215.10
878.04	215.09
878.35	215.09
878.66	215.11
878.96	215.09
879.27	215.06
879.58	215.04
879.89	215.07
880.20	215.14
880.51	215.15
880.82	215.16
881.12	215.18
881.43	215.13
881.74	215.06
882.05	215.04
882.36	215.07
882.67	215.09
882.97	214.87
883.28	214.85
883.59	214.81
883.90	214.84
884.21	214.86
884.51	214.84
884.82	214.81
885.13	214.80
885.44	214.78
885.74	214.77
886.05	214.74
886.36	214.74
886.67	214.68
886.98	214.78
887.28	214.81
887.59	214.84
887.90	214.85
888.20	214.87
888.51	214.91
888.82	214.84
889.13	214.85
889.43	214.98
889.74	214.96
890.05	214.95
890.35	214.91
890.66	214.91
890.97	214.89
891.28	214.87
891.58	214.85
891.89	214.84
892.20	214.86
892.50	214.84
892.81	214.82
893.12	214.78
893.42	214.67
893.73	214.69
894.04	214.66
894.34	214.68
894.65	214.67
894.95	214.64
895.26	214.68
895.57	214.79
895.87	214.62
896.18	214.67
896.48	214.72
896.79	214.74
897.10	214.77
897.40	214.77
897.71	214.77
898.01	214.78
898.32	214.82
898.63	214.80
898.93	214.86
899.24	214.87
899.54	214.86
899.85	214.86
900.15	214.80
900.46	214.83
900.76	214.86
901.07	214.86
901.38	214.85
901.68	214.89
901.99	214.76
902.29	214.80
902.60	214.79
902.90	214.77
903.21	214.76
903.51	214.75
903.82	214.82
904.12	214.85
904.43	214.82
904.73	214.83
905.03	214.85
905.34	215.02
905.64	214.99
905.95	215.00
906.25	215.02
906.56	215.03
906.86	215.03
907.17	214.97
907.47	215.00
907.77	214.98
908.08	214.93
908.38	214.94
908.69	214.96
908.99	215.02
909.30	215.05
909.60	215.04
909.90	215.04
910.21	214.94
910.51	214.91
910.81	214.96
911.12	214.95
911.42	214.96
911.73	214.74
912.03	214.79
912.33	214.87
912.64	214.87
912.94	214.86
913.24	214.83
913.55	214.83
913.85	214.80
914.15	214.86
914.46	214.87
914.76	214.86
915.06	214.85
915.37	214.81
915.67	214.79
915.97	214.81
916.27	214.75
916.58	214.80
916.88	214.78
917.18	214.76
917.49	214.90
917.79	214.89
918.09	214.95
918.39	214.97
918.70	214.91
919.00	214.91
919.30	215.00
919.60	214.99
919.91	214.94
920.21	214.95
920.51	214.89
920.81	214.87
921.12	214.92
921.42	214.90
921.72	214.88
922.02	214.89
922.32	214.92
922.63	214.95
922.93	215.05
923.23	215.09
923.53	215.07
923.83	214.93
924.13	214.93
924.44	214.91
924.74	214.97
925.04	215.04
925.34	215.05
925.64	214.94
925.94	214.94
926.24	215.07
926.55	215.08
926.85	215.11
927.15	215.15
927.45	215.11
927.75	215.12
928.05	215.10
928.35	215.05
928.65	215.08
928.95	215.08
929.26	214.99
929.56	215.02
929.86	215.02
930.16	215.01
930.46	214.99
930.76	214.96
931.06	214.83
931.36	214.77
931.66	214.80
931.96	214.86
932.26	214.85
932.56	214.76
932.86	214.75
933.16	214.73
933.46	214.67
933.76	214.68
934.06	214.70
934.36	214.77
934.66	214.81
934.96	214.79
935.26	214.80
935.56	214.85
935.86	214.81
936.16	214.79
936.46	214.76
936.76	214.77
937.06	214.77
937.36	214.82
937.66	214.80
937.96	214.75
938.26	214.67
938.56	214.69
938.86	214.73
939.16	214.76
939.46	214.78
939.76	214.80
940.06	214.81
940.35	214.76
940.65	214.68
940.95	214.71
941.25	214.66
941.55	214.63
941.85	214.55
942.15	214.60
942.45	214.65
942.75	214.65
943.04	214.66
943.34	214.71
943.64	214.70
943.94	214.66
944.24	214.69
944.54	214.74
944.84	214.73
945.13	214.72
945.43	214.72
945.73	214.73
946.03	214.73
946.33	214.69
946.62	214.68
946.92	214.68
947.22	214.66
947.52	214.66
947.82	214.69
948.11	214.67
948.41	214.60
948.71	214.54
949.01	214.57
949.31	214.54
949.60	214.52
949.90	214.53
950.20	214.54
950.50	214.52
950.79	214.48
951.09	214.53
951.39	214.49
951.69	214.47
951.98	214.49
952.28	214.49
952.58	214.49
952.87	214.50
953.17	214.51
953.47	214.49
953.76	214.47
954.06	214.45
954.36	214.44
954.66	214.42
954.95	214.50
955.25	214.51
955.55	214.56
955.84	214.53
956.14	214.57
956.44	214.56
956.73	214.54
957.03	214.58
957.32	214.55
957.62	214.57
957.92	214.58
958.21	214.55
958.51	214.79
958.81	214.83
959.10	214.83
959.40	214.91
959.69	214.91
959.99	214.96
960.29	214.97
960.58	215.01
960.88	215.11
961.17	215.06
961.47	215.07
961.76	215.07
962.06	215.11
962.36	215.08
962.65	215.12
962.95	215.14
963.24	215.09
963.54	215.11
963.83	215.08
964.13	215.08
964.42	215.03
964.72	214.86
965.01	214.85
965.31	214.85
965.60	214.80
965.90	214.92
966.19	214.85
966.49	214.86
966.78	214.81
967.08	214.76
967.37	214.76
967.67	214.71
967.96	214.71
968.26	214.70
968.55	214.70
968.85	214.66
969.14	214.65
969.43	214.65
969.73	214.62
970.02	214.67
970.32	214.63
970.61	214.66
970.91	214.59
971.20	214.56
971.49	214.55
971.79	214.56
972.08	214.43
972.38	214.45
972.67	214.43
972.96	214.43
973.26	214.42
973.55	214.50
973.85	214.49
974.14	214.47
974.43	214.47
974.73	214.45
975.02	214.47
975.31	214.45
975.61	214.46
975.90	214.43
976.19	214.39
976.49	214.45
976.78	214.43
977.07	214.41
977.37	214.45
977.66	214.48
977.95	214.47
978.24	214.49
978.54	214.54
978.83	214.53
979.12	214.54
979.42	214.51
979.71	214.43
980.00	214.44
980.29	214.44
980.59	214.40
980.88	214.46
981.17	214.44
981.46	214.45
981.76	214.45
982.05	214.53
982.34	214.56
982.63	214.53
982.93	214.53
983.22	214.60
983.51	214.58
983.80	214.59
984.09	214.60
984.39	214.59
984.68	214.55
984.97	214.56
985.26	214.56
985.55	214.59
985.85	214.61
986.14	214.63
986.43	214.66
986.72	214.66
987.01	214.58
987.30	214.56
987.59	214.55
987.89	214.58
988.18	214.51
988.47	214.47
988.76	214.44
989.05	214.41
989.34	214.37
989.63	214.42
989.92	214.43
990.22	214.40
990.51	214.41
990.80	214.39
991.09	214.43
991.38	214.46
991.67	214.44
991.96	214.39
992.25	214.40
992.54	214.36
992.83	214.37
993.12	214.39
993.41	214.43
993.70	214.54
993.99	214.53
994.28	214.60
994.58	214.63
994.87	214.63
995.16	214.62
995.45	214.63
995.74	214.56
996.03	214.56
996.32	214.59
996.61	214.62
996.90	214.63
997.19	214.60
997.48	214.59
997.77	214.57
998.06	214.58
998.34	214.55
998.63	214.57
998.92	214.57
999.21	214.59
999.50	214.59
999.79	214.51
1000.08	214.52
1000.37	214.46
1000.66	214.47
1000.95	214.52
1001.24	214.56
1001.53	214.57
1001.82	214.54
1002.11	214.50
1002.40	214.52
1002.68	214.56
1002.97	214.69
1003.26	214.67
1003.55	214.65
1003.84	214.67
1004.13	214.73
1004.42	214.76
1004.71	214.76
1004.99	214.74
1005.28	214.77
1005.57	214.75
1005.86	214.70
1006.15	214.72
1006.44	214.73
1006.72	214.73
1007.01	214.71
1007.30	214.71
1007.59	214.70
1007.88	214.74
1008.17	214.74
1008.45	214.71
1008.74	214.62
1009.03	214.54
1009.32	214.53
1009.60	214.53
1009.89	214.55
1010.18	214.45
1010.47	214.42
1010.76	214.39
1011.04	214.39
1011.33	214.38
1011.62	214.39
1011.91	214.45
1012.19	214.44
1012.48	214.41
1012.77	214.43
1013.05	214.50
1013.34	214.50
1013.63	214.49
1013.92	214.50
1014.20	214.51
1014.49	214.51
1014.78	214.56
1015.06	214.49
1015.35	214.50
1015.64	214.54
1015.92	214.50
1016.21	214.54
1016.50	214.57
1016.78	214.58
1017.07	214.60
1017.36	214.53
1017.64	214.51
1017.93	214.49
1018.22	214.47
1018.50	214.46
1018.79	214.43
1019.08	214.35
1019.36	214.36
1019.65	214.33
1019.93	214.39
1020.22	214.38
1020.51	214.49
1020.79	214.42
1021.08	214.30
1021.36	213.74
1021.65	214.32
1021.94	214.44
1022.22	214.70
1022.51	213.89
1022.79	215.71
1023.08	214.37
1023.36	217.14
1023.65	213.61
>>>>>End Processed Spectral Data<<<<<
