SpectraSuite Data File
++++++++++++++++++++++++++++++++++++
Date: Tue Jan 29 16:22:26 EST 2013
User: group
Dark Spectrum Present: No
Reference Spectrum Present: No
Number of Sampled Component Spectra: 1
Spectrometers: USB2E7196
Integration Time (usec): 65000 (USB2E7196)
Spectra Averaged: 100 (USB2E7196)
Boxcar Smoothing: 10 (USB2E7196)
Correct for Electrical Dark: No (USB2E7196)
Strobe/Lamp Enabled: No (USB2E7196)
Correct for Detector Non-linearity: No (USB2E7196)
Correct for Stray Light: No (USB2E7196)
Number of Pixels in Processed Spectrum: 2048
>>>>>Begin Processed Spectral Data<<<<<
339.09	0.00
339.48	201.94
339.86	203.66
340.24	205.23
340.63	206.84
341.01	210.70
341.39	209.39
341.78	211.12
342.16	212.62
342.54	212.55
342.93	201.52
343.31	211.69
343.69	212.25
344.07	212.73
344.46	213.17
344.84	213.55
345.22	213.74
345.60	214.02
345.99	214.19
346.37	214.28
346.75	214.38
347.13	214.45
347.52	214.50
347.90	214.63
348.28	214.68
348.66	214.74
349.05	214.71
349.43	214.78
349.81	214.83
350.19	214.89
350.57	214.93
350.96	214.98
351.34	215.07
351.72	215.16
352.10	215.27
352.48	215.32
352.87	215.37
353.25	215.43
353.63	215.46
354.01	215.51
354.39	215.58
354.77	215.63
355.15	215.76
355.54	215.83
355.92	215.77
356.30	215.84
356.68	216.02
357.06	216.08
357.44	216.08
357.82	216.15
358.20	216.24
358.58	216.31
358.97	216.38
359.35	216.49
359.73	216.62
360.11	216.67
360.49	216.73
360.87	216.77
361.25	216.82
361.63	216.95
362.01	216.99
362.39	217.03
362.77	217.10
363.15	217.14
363.53	217.18
363.91	217.24
364.29	217.26
364.67	217.10
365.05	217.13
365.43	217.21
365.81	217.27
366.19	217.39
366.57	217.50
366.95	217.55
367.33	217.52
367.71	217.50
368.09	217.53
368.47	217.51
368.85	217.52
369.23	217.56
369.61	217.46
369.99	217.52
370.37	217.56
370.75	217.63
371.13	217.57
371.51	217.50
371.89	217.48
372.27	217.46
372.65	217.50
373.03	217.48
373.41	217.43
373.78	217.37
374.16	217.24
374.54	217.17
374.92	217.07
375.30	217.02
375.68	216.94
376.06	216.93
376.44	216.92
376.82	216.87
377.19	216.81
377.57	216.77
377.95	216.65
378.33	216.60
378.71	216.46
379.09	216.43
379.47	216.41
379.84	216.36
380.22	216.32
380.60	216.20
380.98	216.14
381.36	216.10
381.73	216.02
382.11	216.01
382.49	215.95
382.87	215.90
383.25	215.87
383.62	216.07
384.00	215.96
384.38	215.93
384.76	215.94
385.13	216.00
385.51	215.99
385.89	215.95
386.27	215.94
386.64	215.96
387.02	215.91
387.40	215.87
387.78	215.87
388.15	215.86
388.53	215.86
388.91	215.87
389.29	215.86
389.66	215.86
390.04	215.79
390.42	215.79
390.79	215.82
391.17	215.79
391.55	215.54
391.92	215.53
392.30	215.52
392.68	215.48
393.05	215.46
393.43	215.45
393.81	215.46
394.18	215.38
394.56	215.37
394.94	215.43
395.31	215.42
395.69	215.47
396.06	215.53
396.44	215.57
396.82	215.55
397.19	215.65
397.57	215.67
397.95	215.77
398.32	215.75
398.70	215.78
399.07	215.88
399.45	215.93
399.82	216.00
400.20	216.03
400.58	216.11
400.95	216.09
401.33	216.23
401.70	216.44
402.08	216.56
402.45	216.62
402.83	216.76
403.20	216.91
403.58	216.99
403.95	217.12
404.33	217.32
404.71	217.47
405.08	217.69
405.46	217.87
405.83	218.04
406.21	218.26
406.58	218.46
406.96	218.68
407.33	218.96
407.70	219.24
408.08	219.72
408.45	220.08
408.83	220.49
409.20	220.77
409.58	221.04
409.95	221.49
410.33	221.98
410.70	222.38
411.08	222.90
411.45	223.51
411.82	224.08
412.20	224.74
412.57	225.55
412.95	226.12
413.32	226.92
413.69	227.74
414.07	228.64
414.44	229.67
414.82	230.70
415.19	231.85
415.56	233.08
415.94	234.21
416.31	235.59
416.68	236.94
417.06	238.59
417.43	240.16
417.81	241.87
418.18	243.61
418.55	245.53
418.93	247.53
419.30	249.58
419.67	251.81
420.04	254.03
420.42	256.41
420.79	259.24
421.16	262.06
421.54	264.95
421.91	267.90
422.28	270.96
422.66	274.22
423.03	277.47
423.40	280.75
423.77	284.29
424.15	287.94
424.52	291.80
424.89	295.90
425.26	299.95
425.64	303.82
426.01	308.09
426.38	312.51
426.75	317.04
427.13	321.73
427.50	326.61
427.87	331.78
428.24	336.92
428.61	341.84
428.99	347.23
429.36	353.21
429.73	359.05
430.10	364.88
430.47	370.88
430.85	377.12
431.22	383.74
431.59	390.81
431.96	397.56
432.33	404.91
432.70	412.08
433.08	420.49
433.45	428.45
433.82	436.42
434.19	445.20
434.56	453.81
434.93	462.06
435.30	470.33
435.68	479.34
436.05	488.25
436.42	497.12
436.79	505.22
437.16	513.91
437.53	523.14
437.90	532.19
438.27	541.06
438.64	550.14
439.01	558.69
439.38	566.24
439.75	573.48
440.13	581.86
440.50	589.79
440.87	596.13
441.24	602.77
441.61	610.06
441.98	615.50
442.35	621.76
442.72	628.04
443.09	634.01
443.46	637.65
443.83	640.14
444.20	642.34
444.57	645.48
444.94	646.90
445.31	648.23
445.68	649.57
446.05	650.19
446.42	649.48
446.79	648.44
447.16	647.36
447.53	646.63
447.90	643.30
448.27	639.99
448.64	635.43
449.01	632.06
449.37	626.16
449.74	620.46
450.11	613.62
450.48	606.26
450.85	598.87
451.22	592.49
451.59	586.40
451.96	580.51
452.33	572.72
452.70	565.66
453.07	557.32
453.43	548.78
453.80	540.58
454.17	532.65
454.54	525.12
454.91	517.03
455.28	509.06
455.65	501.75
456.02	494.34
456.38	488.04
456.75	480.29
457.12	473.77
457.49	467.30
457.86	461.16
458.23	455.87
458.59	450.00
458.96	444.14
459.33	438.89
459.70	433.63
460.07	429.40
460.43	424.55
460.80	419.99
461.17	416.07
461.54	411.90
461.91	407.87
462.27	403.88
462.64	400.44
463.01	396.72
463.38	393.05
463.74	389.36
464.11	386.19
464.48	383.37
464.85	380.37
465.21	378.01
465.58	375.42
465.95	372.31
466.32	369.68
466.68	367.05
467.05	364.52
467.42	361.99
467.78	359.33
468.15	356.81
468.52	354.97
468.88	352.52
469.25	350.33
469.62	348.56
469.98	346.63
470.35	344.78
470.72	343.11
471.08	341.33
471.45	339.91
471.82	338.39
472.18	336.79
472.55	335.51
472.92	334.12
473.28	332.93
473.65	331.83
474.02	330.72
474.38	329.86
474.75	329.06
475.11	328.25
475.48	327.70
475.85	327.21
476.21	326.70
476.58	326.37
476.94	326.10
477.31	325.83
477.67	325.59
478.04	325.51
478.41	325.48
478.77	325.67
479.14	325.59
479.50	325.72
479.87	325.95
480.23	326.30
480.60	326.57
480.96	326.88
481.33	327.43
481.69	328.00
482.06	328.52
482.42	329.06
482.79	329.69
483.15	330.48
483.52	331.44
483.88	332.36
484.25	333.28
484.61	334.28
484.98	335.30
485.34	336.61
485.71	337.97
486.07	339.40
486.44	340.69
486.80	342.28
487.17	343.97
487.53	345.82
487.90	347.67
488.26	349.69
488.62	351.79
488.99	353.86
489.35	356.07
489.72	358.48
490.08	360.98
490.44	363.52
490.81	366.28
491.17	369.02
491.54	372.00
491.90	375.06
492.26	378.36
492.63	381.83
492.99	385.33
493.36	389.04
493.72	392.98
494.08	397.03
494.45	401.28
494.81	405.62
495.17	410.10
495.54	414.85
495.90	419.67
496.26	424.68
496.63	429.96
496.99	435.37
497.35	440.98
497.72	446.79
498.08	452.80
498.44	458.89
498.80	465.36
499.17	471.85
499.53	478.59
499.89	485.47
500.26	492.50
500.62	499.66
500.98	507.06
501.34	514.54
501.71	522.33
502.07	530.20
502.43	538.26
502.79	546.50
503.16	554.93
503.52	563.58
503.88	572.30
504.24	581.31
504.60	590.44
504.97	599.68
505.33	609.02
505.69	618.95
506.05	628.93
506.41	638.83
506.78	649.02
507.14	659.30
507.50	669.87
507.86	680.58
508.22	691.43
508.59	702.22
508.95	713.34
509.31	724.69
509.67	736.23
510.03	747.72
510.39	759.55
510.75	771.53
511.12	783.53
511.48	795.74
511.84	808.06
512.20	820.41
512.56	833.20
512.92	846.15
513.28	858.87
513.64	871.70
514.00	884.59
514.37	897.71
514.73	910.93
515.09	923.98
515.45	937.02
515.81	950.11
516.17	963.62
516.53	976.98
516.89	990.12
517.25	1003.37
517.61	1017.05
517.97	1030.47
518.33	1043.69
518.69	1057.33
519.05	1071.11
519.41	1084.87
519.77	1098.99
520.13	1112.33
520.49	1125.57
520.85	1139.03
521.21	1152.43
521.57	1166.23
521.93	1179.37
522.29	1193.22
522.65	1207.00
523.01	1220.65
523.37	1233.92
523.73	1247.28
524.09	1260.52
524.45	1274.10
524.81	1287.63
525.17	1301.03
525.53	1314.35
525.89	1327.60
526.25	1340.85
526.61	1353.89
526.97	1367.07
527.33	1380.11
527.68	1393.63
528.04	1407.33
528.40	1420.53
528.76	1434.02
529.12	1446.97
529.48	1460.40
529.84	1472.69
530.20	1485.54
530.56	1498.23
530.91	1511.59
531.27	1524.56
531.63	1537.44
531.99	1550.28
532.35	1562.81
532.71	1575.25
533.07	1588.25
533.42	1600.65
533.78	1612.74
534.14	1624.78
534.50	1636.05
534.86	1647.52
535.21	1658.38
535.57	1669.79
535.93	1681.16
536.29	1692.30
536.65	1703.82
537.00	1714.77
537.36	1726.15
537.72	1737.12
538.08	1748.51
538.44	1759.55
538.79	1770.53
539.15	1781.41
539.51	1792.14
539.87	1803.39
540.22	1814.29
540.58	1825.11
540.94	1836.09
541.29	1846.42
541.65	1856.26
542.01	1866.76
542.37	1876.96
542.72	1887.28
543.08	1897.03
543.44	1907.55
543.79	1916.78
544.15	1926.33
544.51	1936.50
544.87	1946.55
545.22	1955.77
545.58	1964.74
545.94	1973.67
546.29	1982.35
546.65	1990.80
547.01	1999.17
547.36	2006.77
547.72	2014.57
548.07	2022.31
548.43	2030.01
548.79	2037.90
549.14	2046.00
549.50	2054.57
549.86	2062.53
550.21	2070.02
550.57	2077.82
550.92	2084.65
551.28	2092.24
551.64	2099.55
551.99	2106.92
552.35	2114.00
552.70	2120.96
553.06	2127.56
553.41	2133.71
553.77	2140.33
554.13	2146.68
554.48	2153.73
554.84	2160.94
555.19	2167.51
555.55	2174.02
555.90	2180.37
556.26	2187.32
556.61	2193.46
556.97	2198.36
557.32	2204.06
557.68	2210.56
558.03	2216.38
558.39	2221.79
558.74	2227.80
559.10	2233.35
559.45	2238.96
559.81	2244.60
560.16	2250.19
560.52	2256.39
560.87	2262.93
561.23	2268.89
561.58	2275.60
561.94	2280.74
562.29	2285.55
562.64	2291.83
563.00	2297.46
563.35	2303.07
563.71	2308.96
564.06	2314.64
564.42	2320.58
564.77	2325.77
565.12	2331.07
565.48	2336.25
565.83	2341.85
566.19	2347.31
566.54	2352.81
566.89	2357.56
567.25	2362.27
567.60	2368.10
567.96	2373.06
568.31	2377.63
568.66	2382.00
569.02	2386.01
569.37	2389.98
569.72	2394.35
570.08	2397.92
570.43	2401.20
570.78	2404.44
571.14	2406.93
571.49	2410.16
571.84	2413.89
572.20	2416.96
572.55	2419.95
572.90	2422.30
573.26	2425.13
573.61	2427.78
573.96	2430.02
574.31	2432.11
574.67	2434.10
575.02	2434.98
575.37	2436.64
575.72	2437.44
576.08	2438.90
576.43	2439.25
576.78	2439.79
577.13	2441.49
577.49	2442.59
577.84	2443.63
578.19	2444.88
578.54	2445.62
578.90	2446.62
579.25	2446.52
579.60	2446.58
579.95	2445.90
580.30	2446.13
580.66	2445.49
581.01	2443.91
581.36	2441.58
581.71	2440.07
582.06	2439.05
582.42	2438.25
582.77	2436.08
583.12	2434.59
583.47	2433.33
583.82	2432.72
584.17	2431.58
584.53	2429.59
584.88	2427.56
585.23	2425.70
585.58	2423.71
585.93	2421.63
586.28	2419.38
586.63	2416.92
586.98	2414.66
587.34	2412.83
587.69	2410.49
588.04	2408.44
588.39	2407.02
588.74	2404.58
589.09	2402.10
589.44	2398.97
589.79	2396.47
590.14	2394.56
590.49	2391.84
590.84	2387.91
591.19	2384.88
591.54	2381.52
591.89	2377.48
592.25	2374.32
592.60	2370.28
592.95	2366.13
593.30	2361.98
593.65	2357.43
594.00	2353.15
594.35	2350.11
594.70	2345.35
595.05	2340.72
595.40	2335.36
595.75	2329.61
596.10	2326.08
596.45	2321.18
596.80	2316.63
597.15	2311.39
597.50	2305.46
597.85	2300.46
598.19	2295.35
598.54	2289.52
598.89	2284.42
599.24	2279.99
599.59	2273.76
599.94	2267.94
600.29	2262.01
600.64	2256.14
600.99	2249.49
601.34	2243.89
601.69	2237.04
602.04	2230.84
602.39	2224.18
602.74	2218.00
603.08	2212.37
603.43	2205.80
603.78	2198.94
604.13	2191.73
604.48	2184.44
604.83	2178.27
605.18	2172.00
605.53	2165.03
605.87	2157.94
606.22	2151.11
606.57	2143.07
606.92	2135.18
607.27	2128.12
607.62	2121.44
607.96	2114.47
608.31	2108.01
608.66	2100.32
609.01	2092.61
609.36	2085.40
609.70	2077.69
610.05	2069.96
610.40	2061.77
610.75	2053.35
611.10	2045.58
611.44	2036.71
611.79	2028.07
612.14	2018.12
612.49	2007.42
612.83	1998.02
613.18	1988.70
613.53	1979.28
613.88	1969.68
614.22	1961.00
614.57	1951.06
614.92	1940.32
615.27	1930.01
615.61	1919.84
615.96	1910.12
616.31	1900.37
616.65	1890.81
617.00	1880.94
617.35	1871.24
617.70	1861.34
618.04	1851.23
618.39	1840.95
618.74	1831.16
619.08	1821.49
619.43	1812.65
619.78	1804.39
620.12	1795.62
620.47	1785.88
620.82	1775.36
621.16	1765.47
621.51	1755.42
621.85	1745.54
622.20	1735.15
622.55	1724.52
622.89	1714.54
623.24	1704.66
623.59	1694.70
623.93	1684.54
624.28	1674.77
624.62	1664.47
624.97	1654.08
625.32	1644.24
625.66	1635.42
626.01	1626.57
626.35	1616.98
626.70	1606.77
627.04	1596.63
627.39	1586.46
627.73	1577.17
628.08	1568.13
628.43	1558.33
628.77	1549.01
629.12	1540.00
629.46	1532.02
629.81	1523.47
630.15	1513.68
630.50	1503.76
630.84	1493.30
631.19	1483.21
631.53	1473.65
631.88	1463.36
632.22	1453.20
632.57	1443.67
632.91	1433.37
633.26	1423.40
633.60	1413.75
633.95	1404.35
634.29	1394.64
634.64	1385.20
634.98	1375.15
635.32	1365.90
635.67	1357.34
636.01	1347.90
636.36	1338.05
636.70	1328.37
637.05	1318.91
637.39	1309.93
637.73	1301.15
638.08	1293.40
638.42	1285.14
638.77	1276.33
639.11	1267.92
639.45	1260.07
639.80	1251.32
640.14	1242.46
640.49	1233.45
640.83	1224.44
641.17	1216.19
641.52	1207.97
641.86	1199.28
642.20	1191.24
642.55	1182.39
642.89	1173.52
643.23	1164.78
643.58	1156.52
643.92	1147.35
644.26	1138.49
644.61	1129.98
644.95	1121.13
645.29	1111.77
645.64	1102.46
645.98	1093.88
646.32	1086.02
646.66	1077.43
647.01	1069.09
647.35	1060.75
647.69	1052.39
648.04	1044.08
648.38	1035.07
648.72	1026.11
649.06	1017.53
649.41	1009.23
649.75	1001.17
650.09	993.06
650.43	984.96
650.78	976.52
651.12	968.79
651.46	961.35
651.80	953.96
652.14	946.48
652.49	938.97
652.83	931.58
653.17	923.76
653.51	915.95
653.85	908.59
654.20	901.18
654.54	893.65
654.88	886.32
655.22	879.00
655.56	871.91
655.90	865.06
656.25	858.29
656.59	851.26
656.93	844.15
657.27	836.91
657.61	829.80
657.95	823.67
658.29	817.70
658.64	811.42
658.98	804.89
659.32	798.26
659.66	791.88
660.00	785.39
660.34	779.27
660.68	773.05
661.02	766.59
661.36	760.57
661.70	754.66
662.05	748.84
662.39	743.20
662.73	737.82
663.07	732.40
663.41	726.73
663.75	720.96
664.09	715.23
664.43	709.75
664.77	704.34
665.11	698.39
665.45	692.37
665.79	686.52
666.13	680.76
666.47	675.27
666.81	669.82
667.15	664.38
667.49	659.09
667.83	653.78
668.17	648.47
668.51	643.30
668.85	638.36
669.19	633.42
669.53	628.37
669.87	623.10
670.21	618.29
670.55	613.57
670.89	609.08
671.23	604.77
671.57	600.41
671.91	596.08
672.25	591.94
672.58	587.71
672.92	583.60
673.26	579.59
673.60	575.61
673.94	571.77
674.28	568.13
674.62	564.31
674.96	560.55
675.30	557.04
675.64	553.38
675.97	549.68
676.31	546.09
676.65	542.45
676.99	538.98
677.33	535.02
677.67	531.32
678.01	527.47
678.34	523.78
678.68	520.17
679.02	516.57
679.36	512.78
679.70	509.19
680.04	505.64
680.37	502.16
680.71	498.83
681.05	495.60
681.39	492.28
681.73	489.03
682.06	485.95
682.40	482.80
682.74	479.52
683.08	476.31
683.42	473.05
683.75	470.07
684.09	467.04
684.43	464.25
684.77	461.25
685.10	458.36
685.44	455.43
685.78	452.53
686.12	449.75
686.45	447.03
686.79	444.26
687.13	441.65
687.46	439.05
687.80	436.30
688.14	433.34
688.48	430.68
688.81	428.07
689.15	425.44
689.49	422.82
689.82	420.29
690.16	417.66
690.50	415.17
690.83	412.58
691.17	410.03
691.51	407.55
691.84	405.26
692.18	403.01
692.52	400.73
692.85	398.56
693.19	396.35
693.52	394.16
693.86	391.93
694.20	389.73
694.53	387.53
694.87	385.35
695.21	383.27
695.54	381.08
695.88	378.87
696.21	376.61
696.55	374.43
696.88	372.32
697.22	370.36
697.56	368.47
697.89	366.61
698.23	364.85
698.56	363.03
698.90	361.26
699.23	359.28
699.57	357.38
699.90	355.44
700.24	353.65
700.58	351.87
700.91	350.17
701.25	348.59
701.58	346.97
701.92	345.37
702.25	343.76
702.59	342.15
702.92	340.61
703.26	339.08
703.59	337.61
703.93	336.30
704.26	334.86
704.60	333.35
704.93	331.83
705.26	330.27
705.60	328.80
705.93	327.25
706.27	325.91
706.60	324.64
706.94	323.44
707.27	322.01
707.61	320.65
707.94	319.34
708.27	317.82
708.61	316.33
708.94	314.96
709.28	313.63
709.61	312.37
709.94	311.15
710.28	309.94
710.61	308.76
710.95	307.31
711.28	306.22
711.61	304.98
711.95	303.85
712.28	302.63
712.61	301.39
712.95	300.37
713.28	299.35
713.61	298.25
713.95	297.09
714.28	296.07
714.61	295.02
714.95	293.93
715.28	292.92
715.61	291.91
715.95	290.90
716.28	289.88
716.61	288.94
716.95	287.90
717.28	286.93
717.61	285.90
717.94	285.04
718.28	283.99
718.61	283.11
718.94	282.21
719.27	281.40
719.61	280.57
719.94	279.67
720.27	278.68
720.60	277.77
720.94	276.95
721.27	276.16
721.60	275.47
721.93	274.78
722.27	274.13
722.60	273.49
722.93	272.81
723.26	272.18
723.59	271.46
723.93	270.84
724.26	270.20
724.59	269.56
724.92	268.96
725.25	268.44
725.59	267.87
725.92	267.32
726.25	266.70
726.58	266.15
726.91	265.54
727.24	265.04
727.57	264.48
727.91	263.85
728.24	263.31
728.57	262.67
728.90	262.12
729.23	261.49
729.56	261.06
729.89	260.50
730.22	259.92
730.55	259.38
730.89	258.81
731.22	258.30
731.55	257.79
731.88	257.25
732.21	256.68
732.54	256.15
732.87	255.65
733.20	255.17
733.53	254.68
733.86	254.24
734.19	253.75
734.52	253.37
734.85	253.12
735.18	252.64
735.51	252.28
735.84	251.86
736.17	251.47
736.50	250.89
736.83	250.71
737.16	250.33
737.49	249.94
737.82	249.54
738.15	249.14
738.48	248.81
738.81	248.46
739.14	248.04
739.47	247.67
739.80	247.27
740.13	246.93
740.46	246.54
740.79	246.14
741.12	245.75
741.45	245.37
741.78	244.88
742.11	244.62
742.44	244.24
742.77	243.92
743.10	243.57
743.43	243.24
743.75	242.68
744.08	242.60
744.41	242.24
744.74	241.90
745.07	241.51
745.40	241.18
745.73	240.87
746.06	240.56
746.39	240.27
746.71	239.97
747.04	239.61
747.37	239.30
747.70	239.02
748.03	238.74
748.36	238.45
748.68	238.13
749.01	237.77
749.34	237.49
749.67	237.20
750.00	236.93
750.33	236.79
750.65	236.56
750.98	236.02
751.31	235.80
751.64	235.58
751.97	235.50
752.29	235.23
752.62	234.91
752.95	234.66
753.28	234.33
753.60	234.08
753.93	233.96
754.26	233.72
754.59	233.43
754.91	233.18
755.24	232.94
755.57	232.76
755.90	232.52
756.22	232.27
756.55	232.02
756.88	231.79
757.20	231.46
757.53	231.18
757.86	230.99
758.19	230.80
758.51	230.58
758.84	230.25
759.17	230.05
759.49	229.85
759.82	229.76
760.15	229.65
760.47	229.43
760.80	229.10
761.13	228.96
761.45	228.77
761.78	228.61
762.11	228.45
762.43	228.22
762.76	228.05
763.08	227.89
763.41	227.76
763.74	227.62
764.06	227.45
764.39	227.31
764.71	227.17
765.04	227.01
765.37	226.85
765.69	226.72
766.02	226.58
766.34	226.47
766.67	226.26
767.00	226.15
767.32	226.16
767.65	226.19
767.97	226.05
768.30	225.95
768.62	225.82
768.95	225.61
769.27	225.52
769.60	225.42
769.92	225.26
770.25	225.10
770.57	224.91
770.90	224.81
771.22	224.68
771.55	224.55
771.87	224.41
772.20	224.30
772.52	224.33
772.85	224.44
773.17	224.33
773.50	224.23
773.82	224.09
774.15	223.90
774.47	223.67
774.80	223.55
775.12	223.43
775.45	223.35
775.77	223.29
776.09	223.18
776.42	223.07
776.74	223.04
777.07	222.96
777.39	222.92
777.72	222.81
778.04	222.73
778.36	222.64
778.69	222.58
779.01	222.48
779.33	222.25
779.66	221.94
779.98	221.83
780.31	221.75
780.63	221.75
780.95	221.69
781.28	221.63
781.60	221.52
781.92	221.47
782.25	221.40
782.57	221.35
782.89	221.26
783.22	221.19
783.54	221.09
783.86	221.02
784.19	220.94
784.51	220.91
784.83	220.83
785.16	220.72
785.48	220.64
785.80	220.61
786.12	220.56
786.45	220.49
786.77	220.46
787.09	220.38
787.42	220.24
787.74	220.20
788.06	220.14
788.38	220.08
788.71	220.01
789.03	219.92
789.35	219.89
789.67	219.82
789.99	219.79
790.32	219.72
790.64	219.68
790.96	219.80
791.28	219.71
791.61	219.66
791.93	219.65
792.25	219.59
792.57	219.67
792.89	219.60
793.21	219.56
793.54	219.45
793.86	219.40
794.18	219.33
794.50	219.23
794.82	219.20
795.14	219.19
795.47	219.15
795.79	219.15
796.11	219.05
796.43	219.00
796.75	218.96
797.07	218.94
797.39	218.87
797.71	218.67
798.04	218.64
798.36	218.63
798.68	218.59
799.00	218.59
799.32	218.45
799.64	218.47
799.96	218.40
800.28	218.43
800.60	218.38
800.92	218.38
801.24	218.34
801.56	218.30
801.89	218.24
802.21	218.25
802.53	218.16
802.85	218.18
803.17	218.26
803.49	218.16
803.81	218.13
804.13	218.12
804.45	218.06
804.77	218.05
805.09	217.97
805.41	217.90
805.73	217.84
806.05	217.74
806.37	217.69
806.69	217.66
807.01	217.61
807.33	217.62
807.65	217.49
807.97	217.56
808.28	217.54
808.60	217.52
808.92	217.44
809.24	217.52
809.56	217.44
809.88	217.35
810.20	217.37
810.52	217.33
810.84	217.27
811.16	217.20
811.48	217.15
811.80	217.23
812.12	217.22
812.43	217.23
812.75	217.23
813.07	217.20
813.39	217.18
813.71	217.14
814.03	217.08
814.35	217.08
814.67	216.95
814.98	216.90
815.30	216.89
815.62	216.86
815.94	216.70
816.26	216.71
816.58	216.65
816.89	216.65
817.21	216.59
817.53	216.59
817.85	216.62
818.17	216.57
818.48	216.48
818.80	216.52
819.12	216.47
819.44	216.43
819.76	216.36
820.07	216.34
820.39	216.35
820.71	216.35
821.03	216.35
821.34	216.31
821.66	216.32
821.98	216.31
822.30	216.25
822.61	216.39
822.93	216.37
823.25	216.33
823.57	216.29
823.88	216.35
824.20	216.32
824.52	216.35
824.83	216.33
825.15	216.29
825.47	216.25
825.79	216.24
826.10	216.22
826.42	216.19
826.74	216.24
827.05	216.18
827.37	216.17
827.69	216.15
828.00	216.16
828.32	216.14
828.64	216.10
828.95	216.23
829.27	216.14
829.58	216.12
829.90	216.17
830.22	216.15
830.53	216.08
830.85	216.05
831.17	216.00
831.48	216.00
831.80	215.98
832.11	215.93
832.43	215.89
832.75	215.89
833.06	216.03
833.38	215.93
833.69	215.90
834.01	215.86
834.32	215.85
834.64	215.82
834.96	215.79
835.27	215.79
835.59	215.71
835.90	215.68
836.22	215.67
836.53	215.58
836.85	215.56
837.16	215.75
837.48	215.76
837.79	215.80
838.11	215.83
838.42	215.84
838.74	215.89
839.05	215.85
839.37	215.83
839.68	215.70
840.00	215.70
840.31	215.74
840.63	215.73
840.94	215.72
841.26	215.70
841.57	215.69
841.88	215.68
842.20	215.63
842.51	215.62
842.83	215.59
843.14	215.78
843.46	215.77
843.77	215.65
844.08	215.59
844.40	215.53
844.71	215.47
845.03	215.44
845.34	215.43
845.65	215.44
845.97	215.43
846.28	215.43
846.60	215.42
846.91	215.39
847.22	215.38
847.54	215.41
847.85	215.44
848.16	215.41
848.48	215.38
848.79	215.43
849.10	215.46
849.42	215.46
849.73	215.28
850.04	215.30
850.36	215.22
850.67	215.29
850.98	215.28
851.30	215.31
851.61	215.29
851.92	215.27
852.23	215.34
852.55	215.34
852.86	215.36
853.17	215.41
853.49	215.42
853.80	215.46
854.11	215.47
854.42	215.48
854.74	215.48
855.05	215.48
855.36	215.40
855.67	215.36
855.99	215.36
856.30	215.60
856.61	215.58
856.92	215.57
857.23	215.57
857.55	215.59
857.86	215.56
858.17	215.62
858.48	215.60
858.79	215.54
859.11	215.58
859.42	215.56
859.73	215.49
860.04	215.50
860.35	215.46
860.66	215.37
860.98	215.37
861.29	215.40
861.60	215.41
861.91	215.46
862.22	215.46
862.53	215.44
862.84	215.22
863.16	215.27
863.47	215.23
863.78	215.22
864.09	215.20
864.40	215.20
864.71	215.18
865.02	215.21
865.33	215.19
865.64	215.14
865.95	215.12
866.27	215.25
866.58	215.20
866.89	215.20
867.20	215.17
867.51	215.16
867.82	215.13
868.13	215.17
868.44	215.14
868.75	215.20
869.06	215.20
869.37	215.22
869.68	215.14
869.99	215.18
870.30	215.18
870.61	215.15
870.92	215.11
871.23	215.08
871.54	215.10
871.85	215.14
872.16	215.14
872.47	215.15
872.78	215.00
873.09	215.07
873.40	215.03
873.71	215.07
874.02	215.05
874.33	215.02
874.64	214.98
874.95	214.98
875.26	214.90
875.56	214.89
875.87	214.87
876.18	214.86
876.49	215.03
876.80	215.00
877.11	215.00
877.42	215.04
877.73	215.06
878.04	215.03
878.35	215.02
878.66	215.01
878.96	215.00
879.27	215.01
879.58	214.95
879.89	214.94
880.20	214.99
880.51	214.99
880.82	215.00
881.12	215.03
881.43	214.98
881.74	214.96
882.05	214.96
882.36	214.96
882.67	215.00
882.97	214.80
883.28	214.77
883.59	214.75
883.90	214.75
884.21	214.75
884.51	214.71
884.82	214.68
885.13	214.67
885.44	214.67
885.74	214.69
886.05	214.73
886.36	214.77
886.67	214.72
886.98	214.83
887.28	214.84
887.59	214.81
887.90	214.85
888.20	214.82
888.51	214.85
888.82	214.83
889.13	214.81
889.43	214.98
889.74	215.00
890.05	214.99
890.35	214.97
890.66	214.94
890.97	214.93
891.28	214.93
891.58	214.96
891.89	214.96
892.20	214.91
892.50	214.86
892.81	214.82
893.12	214.78
893.42	214.68
893.73	214.68
894.04	214.68
894.34	214.66
894.65	214.67
894.95	214.64
895.26	214.64
895.57	214.74
895.87	214.51
896.18	214.52
896.48	214.54
896.79	214.56
897.10	214.58
897.40	214.59
897.71	214.59
898.01	214.56
898.32	214.58
898.63	214.59
898.93	214.62
899.24	214.65
899.54	214.68
899.85	214.66
900.15	214.65
900.46	214.66
900.76	214.67
901.07	214.67
901.38	214.68
901.68	214.75
901.99	214.64
902.29	214.69
902.60	214.69
902.90	214.70
903.21	214.69
903.51	214.68
903.82	214.72
904.12	214.71
904.43	214.70
904.73	214.71
905.03	214.74
905.34	214.93
905.64	214.89
905.95	214.89
906.25	214.90
906.56	214.88
906.86	214.85
907.17	214.83
907.47	214.84
907.77	214.86
908.08	214.80
908.38	214.85
908.69	214.86
908.99	214.87
909.30	214.90
909.60	214.89
909.90	214.93
910.21	214.91
910.51	214.90
910.81	214.93
911.12	214.90
911.42	214.90
911.73	214.70
912.03	214.72
912.33	214.75
912.64	214.76
912.94	214.77
913.24	214.76
913.55	214.73
913.85	214.71
914.15	214.71
914.46	214.70
914.76	214.66
915.06	214.63
915.37	214.60
915.67	214.57
915.97	214.57
916.27	214.49
916.58	214.45
916.88	214.46
917.18	214.42
917.49	214.61
917.79	214.59
918.09	214.60
918.39	214.63
918.70	214.60
919.00	214.60
919.30	214.70
919.60	214.70
919.91	214.71
920.21	214.76
920.51	214.72
920.81	214.71
921.12	214.71
921.42	214.72
921.72	214.73
922.02	214.74
922.32	214.76
922.63	214.81
922.93	214.90
923.23	214.92
923.53	214.91
923.83	214.75
924.13	214.76
924.44	214.78
924.74	214.85
925.04	214.90
925.34	214.89
925.64	214.78
925.94	214.75
926.24	214.87
926.55	214.82
926.85	214.85
927.15	214.83
927.45	214.85
927.75	214.84
928.05	214.84
928.35	214.83
928.65	214.85
928.95	214.84
929.26	214.79
929.56	214.80
929.86	214.81
930.16	214.77
930.46	214.78
930.76	214.74
931.06	214.62
931.36	214.56
931.66	214.60
931.96	214.63
932.26	214.65
932.56	214.57
932.86	214.60
933.16	214.60
933.46	214.61
933.76	214.59
934.06	214.65
934.36	214.71
934.66	214.69
934.96	214.66
935.26	214.68
935.56	214.69
935.86	214.64
936.16	214.65
936.46	214.67
936.76	214.66
937.06	214.64
937.36	214.65
937.66	214.66
937.96	214.64
938.26	214.59
938.56	214.58
938.86	214.59
939.16	214.61
939.46	214.62
939.76	214.65
940.06	214.66
940.35	214.61
940.65	214.53
940.95	214.57
941.25	214.53
941.55	214.50
941.85	214.49
942.15	214.57
942.45	214.61
942.75	214.59
943.04	214.61
943.34	214.68
943.64	214.66
943.94	214.63
944.24	214.64
944.54	214.63
944.84	214.62
945.13	214.59
945.43	214.57
945.73	214.54
946.03	214.52
946.33	214.49
946.62	214.46
946.92	214.43
947.22	214.43
947.52	214.45
947.82	214.50
948.11	214.46
948.41	214.42
948.71	214.35
949.01	214.34
949.31	214.29
949.60	214.24
949.90	214.29
950.20	214.30
950.50	214.31
950.79	214.32
951.09	214.35
951.39	214.38
951.69	214.35
951.98	214.39
952.28	214.40
952.58	214.38
952.87	214.38
953.17	214.41
953.47	214.39
953.76	214.40
954.06	214.36
954.36	214.33
954.66	214.32
954.95	214.38
955.25	214.42
955.55	214.47
955.84	214.44
956.14	214.45
956.44	214.46
956.73	214.43
957.03	214.45
957.32	214.46
957.62	214.42
957.92	214.48
958.21	214.45
958.51	214.68
958.81	214.73
959.10	214.78
959.40	214.84
959.69	214.83
959.99	214.86
960.29	214.84
960.58	214.84
960.88	214.89
961.17	214.87
961.47	214.86
961.76	214.85
962.06	214.90
962.36	214.86
962.65	214.84
962.95	214.83
963.24	214.81
963.54	214.80
963.83	214.82
964.13	214.80
964.42	214.74
964.72	214.54
965.01	214.55
965.31	214.51
965.60	214.45
965.90	214.63
966.19	214.57
966.49	214.60
966.78	214.62
967.08	214.64
967.37	214.66
967.67	214.64
967.96	214.64
968.26	214.63
968.55	214.63
968.85	214.64
969.14	214.65
969.43	214.66
969.73	214.64
970.02	214.62
970.32	214.58
970.61	214.62
970.91	214.58
971.20	214.53
971.49	214.51
971.79	214.52
972.08	214.33
972.38	214.35
972.67	214.32
972.96	214.34
973.26	214.28
973.55	214.34
973.85	214.32
974.14	214.31
974.43	214.33
974.73	214.33
975.02	214.30
975.31	214.33
975.61	214.29
975.90	214.27
976.19	214.28
976.49	214.35
976.78	214.34
977.07	214.32
977.37	214.34
977.66	214.37
977.95	214.36
978.24	214.39
978.54	214.44
978.83	214.43
979.12	214.42
979.42	214.43
979.71	214.37
980.00	214.35
980.29	214.39
980.59	214.34
980.88	214.37
981.17	214.38
981.46	214.38
981.76	214.39
982.05	214.47
982.34	214.47
982.63	214.43
982.93	214.45
983.22	214.52
983.51	214.54
983.80	214.55
984.09	214.60
984.39	214.58
984.68	214.58
984.97	214.59
985.26	214.57
985.55	214.61
985.85	214.58
986.14	214.63
986.43	214.61
986.72	214.62
987.01	214.59
987.30	214.59
987.59	214.55
987.89	214.55
988.18	214.48
988.47	214.45
988.76	214.44
989.05	214.42
989.34	214.39
989.63	214.42
989.92	214.35
990.22	214.28
990.51	214.29
990.80	214.25
991.09	214.25
991.38	214.26
991.67	214.23
991.96	214.21
992.25	214.21
992.54	214.18
992.83	214.19
993.12	214.19
993.41	214.22
993.70	214.32
993.99	214.39
994.28	214.44
994.58	214.48
994.87	214.48
995.16	214.47
995.45	214.45
995.74	214.39
996.03	214.44
996.32	214.51
996.61	214.52
996.90	214.52
997.19	214.52
997.48	214.50
997.77	214.47
998.06	214.49
998.34	214.48
998.63	214.46
998.92	214.44
999.21	214.48
999.50	214.48
999.79	214.40
1000.08	214.37
1000.37	214.36
1000.66	214.35
1000.95	214.40
1001.24	214.44
1001.53	214.48
1001.82	214.47
1002.11	214.44
1002.40	214.45
1002.68	214.54
1002.97	214.68
1003.26	214.68
1003.55	214.65
1003.84	214.68
1004.13	214.76
1004.42	214.74
1004.71	214.77
1004.99	214.75
1005.28	214.79
1005.57	214.77
1005.86	214.75
1006.15	214.72
1006.44	214.71
1006.72	214.72
1007.01	214.67
1007.30	214.65
1007.59	214.66
1007.88	214.66
1008.17	214.70
1008.45	214.64
1008.74	214.54
1009.03	214.46
1009.32	214.44
1009.60	214.46
1009.89	214.44
1010.18	214.35
1010.47	214.36
1010.76	214.33
1011.04	214.36
1011.33	214.34
1011.62	214.34
1011.91	214.40
1012.19	214.41
1012.48	214.40
1012.77	214.43
1013.05	214.52
1013.34	214.51
1013.63	214.46
1013.92	214.46
1014.20	214.41
1014.49	214.43
1014.78	214.47
1015.06	214.37
1015.35	214.40
1015.64	214.39
1015.92	214.45
1016.21	214.46
1016.50	214.45
1016.78	214.51
1017.07	214.49
1017.36	214.47
1017.64	214.43
1017.93	214.41
1018.22	214.39
1018.50	214.41
1018.79	214.37
1019.08	214.25
1019.36	214.29
1019.65	214.29
1019.93	214.35
1020.22	214.42
1020.51	214.50
1020.79	214.45
1021.08	214.17
1021.36	214.49
1021.65	213.96
1021.94	214.09
1022.22	214.82
1022.51	213.82
1022.79	215.46
1023.08	214.97
1023.36	216.67
1023.65	213.77
>>>>>End Processed Spectral Data<<<<<
