SpectraSuite Data File
++++++++++++++++++++++++++++++++++++
Date: Tue Jan 29 15:56:57 EST 2013
User: group
Dark Spectrum Present: No
Reference Spectrum Present: No
Number of Sampled Component Spectra: 1
Spectrometers: USB2E7196
Integration Time (usec): 65000 (USB2E7196)
Spectra Averaged: 100 (USB2E7196)
Boxcar Smoothing: 10 (USB2E7196)
Correct for Electrical Dark: No (USB2E7196)
Strobe/Lamp Enabled: No (USB2E7196)
Correct for Detector Non-linearity: No (USB2E7196)
Correct for Stray Light: No (USB2E7196)
Number of Pixels in Processed Spectrum: 2048
>>>>>Begin Processed Spectral Data<<<<<
339.09	0.00
339.48	203.04
339.86	204.68
340.24	205.84
340.63	207.16
341.01	211.62
341.39	209.71
341.78	211.29
342.16	213.20
342.54	212.36
342.93	202.17
343.31	212.36
343.69	212.90
344.07	213.36
344.46	213.79
344.84	214.21
345.22	214.38
345.60	214.65
345.99	214.86
346.37	214.98
346.75	215.11
347.13	215.14
347.52	215.22
347.90	215.32
348.28	215.34
348.66	215.43
349.05	215.40
349.43	215.47
349.81	215.48
350.19	215.53
350.57	215.60
350.96	215.67
351.34	215.80
351.72	215.92
352.10	216.03
352.48	216.11
352.87	216.15
353.25	216.24
353.63	216.31
354.01	216.36
354.39	216.44
354.77	216.53
355.15	216.71
355.54	216.74
355.92	216.73
356.30	216.79
356.68	216.98
357.06	217.05
357.44	217.06
357.82	217.12
358.20	217.19
358.58	217.24
358.97	217.28
359.35	217.38
359.73	217.44
360.11	217.49
360.49	217.55
360.87	217.60
361.25	217.66
361.63	217.76
362.01	217.80
362.39	217.81
362.77	217.85
363.15	217.86
363.53	217.90
363.91	217.98
364.29	218.03
364.67	217.86
365.05	217.91
365.43	217.96
365.81	218.00
366.19	218.10
366.57	218.20
366.95	218.25
367.33	218.18
367.71	218.18
368.09	218.23
368.47	218.21
368.85	218.17
369.23	218.17
369.61	218.10
369.99	218.14
370.37	218.15
370.75	218.24
371.13	218.14
371.51	218.09
371.89	218.09
372.27	218.06
372.65	218.03
373.03	218.00
373.41	217.98
373.78	217.94
374.16	217.82
374.54	217.69
374.92	217.64
375.30	217.60
375.68	217.52
376.06	217.46
376.44	217.45
376.82	217.44
377.19	217.42
377.57	217.36
377.95	217.28
378.33	217.25
378.71	217.09
379.09	217.10
379.47	217.12
379.84	217.03
380.22	216.97
380.60	216.94
380.98	216.89
381.36	216.82
381.73	216.77
382.11	216.75
382.49	216.75
382.87	216.69
383.25	216.66
383.62	216.85
384.00	216.77
384.38	216.69
384.76	216.70
385.13	216.71
385.51	216.68
385.89	216.61
386.27	216.53
386.64	216.52
387.02	216.47
387.40	216.41
387.78	216.43
388.15	216.44
388.53	216.40
388.91	216.37
389.29	216.31
389.66	216.32
390.04	216.28
390.42	216.25
390.79	216.25
391.17	216.28
391.55	216.06
391.92	216.08
392.30	216.14
392.68	216.09
393.05	216.09
393.43	216.10
393.81	216.11
394.18	216.15
394.56	216.19
394.94	216.23
395.31	216.24
395.69	216.26
396.06	216.29
396.44	216.32
396.82	216.32
397.19	216.50
397.57	216.48
397.95	216.56
398.32	216.56
398.70	216.60
399.07	216.65
399.45	216.68
399.82	216.74
400.20	216.74
400.58	216.81
400.95	216.81
401.33	216.91
401.70	217.13
402.08	217.20
402.45	217.24
402.83	217.39
403.20	217.52
403.58	217.59
403.95	217.74
404.33	217.89
404.71	218.03
405.08	218.27
405.46	218.44
405.83	218.59
406.21	218.76
406.58	219.00
406.96	219.23
407.33	219.49
407.70	219.73
408.08	220.18
408.45	220.50
408.83	220.87
409.20	221.20
409.58	221.46
409.95	221.94
410.33	222.44
410.70	222.84
411.08	223.37
411.45	223.91
411.82	224.44
412.20	225.12
412.57	225.97
412.95	226.49
413.32	227.29
413.69	228.08
414.07	228.99
414.44	229.87
414.82	230.84
415.19	231.97
415.56	233.14
415.94	234.24
416.31	235.59
416.68	236.95
417.06	238.51
417.43	240.01
417.81	241.62
418.18	243.30
418.55	245.15
418.93	247.06
419.30	249.12
419.67	251.27
420.04	253.45
420.42	255.69
420.79	258.42
421.16	261.07
421.54	263.88
421.91	266.74
422.28	269.76
422.66	272.89
423.03	276.02
423.40	279.25
423.77	282.69
424.15	286.18
424.52	289.85
424.89	293.83
425.26	297.67
425.64	301.46
426.01	305.61
426.38	309.87
426.75	314.27
427.13	318.80
427.50	323.56
427.87	328.55
428.24	333.55
428.61	338.36
428.99	343.72
429.36	349.48
429.73	355.09
430.10	360.71
430.47	366.59
430.85	372.64
431.22	379.06
431.59	386.00
431.96	392.56
432.33	399.78
432.70	406.77
433.08	415.00
433.45	422.67
433.82	430.32
434.19	438.92
434.56	447.29
434.93	455.28
435.30	463.26
435.68	471.95
436.05	480.60
436.42	489.17
436.79	497.00
437.16	505.46
437.53	514.42
437.90	523.26
438.27	531.83
438.64	540.72
439.01	548.90
439.38	556.12
439.75	563.13
440.13	571.25
440.50	578.87
440.87	585.04
441.24	591.46
441.61	598.51
441.98	603.63
442.35	609.66
442.72	615.71
443.09	621.52
443.46	625.11
443.83	627.51
444.20	629.59
444.57	632.57
444.94	633.96
445.31	635.37
445.68	636.68
446.05	637.26
446.42	636.42
446.79	635.52
447.16	634.45
447.53	633.70
447.90	630.44
448.27	627.21
448.64	622.75
449.01	619.54
449.37	613.86
449.74	608.41
450.11	601.79
450.48	594.70
450.85	587.49
451.22	581.25
451.59	575.33
451.96	569.69
452.33	562.08
452.70	555.22
453.07	547.03
453.43	538.76
453.80	530.82
454.17	523.23
454.54	515.99
454.91	508.15
455.28	500.56
455.65	493.50
456.02	486.40
456.38	480.36
456.75	472.87
457.12	466.64
457.49	460.40
457.86	454.52
458.23	449.44
458.59	443.83
458.96	438.19
459.33	433.16
459.70	428.05
460.07	424.08
460.43	419.43
460.80	415.04
461.17	411.17
461.54	407.16
461.91	403.28
462.27	399.36
462.64	396.11
463.01	392.49
463.38	388.88
463.74	385.31
464.11	382.14
464.48	379.38
464.85	376.42
465.21	374.12
465.58	371.54
465.95	368.48
466.32	365.93
466.68	363.44
467.05	360.97
467.42	358.51
467.78	355.90
468.15	353.47
468.52	351.67
468.88	349.34
469.25	347.21
469.62	345.51
469.98	343.67
470.35	341.94
470.72	340.36
471.08	338.71
471.45	337.29
471.82	335.89
472.18	334.34
472.55	333.16
472.92	331.85
473.28	330.79
473.65	329.73
474.02	328.71
474.38	327.84
474.75	327.15
475.11	326.39
475.48	325.86
475.85	325.42
476.21	324.97
476.58	324.63
476.94	324.42
477.31	324.15
477.67	323.94
478.04	323.83
478.41	323.80
478.77	323.98
479.14	323.95
479.50	324.14
479.87	324.48
480.23	324.82
480.60	325.04
480.96	325.31
481.33	325.90
481.69	326.50
482.06	327.08
482.42	327.54
482.79	328.17
483.15	328.96
483.52	329.92
483.88	330.83
484.25	331.83
484.61	332.84
484.98	333.92
485.34	335.24
485.71	336.59
486.07	337.99
486.44	339.31
486.80	340.96
487.17	342.61
487.53	344.37
487.90	346.29
488.26	348.31
488.62	350.43
488.99	352.49
489.35	354.68
489.72	357.04
490.08	359.57
490.44	362.12
490.81	364.83
491.17	367.47
491.54	370.45
491.90	373.45
492.26	376.72
492.63	380.08
492.99	383.48
493.36	387.13
493.72	391.00
494.08	394.98
494.45	399.18
494.81	403.51
495.17	407.99
495.54	412.67
495.90	417.54
496.26	422.52
496.63	427.69
496.99	433.05
497.35	438.61
497.72	444.39
498.08	450.26
498.44	456.34
498.80	462.78
499.17	469.22
499.53	475.92
499.89	482.85
500.26	489.83
500.62	496.91
500.98	504.29
501.34	511.76
501.71	519.47
502.07	527.22
502.43	535.23
502.79	543.31
503.16	551.61
503.52	560.06
503.88	568.70
504.24	577.64
504.60	586.64
504.97	595.83
505.33	605.10
505.69	614.91
506.05	624.79
506.41	634.55
506.78	644.53
507.14	654.70
507.50	664.99
507.86	675.62
508.22	686.45
508.59	697.08
508.95	708.12
509.31	719.37
509.67	730.75
510.03	742.02
510.39	753.79
510.75	765.60
511.12	777.48
511.48	789.53
511.84	801.67
512.20	813.90
512.56	826.48
512.92	839.22
513.28	851.82
513.64	864.49
514.00	877.24
514.37	890.19
514.73	903.14
515.09	916.11
515.45	928.75
515.81	941.49
516.17	954.75
516.53	967.79
516.89	980.70
517.25	993.76
517.61	1007.18
517.97	1020.34
518.33	1033.38
518.69	1046.80
519.05	1060.38
519.41	1073.83
519.77	1087.61
520.13	1100.70
520.49	1113.59
520.85	1126.79
521.21	1139.81
521.57	1153.41
521.93	1166.38
522.29	1179.88
522.65	1193.27
523.01	1206.85
523.37	1219.89
523.73	1232.93
524.09	1245.90
524.45	1259.10
524.81	1272.28
525.17	1285.33
525.53	1298.20
525.89	1311.18
526.25	1324.03
526.61	1336.53
526.97	1349.32
527.33	1361.76
527.68	1374.90
528.04	1388.10
528.40	1400.88
528.76	1413.88
529.12	1426.33
529.48	1439.22
529.84	1451.27
530.20	1463.65
530.56	1475.95
530.91	1488.99
531.27	1501.49
531.63	1513.94
531.99	1526.35
532.35	1538.26
532.71	1550.25
533.07	1562.69
533.42	1574.53
533.78	1586.20
534.14	1597.97
534.50	1608.82
534.86	1620.19
535.21	1630.62
535.57	1641.71
535.93	1652.74
536.29	1663.63
536.65	1674.77
537.00	1685.31
537.36	1696.26
537.72	1706.91
538.08	1717.77
538.44	1728.29
538.79	1738.97
539.15	1749.28
539.51	1759.56
539.87	1770.63
540.22	1781.10
540.58	1791.73
540.94	1802.27
541.29	1812.22
541.65	1821.72
542.01	1831.86
542.37	1841.53
542.72	1851.50
543.08	1861.07
543.44	1871.07
543.79	1880.09
544.15	1889.14
544.51	1898.89
544.87	1908.31
545.22	1917.08
545.58	1925.72
545.94	1934.10
546.29	1942.31
546.65	1950.58
547.01	1958.54
547.36	1965.79
547.72	1973.32
548.07	1980.70
548.43	1988.18
548.79	1995.70
549.14	2003.49
549.50	2011.57
549.86	2019.09
550.21	2026.12
550.57	2033.44
550.92	2039.98
551.28	2047.08
551.64	2054.16
551.99	2061.30
552.35	2068.33
552.70	2075.08
553.06	2081.47
553.41	2087.68
553.77	2094.07
554.13	2100.20
554.48	2107.02
554.84	2113.92
555.19	2120.28
555.55	2126.54
555.90	2132.72
556.26	2139.45
556.61	2145.26
556.97	2150.12
557.32	2156.03
557.68	2162.36
558.03	2167.99
558.39	2173.06
558.74	2179.03
559.10	2184.57
559.45	2190.05
559.81	2195.53
560.16	2201.00
560.52	2206.83
560.87	2213.19
561.23	2219.17
561.58	2225.68
561.94	2230.89
562.29	2235.79
562.64	2241.89
563.00	2247.41
563.35	2253.06
563.71	2258.98
564.06	2264.53
564.42	2270.63
564.77	2275.69
565.12	2280.96
565.48	2286.24
565.83	2291.97
566.19	2297.56
566.54	2302.98
566.89	2307.61
567.25	2312.32
567.60	2318.14
567.96	2323.47
568.31	2328.10
568.66	2332.31
569.02	2336.33
569.37	2340.11
569.72	2344.50
570.08	2348.08
570.43	2351.36
570.78	2354.33
571.14	2356.89
571.49	2360.30
571.84	2363.94
572.20	2366.90
572.55	2370.10
572.90	2372.31
573.26	2375.33
573.61	2377.79
573.96	2380.08
574.31	2382.27
574.67	2384.28
575.02	2385.27
575.37	2386.75
575.72	2387.77
576.08	2389.36
576.43	2389.76
576.78	2390.87
577.13	2392.73
577.49	2393.87
577.84	2395.36
578.19	2397.17
578.54	2398.09
578.90	2399.28
579.25	2399.47
579.60	2399.81
579.95	2399.16
580.30	2399.70
580.66	2399.21
581.01	2397.85
581.36	2395.93
581.71	2394.93
582.06	2394.12
582.42	2393.64
582.77	2391.78
583.12	2390.56
583.47	2389.66
583.82	2389.49
584.17	2388.24
584.53	2386.27
584.88	2384.73
585.23	2382.99
585.58	2380.88
585.93	2378.91
586.28	2376.86
586.63	2374.61
586.98	2372.60
587.34	2371.20
587.69	2369.09
588.04	2367.30
588.39	2366.10
588.74	2363.84
589.09	2361.43
589.44	2358.60
589.79	2356.20
590.14	2354.70
590.49	2352.05
590.84	2348.54
591.19	2345.70
591.54	2342.65
591.89	2338.87
592.25	2335.81
592.60	2331.87
592.95	2328.10
593.30	2324.34
593.65	2320.04
594.00	2315.97
594.35	2313.01
594.70	2308.47
595.05	2304.07
595.40	2298.91
595.75	2293.50
596.10	2289.89
596.45	2285.20
596.80	2280.87
597.15	2275.74
597.50	2269.82
597.85	2264.86
598.19	2259.65
598.54	2253.98
598.89	2248.95
599.24	2244.51
599.59	2238.57
599.94	2232.98
600.29	2227.14
600.64	2221.12
600.99	2214.68
601.34	2209.25
601.69	2202.35
602.04	2195.96
602.39	2189.46
602.74	2183.41
603.08	2177.86
603.43	2171.52
603.78	2164.72
604.13	2157.60
604.48	2150.59
604.83	2144.56
605.18	2138.38
605.53	2131.56
605.87	2124.55
606.22	2117.96
606.57	2110.32
606.92	2102.52
607.27	2095.61
607.62	2088.86
607.96	2082.04
608.31	2075.42
608.66	2067.77
609.01	2060.31
609.36	2053.36
609.70	2045.63
610.05	2037.93
610.40	2029.81
610.75	2021.68
611.10	2014.26
611.44	2005.72
611.79	1997.08
612.14	1987.26
612.49	1976.91
612.83	1967.78
613.18	1958.63
613.53	1949.33
613.88	1939.63
614.22	1930.99
614.57	1921.04
614.92	1910.70
615.27	1900.61
615.61	1890.67
615.96	1880.95
616.31	1871.47
616.65	1862.12
617.00	1852.35
617.35	1842.84
617.70	1833.21
618.04	1823.03
618.39	1812.60
618.74	1802.81
619.08	1793.15
619.43	1784.38
619.78	1776.11
620.12	1767.32
620.47	1757.65
620.82	1747.31
621.16	1737.52
621.51	1727.61
621.85	1717.82
622.20	1707.26
622.55	1696.57
622.89	1686.77
623.24	1677.00
623.59	1667.17
623.93	1657.07
624.28	1647.31
624.62	1637.03
624.97	1626.52
625.32	1616.88
625.66	1608.16
626.01	1599.24
626.35	1589.86
626.70	1579.71
627.04	1569.46
627.39	1559.39
627.73	1549.99
628.08	1540.81
628.43	1531.30
628.77	1522.06
629.12	1513.16
629.46	1505.42
629.81	1497.09
630.15	1487.45
630.50	1477.66
630.84	1467.23
631.19	1457.21
631.53	1447.79
631.88	1437.64
632.22	1427.67
632.57	1418.19
632.91	1407.80
633.26	1397.91
633.60	1388.40
633.95	1379.02
634.29	1369.69
634.64	1360.30
634.98	1350.50
635.32	1341.37
635.67	1332.84
636.01	1323.55
636.36	1313.68
636.70	1304.09
637.05	1294.63
637.39	1285.64
637.73	1276.95
638.08	1269.34
638.42	1260.99
638.77	1252.31
639.11	1244.08
639.45	1236.15
639.80	1227.52
640.14	1218.85
640.49	1209.93
640.83	1201.01
641.17	1192.98
641.52	1184.68
641.86	1176.02
642.20	1167.98
642.55	1159.32
642.89	1150.30
643.23	1141.59
643.58	1133.52
643.92	1124.40
644.26	1115.78
644.61	1107.33
644.95	1098.54
645.29	1089.24
645.64	1080.11
645.98	1071.55
646.32	1063.54
646.66	1055.11
647.01	1046.72
647.35	1038.61
647.69	1030.30
648.04	1021.96
648.38	1012.97
648.72	1004.10
649.06	995.73
649.41	987.62
649.75	979.55
650.09	971.76
650.43	963.63
650.78	955.41
651.12	947.83
651.46	940.50
651.80	933.19
652.14	925.85
652.49	918.27
652.83	910.96
653.17	903.30
653.51	895.74
653.85	888.46
654.20	881.18
654.54	873.68
654.88	866.53
655.22	859.41
655.56	852.52
655.90	845.81
656.25	839.15
656.59	832.16
656.93	825.23
657.27	818.16
657.61	811.39
657.95	805.30
658.29	799.38
658.64	793.10
658.98	786.70
659.32	780.21
659.66	774.04
660.00	767.76
660.34	761.78
660.68	755.65
661.02	749.41
661.36	743.60
661.70	737.85
662.05	732.26
662.39	726.76
662.73	721.41
663.07	716.15
663.41	710.62
663.75	705.09
664.09	699.58
664.43	694.17
664.77	688.77
665.11	682.96
665.45	677.12
665.79	671.43
666.13	665.79
666.47	660.40
666.81	655.14
667.15	649.85
667.49	644.72
667.83	639.59
668.17	634.38
668.51	629.29
668.85	624.47
669.19	619.61
669.53	614.76
669.87	609.71
670.21	604.97
670.55	600.21
670.89	595.86
671.23	591.56
671.57	587.26
671.91	583.05
672.25	579.05
672.58	575.00
672.92	571.01
673.26	567.18
673.60	563.43
673.94	559.58
674.28	556.00
674.62	552.30
674.96	548.57
675.30	545.17
675.64	541.56
675.97	538.02
676.31	534.46
676.65	530.82
676.99	527.39
677.33	523.60
677.67	520.07
678.01	516.21
678.34	512.58
678.68	509.14
679.02	505.58
679.36	501.91
679.70	498.33
680.04	494.89
680.37	491.49
680.71	488.23
681.05	485.08
681.39	481.92
681.73	478.84
682.06	475.84
682.40	472.74
682.74	469.62
683.08	466.49
683.42	463.37
683.75	460.49
684.09	457.53
684.43	454.80
684.77	451.89
685.10	449.20
685.44	446.33
685.78	443.48
686.12	440.85
686.45	438.18
686.79	435.58
687.13	433.05
687.46	430.45
687.80	427.76
688.14	424.98
688.48	422.44
688.81	419.79
689.15	417.34
689.49	414.83
689.82	412.37
690.16	409.84
690.50	407.42
690.83	404.97
691.17	402.54
691.51	400.12
691.84	397.98
692.18	395.80
692.52	393.67
692.85	391.59
693.19	389.48
693.52	387.31
693.86	385.19
694.20	383.11
694.53	381.06
694.87	378.96
695.21	376.95
695.54	374.84
695.88	372.77
696.21	370.57
696.55	368.48
696.88	366.43
697.22	364.48
697.56	362.71
697.89	360.84
698.23	359.14
698.56	357.41
698.90	355.68
699.23	353.79
699.57	351.98
699.90	350.18
700.24	348.41
700.58	346.77
700.91	345.13
701.25	343.59
701.58	342.03
701.92	340.53
702.25	338.94
702.59	337.38
702.92	335.87
703.26	334.40
703.59	332.99
703.93	331.80
704.26	330.44
704.60	328.97
704.93	327.54
705.26	326.09
705.60	324.63
705.93	323.18
706.27	321.91
706.60	320.71
706.94	319.46
707.27	318.09
707.61	316.76
707.94	315.41
708.27	313.94
708.61	312.51
708.94	311.13
709.28	309.91
709.61	308.71
709.94	307.53
710.28	306.37
710.61	305.25
710.95	303.84
711.28	302.80
711.61	301.61
711.95	300.55
712.28	299.39
712.61	298.25
712.95	297.21
713.28	296.23
713.61	295.11
713.95	293.99
714.28	293.01
714.61	291.99
714.95	291.03
715.28	290.03
715.61	289.06
715.95	288.16
716.28	287.21
716.61	286.28
716.95	285.35
717.28	284.45
717.61	283.51
717.94	282.66
718.28	281.65
718.61	280.82
718.94	279.92
719.27	279.10
719.61	278.33
719.94	277.45
720.27	276.48
720.60	275.64
720.94	274.91
721.27	274.21
721.60	273.59
721.93	272.90
722.27	272.28
722.60	271.67
722.93	270.95
723.26	270.32
723.59	269.64
723.93	269.03
724.26	268.40
724.59	267.77
724.92	267.19
725.25	266.70
725.59	266.14
725.92	265.60
726.25	265.06
726.58	264.50
726.91	263.96
727.24	263.44
727.57	262.92
727.91	262.32
728.24	261.77
728.57	261.17
728.90	260.66
729.23	260.06
729.56	259.62
729.89	259.11
730.22	258.56
730.55	258.01
730.89	257.51
731.22	256.97
731.55	256.48
731.88	256.01
732.21	255.42
732.54	254.95
732.87	254.47
733.20	253.98
733.53	253.48
733.86	253.02
734.19	252.55
734.52	252.10
734.85	251.83
735.18	251.37
735.51	251.01
735.84	250.56
736.17	250.21
736.50	249.71
736.83	249.58
737.16	249.23
737.49	248.88
737.82	248.44
738.15	248.12
738.48	247.77
738.81	247.35
739.14	246.94
739.47	246.54
739.80	246.18
740.13	245.85
740.46	245.50
740.79	245.14
741.12	244.84
741.45	244.50
741.78	244.08
742.11	243.80
742.44	243.45
742.77	243.15
743.10	242.83
743.43	242.50
743.75	241.94
744.08	241.86
744.41	241.51
744.74	241.17
745.07	240.81
745.40	240.51
745.73	240.31
746.06	240.05
746.39	239.75
746.71	239.40
747.04	239.03
747.37	238.77
747.70	238.47
748.03	238.16
748.36	237.91
748.68	237.58
749.01	237.27
749.34	236.97
749.67	236.67
750.00	236.41
750.33	236.28
750.65	236.03
750.98	235.55
751.31	235.30
751.64	235.13
751.97	234.99
752.29	234.71
752.62	234.38
752.95	234.15
753.28	233.92
753.60	233.73
753.93	233.58
754.26	233.34
754.59	233.10
754.91	232.82
755.24	232.58
755.57	232.39
755.90	232.18
756.22	231.93
756.55	231.70
756.88	231.46
757.20	231.10
757.53	230.81
757.86	230.60
758.19	230.44
758.51	230.19
758.84	229.90
759.17	229.72
759.49	229.57
759.82	229.48
760.15	229.32
760.47	229.10
760.80	228.86
761.13	228.70
761.45	228.50
761.78	228.37
762.11	228.20
762.43	228.02
762.76	227.81
763.08	227.67
763.41	227.55
763.74	227.40
764.06	227.29
764.39	227.17
764.71	226.99
765.04	226.82
765.37	226.68
765.69	226.58
766.02	226.43
766.34	226.25
766.67	226.02
767.00	225.92
767.32	225.92
767.65	225.94
767.97	225.81
768.30	225.73
768.62	225.64
768.95	225.48
769.27	225.38
769.60	225.32
769.92	225.22
770.25	225.05
770.57	224.89
770.90	224.77
771.22	224.63
771.55	224.56
771.87	224.48
772.20	224.38
772.52	224.40
772.85	224.53
773.17	224.43
773.50	224.35
773.82	224.22
774.15	224.03
774.47	223.78
774.80	223.67
775.12	223.56
775.45	223.45
775.77	223.37
776.09	223.27
776.42	223.20
776.74	223.12
777.07	223.04
777.39	222.96
777.72	222.91
778.04	222.87
778.36	222.77
778.69	222.68
779.01	222.62
779.33	222.39
779.66	222.08
779.98	221.99
780.31	221.90
780.63	221.91
780.95	221.89
781.28	221.84
781.60	221.75
781.92	221.68
782.25	221.63
782.57	221.58
782.89	221.51
783.22	221.41
783.54	221.31
783.86	221.29
784.19	221.24
784.51	221.22
784.83	221.15
785.16	221.10
785.48	221.07
785.80	221.03
786.12	221.00
786.45	220.95
786.77	220.96
787.09	220.87
787.42	220.75
787.74	220.70
788.06	220.65
788.38	220.61
788.71	220.54
789.03	220.45
789.35	220.39
789.67	220.33
789.99	220.31
790.32	220.27
790.64	220.21
790.96	220.32
791.28	220.20
791.61	220.15
791.93	220.12
792.25	220.08
792.57	220.17
792.89	220.05
793.21	220.01
793.54	219.90
793.86	219.88
794.18	219.84
794.50	219.76
794.82	219.76
795.14	219.72
795.47	219.74
795.79	219.74
796.11	219.67
796.43	219.62
796.75	219.57
797.07	219.51
797.39	219.47
797.71	219.28
798.04	219.26
798.36	219.24
798.68	219.17
799.00	219.15
799.32	218.98
799.64	219.06
799.96	219.05
800.28	219.08
800.60	218.99
800.92	218.99
801.24	218.94
801.56	218.88
801.89	218.80
802.21	218.78
802.53	218.69
802.85	218.70
803.17	218.77
803.49	218.70
803.81	218.68
804.13	218.62
804.45	218.58
804.77	218.54
805.09	218.48
805.41	218.45
805.73	218.34
806.05	218.29
806.37	218.21
806.69	218.15
807.01	218.12
807.33	218.12
807.65	217.99
807.97	218.05
808.28	218.01
808.60	218.01
808.92	217.95
809.24	218.06
809.56	218.01
809.88	217.91
810.20	217.91
810.52	217.93
810.84	217.88
811.16	217.81
811.48	217.79
811.80	217.86
812.12	217.82
812.43	217.85
812.75	217.84
813.07	217.79
813.39	217.76
813.71	217.68
814.03	217.62
814.35	217.62
814.67	217.50
814.98	217.47
815.30	217.42
815.62	217.40
815.94	217.24
816.26	217.22
816.58	217.13
816.89	217.12
817.21	217.02
817.53	217.01
817.85	217.01
818.17	216.98
818.48	216.85
818.80	216.87
819.12	216.83
819.44	216.79
819.76	216.74
820.07	216.75
820.39	216.75
820.71	216.79
821.03	216.79
821.34	216.77
821.66	216.79
821.98	216.80
822.30	216.75
822.61	216.87
822.93	216.81
823.25	216.82
823.57	216.78
823.88	216.87
824.20	216.89
824.52	216.92
824.83	216.88
825.15	216.87
825.47	216.82
825.79	216.86
826.10	216.80
826.42	216.79
826.74	216.79
827.05	216.77
827.37	216.76
827.69	216.73
828.00	216.73
828.32	216.71
828.64	216.69
828.95	216.78
829.27	216.72
829.58	216.75
829.90	216.78
830.22	216.76
830.53	216.66
830.85	216.63
831.17	216.57
831.48	216.58
831.80	216.59
832.11	216.57
832.43	216.50
832.75	216.53
833.06	216.65
833.38	216.55
833.69	216.56
834.01	216.54
834.32	216.56
834.64	216.52
834.96	216.49
835.27	216.50
835.59	216.44
835.90	216.35
836.22	216.35
836.53	216.30
836.85	216.31
837.16	216.54
837.48	216.51
837.79	216.60
838.11	216.60
838.42	216.58
838.74	216.60
839.05	216.59
839.37	216.55
839.68	216.41
840.00	216.40
840.31	216.41
840.63	216.38
840.94	216.31
841.26	216.29
841.57	216.30
841.88	216.31
842.20	216.28
842.51	216.29
842.83	216.26
843.14	216.43
843.46	216.44
843.77	216.31
844.08	216.30
844.40	216.22
844.71	216.19
845.03	216.18
845.34	216.16
845.65	216.12
845.97	216.14
846.28	216.15
846.60	216.17
846.91	216.09
847.22	216.12
847.54	216.17
847.85	216.16
848.16	216.13
848.48	216.07
848.79	216.13
849.10	216.18
849.42	216.20
849.73	216.01
850.04	215.97
850.36	215.84
850.67	215.91
850.98	215.86
851.30	215.86
851.61	215.85
851.92	215.85
852.23	215.91
852.55	215.92
852.86	215.95
853.17	215.95
853.49	216.05
853.80	216.04
854.11	216.06
854.42	216.08
854.74	216.05
855.05	216.07
855.36	215.96
855.67	215.93
855.99	215.93
856.30	216.18
856.61	216.15
856.92	216.21
857.23	216.17
857.55	216.17
857.86	216.13
858.17	216.13
858.48	216.12
858.79	216.07
859.11	216.09
859.42	216.06
859.73	216.07
860.04	216.03
860.35	215.99
860.66	215.95
860.98	215.96
861.29	216.00
861.60	215.94
861.91	216.02
862.22	215.98
862.53	215.95
862.84	215.69
863.16	215.73
863.47	215.69
863.78	215.67
864.09	215.67
864.40	215.69
864.71	215.68
865.02	215.68
865.33	215.68
865.64	215.61
865.95	215.59
866.27	215.71
866.58	215.68
866.89	215.71
867.20	215.71
867.51	215.68
867.82	215.65
868.13	215.75
868.44	215.66
868.75	215.74
869.06	215.73
869.37	215.75
869.68	215.71
869.99	215.74
870.30	215.77
870.61	215.77
870.92	215.75
871.23	215.74
871.54	215.77
871.85	215.82
872.16	215.84
872.47	215.84
872.78	215.69
873.09	215.72
873.40	215.69
873.71	215.69
874.02	215.69
874.33	215.68
874.64	215.65
874.95	215.71
875.26	215.64
875.56	215.64
875.87	215.63
876.18	215.64
876.49	215.83
876.80	215.79
877.11	215.75
877.42	215.80
877.73	215.80
878.04	215.78
878.35	215.73
878.66	215.76
878.96	215.76
879.27	215.76
879.58	215.74
879.89	215.73
880.20	215.77
880.51	215.78
880.82	215.79
881.12	215.79
881.43	215.74
881.74	215.74
882.05	215.75
882.36	215.78
882.67	215.77
882.97	215.54
883.28	215.56
883.59	215.60
883.90	215.59
884.21	215.62
884.51	215.61
884.82	215.60
885.13	215.60
885.44	215.59
885.74	215.61
886.05	215.58
886.36	215.56
886.67	215.50
886.98	215.57
887.28	215.56
887.59	215.53
887.90	215.52
888.20	215.49
888.51	215.52
888.82	215.45
889.13	215.48
889.43	215.68
889.74	215.66
890.05	215.65
890.35	215.65
890.66	215.62
890.97	215.62
891.28	215.62
891.58	215.57
891.89	215.58
892.20	215.56
892.50	215.55
892.81	215.55
893.12	215.55
893.42	215.47
893.73	215.49
894.04	215.49
894.34	215.50
894.65	215.51
894.95	215.45
895.26	215.45
895.57	215.53
895.87	215.30
896.18	215.33
896.48	215.30
896.79	215.33
897.10	215.36
897.40	215.37
897.71	215.38
898.01	215.44
898.32	215.48
898.63	215.44
898.93	215.46
899.24	215.48
899.54	215.47
899.85	215.47
900.15	215.43
900.46	215.43
900.76	215.46
901.07	215.48
901.38	215.48
901.68	215.52
901.99	215.42
902.29	215.46
902.60	215.43
902.90	215.43
903.21	215.41
903.51	215.36
903.82	215.42
904.12	215.37
904.43	215.34
904.73	215.33
905.03	215.36
905.34	215.56
905.64	215.51
905.95	215.51
906.25	215.50
906.56	215.53
906.86	215.54
907.17	215.51
907.47	215.50
907.77	215.52
908.08	215.47
908.38	215.48
908.69	215.47
908.99	215.49
909.30	215.52
909.60	215.49
909.90	215.51
910.21	215.45
910.51	215.45
910.81	215.44
911.12	215.43
911.42	215.44
911.73	215.24
912.03	215.27
912.33	215.31
912.64	215.30
912.94	215.28
913.24	215.27
913.55	215.24
913.85	215.25
914.15	215.27
914.46	215.28
914.76	215.28
915.06	215.29
915.37	215.28
915.67	215.25
915.97	215.29
916.27	215.24
916.58	215.23
916.88	215.25
917.18	215.25
917.49	215.39
917.79	215.39
918.09	215.39
918.39	215.44
918.70	215.43
919.00	215.43
919.30	215.50
919.60	215.47
919.91	215.45
920.21	215.45
920.51	215.42
920.81	215.42
921.12	215.43
921.42	215.43
921.72	215.44
922.02	215.44
922.32	215.45
922.63	215.46
922.93	215.55
923.23	215.55
923.53	215.51
923.83	215.37
924.13	215.35
924.44	215.36
924.74	215.38
925.04	215.45
925.34	215.41
925.64	215.32
925.94	215.33
926.24	215.47
926.55	215.44
926.85	215.46
927.15	215.45
927.45	215.44
927.75	215.41
928.05	215.40
928.35	215.38
928.65	215.40
928.95	215.43
929.26	215.33
929.56	215.35
929.86	215.40
930.16	215.39
930.46	215.37
930.76	215.37
931.06	215.28
931.36	215.22
931.66	215.29
931.96	215.30
932.26	215.32
932.56	215.27
932.86	215.27
933.16	215.26
933.46	215.24
933.76	215.23
934.06	215.29
934.36	215.36
934.66	215.40
934.96	215.36
935.26	215.39
935.56	215.44
935.86	215.42
936.16	215.40
936.46	215.38
936.76	215.40
937.06	215.39
937.36	215.41
937.66	215.39
937.96	215.39
938.26	215.36
938.56	215.34
938.86	215.33
939.16	215.40
939.46	215.43
939.76	215.47
940.06	215.48
940.35	215.44
940.65	215.33
940.95	215.29
941.25	215.26
941.55	215.22
941.85	215.20
942.15	215.21
942.45	215.27
942.75	215.27
943.04	215.28
943.34	215.30
943.64	215.30
943.94	215.28
944.24	215.26
944.54	215.30
944.84	215.26
945.13	215.24
945.43	215.17
945.73	215.16
946.03	215.12
946.33	215.09
946.62	215.06
946.92	215.06
947.22	215.11
947.52	215.13
947.82	215.13
948.11	215.10
948.41	215.05
948.71	214.97
949.01	214.97
949.31	214.95
949.60	214.90
949.90	214.93
950.20	214.89
950.50	214.89
950.79	214.85
951.09	214.91
951.39	214.90
951.69	214.89
951.98	214.93
952.28	214.93
952.58	214.96
952.87	214.98
953.17	215.07
953.47	215.01
953.76	215.00
954.06	214.98
954.36	214.98
954.66	215.01
954.95	215.06
955.25	215.07
955.55	215.08
955.84	215.08
956.14	215.07
956.44	215.10
956.73	215.09
957.03	215.11
957.32	215.09
957.62	215.07
957.92	215.11
958.21	215.11
958.51	215.35
958.81	215.35
959.10	215.36
959.40	215.35
959.69	215.36
959.99	215.40
960.29	215.41
960.58	215.41
960.88	215.48
961.17	215.50
961.47	215.49
961.76	215.49
962.06	215.54
962.36	215.50
962.65	215.53
962.95	215.54
963.24	215.54
963.54	215.57
963.83	215.58
964.13	215.55
964.42	215.47
964.72	215.29
965.01	215.27
965.31	215.25
965.60	215.20
965.90	215.34
966.19	215.26
966.49	215.27
966.78	215.26
967.08	215.23
967.37	215.18
967.67	215.19
967.96	215.24
968.26	215.23
968.55	215.28
968.85	215.25
969.14	215.24
969.43	215.22
969.73	215.19
970.02	215.18
970.32	215.20
970.61	215.20
970.91	215.16
971.20	215.16
971.49	215.12
971.79	215.14
972.08	215.01
972.38	215.08
972.67	215.08
972.96	215.11
973.26	215.11
973.55	215.19
973.85	215.17
974.14	215.11
974.43	215.11
974.73	215.06
975.02	215.05
975.31	215.05
975.61	215.03
975.90	215.03
976.19	215.01
976.49	215.04
976.78	215.09
977.07	215.04
977.37	215.08
977.66	215.10
977.95	215.08
978.24	215.09
978.54	215.11
978.83	215.09
979.12	215.06
979.42	215.04
979.71	214.97
980.00	214.98
980.29	215.01
980.59	214.98
980.88	215.05
981.17	215.04
981.46	215.02
981.76	215.04
982.05	215.09
982.34	215.13
982.63	215.06
982.93	215.05
983.22	215.13
983.51	215.11
983.80	215.12
984.09	215.18
984.39	215.16
984.68	215.12
984.97	215.14
985.26	215.15
985.55	215.15
985.85	215.10
986.14	215.14
986.43	215.15
986.72	215.11
987.01	215.01
987.30	215.05
987.59	215.06
987.89	215.05
988.18	214.99
988.47	214.95
988.76	214.96
989.05	214.92
989.34	214.86
989.63	214.91
989.92	214.89
990.22	214.86
990.51	214.85
990.80	214.86
991.09	214.85
991.38	214.85
991.67	214.82
991.96	214.80
992.25	214.79
992.54	214.74
992.83	214.74
993.12	214.77
993.41	214.79
993.70	214.86
993.99	214.88
994.28	214.91
994.58	214.97
994.87	214.98
995.16	214.98
995.45	214.99
995.74	214.93
996.03	214.96
996.32	214.97
996.61	215.03
996.90	215.00
997.19	215.00
997.48	215.00
997.77	214.98
998.06	215.01
998.34	215.00
998.63	215.00
998.92	215.01
999.21	215.02
999.50	215.03
999.79	214.94
1000.08	214.97
1000.37	214.99
1000.66	214.93
1000.95	214.93
1001.24	215.00
1001.53	215.01
1001.82	214.99
1002.11	214.92
1002.40	214.93
1002.68	214.97
1002.97	215.12
1003.26	215.10
1003.55	215.08
1003.84	215.13
1004.13	215.19
1004.42	215.17
1004.71	215.22
1004.99	215.21
1005.28	215.28
1005.57	215.23
1005.86	215.23
1006.15	215.17
1006.44	215.11
1006.72	215.15
1007.01	215.13
1007.30	215.12
1007.59	215.11
1007.88	215.13
1008.17	215.19
1008.45	215.14
1008.74	215.06
1009.03	215.00
1009.32	214.99
1009.60	214.99
1009.89	214.94
1010.18	214.87
1010.47	214.86
1010.76	214.80
1011.04	214.82
1011.33	214.81
1011.62	214.85
1011.91	214.90
1012.19	214.92
1012.48	214.92
1012.77	214.91
1013.05	215.04
1013.34	215.02
1013.63	215.01
1013.92	215.02
1014.20	215.00
1014.49	215.02
1014.78	215.06
1015.06	214.98
1015.35	214.98
1015.64	215.02
1015.92	215.04
1016.21	215.05
1016.50	215.07
1016.78	215.12
1017.07	215.14
1017.36	215.07
1017.64	215.04
1017.93	215.04
1018.22	215.00
1018.50	214.98
1018.79	214.95
1019.08	214.84
1019.36	214.85
1019.65	214.81
1019.93	214.88
1020.22	214.89
1020.51	215.00
1020.79	214.95
1021.08	213.90
1021.36	214.17
1021.65	214.37
1021.94	215.05
1022.22	214.99
1022.51	214.19
1022.79	216.31
1023.08	215.03
1023.36	217.50
1023.65	214.29
>>>>>End Processed Spectral Data<<<<<
