SpectraSuite Data File
++++++++++++++++++++++++++++++++++++
Date: Tue Jan 29 16:18:45 EST 2013
User: group
Dark Spectrum Present: No
Reference Spectrum Present: No
Number of Sampled Component Spectra: 1
Spectrometers: USB2E7196
Integration Time (usec): 65000 (USB2E7196)
Spectra Averaged: 100 (USB2E7196)
Boxcar Smoothing: 10 (USB2E7196)
Correct for Electrical Dark: No (USB2E7196)
Strobe/Lamp Enabled: No (USB2E7196)
Correct for Detector Non-linearity: No (USB2E7196)
Correct for Stray Light: No (USB2E7196)
Number of Pixels in Processed Spectrum: 2048
>>>>>Begin Processed Spectral Data<<<<<
339.09	0.00
339.48	201.66
339.86	204.21
340.24	205.71
340.63	206.71
341.01	211.77
341.39	209.32
341.78	210.98
342.16	212.05
342.54	212.72
342.93	201.67
343.31	211.87
343.69	212.46
344.07	212.91
344.46	213.33
344.84	213.75
345.22	213.91
345.60	214.19
345.99	214.42
346.37	214.57
346.75	214.67
347.13	214.81
347.52	214.90
347.90	215.01
348.28	215.07
348.66	215.15
349.05	215.11
349.43	215.15
349.81	215.23
350.19	215.29
350.57	215.37
350.96	215.46
351.34	215.56
351.72	215.64
352.10	215.75
352.48	215.81
352.87	215.84
353.25	215.88
353.63	215.93
354.01	215.97
354.39	216.06
354.77	216.15
355.15	216.26
355.54	216.28
355.92	216.31
356.30	216.40
356.68	216.63
357.06	216.72
357.44	216.77
357.82	216.82
358.20	216.93
358.58	216.99
358.97	217.05
359.35	217.15
359.73	217.24
360.11	217.32
360.49	217.39
360.87	217.45
361.25	217.53
361.63	217.64
362.01	217.73
362.39	217.72
362.77	217.76
363.15	217.77
363.53	217.80
363.91	217.87
364.29	217.86
364.67	217.67
365.05	217.69
365.43	217.77
365.81	217.80
366.19	217.85
366.57	217.91
366.95	217.90
367.33	217.83
367.71	217.85
368.09	217.89
368.47	217.90
368.85	217.87
369.23	217.89
369.61	217.86
369.99	217.86
370.37	217.91
370.75	217.97
371.13	217.93
371.51	217.90
371.89	217.85
372.27	217.82
372.65	217.81
373.03	217.78
373.41	217.71
373.78	217.69
374.16	217.53
374.54	217.42
374.92	217.36
375.30	217.34
375.68	217.24
376.06	217.17
376.44	217.08
376.82	217.06
377.19	217.01
377.57	216.92
377.95	216.84
378.33	216.74
378.71	216.61
379.09	216.60
379.47	216.55
379.84	216.47
380.22	216.43
380.60	216.35
380.98	216.27
381.36	216.18
381.73	216.11
382.11	216.10
382.49	216.08
382.87	216.04
383.25	215.98
383.62	216.18
384.00	216.11
384.38	216.09
384.76	216.10
385.13	216.12
385.51	216.07
385.89	215.99
386.27	215.95
386.64	215.96
387.02	215.90
387.40	215.83
387.78	215.83
388.15	215.81
388.53	215.79
388.91	215.78
389.29	215.77
389.66	215.75
390.04	215.73
390.42	215.71
390.79	215.69
391.17	215.67
391.55	215.43
391.92	215.42
392.30	215.44
392.68	215.40
393.05	215.38
393.43	215.41
393.81	215.45
394.18	215.43
394.56	215.40
394.94	215.44
395.31	215.46
395.69	215.52
396.06	215.59
396.44	215.61
396.82	215.61
397.19	215.71
397.57	215.76
397.95	215.81
398.32	215.80
398.70	215.87
399.07	215.97
399.45	215.99
399.82	216.04
400.20	216.05
400.58	216.10
400.95	216.06
401.33	216.16
401.70	216.33
402.08	216.43
402.45	216.53
402.83	216.66
403.20	216.80
403.58	216.87
403.95	217.00
404.33	217.14
404.71	217.29
405.08	217.58
405.46	217.70
405.83	217.88
406.21	218.09
406.58	218.31
406.96	218.48
407.33	218.77
407.70	219.05
408.08	219.51
408.45	219.83
408.83	220.26
409.20	220.57
409.58	220.82
409.95	221.30
410.33	221.75
410.70	222.14
411.08	222.69
411.45	223.25
411.82	223.84
412.20	224.52
412.57	225.32
412.95	225.84
413.32	226.67
413.69	227.50
414.07	228.36
414.44	229.34
414.82	230.34
415.19	231.48
415.56	232.65
415.94	233.79
416.31	235.17
416.68	236.50
417.06	238.02
417.43	239.54
417.81	241.20
418.18	242.92
418.55	244.82
418.93	246.77
419.30	248.84
419.67	250.95
420.04	253.18
420.42	255.49
420.79	258.24
421.16	260.95
421.54	263.76
421.91	266.64
422.28	269.64
422.66	272.84
423.03	275.99
423.40	279.24
423.77	282.71
424.15	286.28
424.52	289.99
424.89	294.08
425.26	298.06
425.64	301.81
426.01	306.00
426.38	310.34
426.75	314.70
427.13	319.23
427.50	324.02
427.87	329.03
428.24	334.08
428.61	338.84
428.99	344.16
429.36	349.95
429.73	355.68
430.10	361.33
430.47	367.19
430.85	373.31
431.22	379.81
431.59	386.71
431.96	393.30
432.33	400.56
432.70	407.60
433.08	415.81
433.45	423.62
433.82	431.28
434.19	439.87
434.56	448.32
434.93	456.40
435.30	464.50
435.68	473.33
436.05	482.03
436.42	490.66
436.79	498.55
437.16	507.08
437.53	516.04
437.90	524.92
438.27	533.62
438.64	542.50
439.01	550.79
439.38	558.10
439.75	565.19
440.13	573.37
440.50	581.07
440.87	587.28
441.24	593.70
441.61	600.84
441.98	606.05
442.35	612.16
442.72	618.30
443.09	624.07
443.46	627.70
443.83	630.11
444.20	632.24
444.57	635.27
444.94	636.63
445.31	638.03
445.68	639.38
446.05	639.93
446.42	639.16
446.79	638.15
447.16	637.11
447.53	636.36
447.90	633.11
448.27	629.93
448.64	625.43
449.01	622.25
449.37	616.53
449.74	611.07
450.11	604.36
450.48	597.16
450.85	589.92
451.22	583.61
451.59	577.69
451.96	572.03
452.33	564.43
452.70	557.56
453.07	549.34
453.43	541.03
453.80	533.05
454.17	525.39
454.54	518.10
454.91	510.18
455.28	502.50
455.65	495.36
456.02	488.08
456.38	481.94
456.75	474.37
457.12	468.04
457.49	461.71
457.86	455.77
458.23	450.60
458.59	444.94
458.96	439.18
459.33	434.08
459.70	428.91
460.07	424.82
460.43	420.10
460.80	415.67
461.17	411.79
461.54	407.69
461.91	403.76
462.27	399.82
462.64	396.50
463.01	392.83
463.38	389.19
463.74	385.60
464.11	382.45
464.48	379.65
464.85	376.68
465.21	374.37
465.58	371.84
465.95	368.80
466.32	366.29
466.68	363.77
467.05	361.24
467.42	358.80
467.78	356.20
468.15	353.78
468.52	351.99
468.88	349.60
469.25	347.48
469.62	345.78
469.98	343.93
470.35	342.20
470.72	340.58
471.08	338.86
471.45	337.41
471.82	335.98
472.18	334.40
472.55	333.21
472.92	331.85
473.28	330.68
473.65	329.58
474.02	328.51
474.38	327.67
474.75	326.95
475.11	326.20
475.48	325.65
475.85	325.19
476.21	324.75
476.58	324.40
476.94	324.19
477.31	323.92
477.67	323.68
478.04	323.53
478.41	323.48
478.77	323.68
479.14	323.63
479.50	323.83
479.87	324.10
480.23	324.45
480.60	324.70
480.96	324.93
481.33	325.53
481.69	326.11
482.06	326.62
482.42	327.10
482.79	327.68
483.15	328.48
483.52	329.42
483.88	330.24
484.25	331.18
484.61	332.23
484.98	333.23
485.34	334.51
485.71	335.86
486.07	337.31
486.44	338.62
486.80	340.26
487.17	341.89
487.53	343.73
487.90	345.60
488.26	347.63
488.62	349.81
488.99	351.88
489.35	354.04
489.72	356.45
490.08	358.96
490.44	361.52
490.81	364.20
491.17	366.89
491.54	369.92
491.90	372.92
492.26	376.14
492.63	379.56
492.99	383.11
493.36	386.80
493.72	390.69
494.08	394.71
494.45	398.91
494.81	403.29
495.17	407.69
495.54	412.33
495.90	417.15
496.26	422.10
496.63	427.28
496.99	432.66
497.35	438.18
497.72	443.97
498.08	449.89
498.44	455.98
498.80	462.35
499.17	468.84
499.53	475.53
499.89	482.38
500.26	489.33
500.62	496.36
500.98	503.78
501.34	511.19
501.71	518.94
502.07	526.76
502.43	534.72
502.79	542.89
503.16	551.29
503.52	559.83
503.88	568.44
504.24	577.36
504.60	586.39
504.97	595.63
505.33	604.89
505.69	614.69
506.05	624.48
506.41	634.31
506.78	644.30
507.14	654.48
507.50	664.88
507.86	675.52
508.22	686.10
508.59	696.67
508.95	707.68
509.31	718.79
509.67	730.16
510.03	741.45
510.39	753.06
510.75	764.81
511.12	776.64
511.48	788.63
511.84	800.70
512.20	812.84
512.56	825.36
512.92	837.98
513.28	850.48
513.64	863.19
514.00	875.96
514.37	888.81
514.73	901.77
515.09	914.62
515.45	927.36
515.81	940.37
516.17	953.52
516.53	966.52
516.89	979.46
517.25	992.46
517.61	1005.82
517.97	1019.00
518.33	1031.93
518.69	1045.19
519.05	1058.78
519.41	1072.32
519.77	1086.05
520.13	1099.09
520.49	1112.16
520.85	1125.42
521.21	1138.59
521.57	1151.86
521.93	1164.68
522.29	1178.22
522.65	1191.66
523.01	1205.17
523.37	1218.12
523.73	1231.22
524.09	1244.16
524.45	1257.41
524.81	1270.65
525.17	1283.68
525.53	1296.57
525.89	1309.62
526.25	1322.56
526.61	1335.12
526.97	1347.79
527.33	1360.50
527.68	1373.60
528.04	1386.68
528.40	1399.54
528.76	1412.45
529.12	1425.10
529.48	1438.16
529.84	1450.10
530.20	1462.37
530.56	1474.53
530.91	1487.50
531.27	1500.06
531.63	1512.51
531.99	1524.94
532.35	1536.96
532.71	1549.07
533.07	1561.56
533.42	1573.51
533.78	1585.30
534.14	1596.96
534.50	1608.02
534.86	1619.22
535.21	1629.85
535.57	1641.08
535.93	1651.85
536.29	1662.71
536.65	1673.85
537.00	1684.46
537.36	1695.54
537.72	1706.21
538.08	1717.15
538.44	1727.61
538.79	1738.30
539.15	1748.88
539.51	1759.23
539.87	1770.01
540.22	1780.40
540.58	1791.06
540.94	1801.55
541.29	1811.50
541.65	1820.92
542.01	1830.92
542.37	1840.64
542.72	1850.48
543.08	1859.91
543.44	1870.10
543.79	1878.95
544.15	1888.08
544.51	1897.74
544.87	1907.23
545.22	1916.33
545.58	1925.06
545.94	1933.71
546.29	1941.96
546.65	1950.05
547.01	1958.03
547.36	1965.43
547.72	1973.00
548.07	1980.29
548.43	1987.74
548.79	1995.44
549.14	2003.39
549.50	2011.74
549.86	2019.39
550.21	2026.59
550.57	2034.08
550.92	2040.69
551.28	2048.01
551.64	2055.11
551.99	2062.53
552.35	2069.56
552.70	2076.19
553.06	2082.67
553.41	2088.86
553.77	2095.26
554.13	2101.41
554.48	2108.34
554.84	2115.32
555.19	2121.72
555.55	2128.04
555.90	2134.23
556.26	2140.75
556.61	2146.73
556.97	2151.55
557.32	2157.29
557.68	2163.65
558.03	2169.21
558.39	2174.51
558.74	2180.32
559.10	2185.76
559.45	2191.13
559.81	2196.61
560.16	2202.13
560.52	2207.91
560.87	2214.22
561.23	2220.11
561.58	2226.73
561.94	2231.90
562.29	2236.64
562.64	2242.81
563.00	2248.60
563.35	2254.19
563.71	2259.90
564.06	2265.59
564.42	2271.50
564.77	2276.54
565.12	2281.78
565.48	2287.10
565.83	2292.58
566.19	2298.07
566.54	2303.33
566.89	2307.82
567.25	2312.50
567.60	2318.22
567.96	2323.38
568.31	2327.91
568.66	2332.17
569.02	2336.15
569.37	2339.90
569.72	2344.31
570.08	2347.71
570.43	2350.72
570.78	2353.87
571.14	2356.52
571.49	2359.67
571.84	2363.26
572.20	2366.24
572.55	2369.30
572.90	2371.60
573.26	2374.52
573.61	2377.18
573.96	2379.51
574.31	2381.57
574.67	2383.45
575.02	2384.22
575.37	2385.83
575.72	2386.74
576.08	2388.33
576.43	2388.56
576.78	2389.20
577.13	2390.95
577.49	2392.17
577.84	2393.41
578.19	2394.90
578.54	2395.63
578.90	2396.52
579.25	2396.51
579.60	2396.60
579.95	2395.92
580.30	2396.12
580.66	2395.48
581.01	2394.03
581.36	2391.99
581.71	2390.83
582.06	2389.92
582.42	2389.18
582.77	2387.07
583.12	2385.60
583.47	2384.47
583.82	2384.05
584.17	2382.99
584.53	2381.01
584.88	2379.25
585.23	2377.55
585.58	2375.41
585.93	2373.66
586.28	2371.65
586.63	2369.36
586.98	2367.32
587.34	2365.65
587.69	2363.44
588.04	2361.60
588.39	2360.34
588.74	2358.04
589.09	2355.64
589.44	2352.56
589.79	2350.35
590.14	2348.58
590.49	2346.07
590.84	2342.35
591.19	2339.57
591.54	2336.57
591.89	2332.75
592.25	2329.71
592.60	2325.93
592.95	2322.03
593.30	2318.12
593.65	2314.00
594.00	2309.82
594.35	2307.22
594.70	2302.69
595.05	2298.28
595.40	2292.99
595.75	2287.32
596.10	2283.75
596.45	2279.02
596.80	2274.62
597.15	2269.54
597.50	2263.78
597.85	2258.86
598.19	2253.76
598.54	2248.08
598.89	2242.92
599.24	2238.44
599.59	2232.33
599.94	2226.28
600.29	2220.43
600.64	2214.44
600.99	2207.74
601.34	2202.27
601.69	2195.13
602.04	2188.86
602.39	2182.41
602.74	2176.39
603.08	2170.94
603.43	2164.58
603.78	2157.93
604.13	2151.01
604.48	2143.85
604.83	2137.71
605.18	2131.53
605.53	2124.71
605.87	2117.59
606.22	2110.89
606.57	2103.12
606.92	2095.18
607.27	2088.33
607.62	2081.69
607.96	2074.82
608.31	2068.40
608.66	2060.81
609.01	2053.27
609.36	2046.21
609.70	2038.53
610.05	2031.02
610.40	2022.83
610.75	2014.50
611.10	2006.66
611.44	1997.92
611.79	1989.30
612.14	1979.56
612.49	1968.86
612.83	1959.45
613.18	1950.31
613.53	1941.03
613.88	1931.54
614.22	1923.19
614.57	1913.44
614.92	1903.05
615.27	1892.93
615.61	1882.81
615.96	1873.17
616.31	1863.67
616.65	1854.30
617.00	1844.52
617.35	1834.83
617.70	1825.12
618.04	1815.16
618.39	1805.09
618.74	1795.32
619.08	1785.83
619.43	1777.17
619.78	1769.06
620.12	1760.60
620.47	1751.16
620.82	1740.88
621.16	1731.05
621.51	1721.13
621.85	1711.43
622.20	1700.99
622.55	1690.42
622.89	1680.59
623.24	1670.82
623.59	1661.10
623.93	1650.94
624.28	1641.28
624.62	1631.16
624.97	1620.95
625.32	1611.30
625.66	1602.51
626.01	1593.83
626.35	1584.44
626.70	1574.23
627.04	1564.30
627.39	1554.15
627.73	1544.88
628.08	1535.88
628.43	1526.33
628.77	1517.06
629.12	1508.16
629.46	1500.46
629.81	1492.17
630.15	1482.72
630.50	1473.01
630.84	1462.55
631.19	1452.70
631.53	1443.43
631.88	1433.31
632.22	1423.36
632.57	1413.88
632.91	1403.79
633.26	1393.96
633.60	1384.33
633.95	1375.21
634.29	1365.68
634.64	1356.45
634.98	1346.41
635.32	1337.19
635.67	1328.87
636.01	1319.59
636.36	1309.99
636.70	1300.42
637.05	1291.01
637.39	1282.17
637.73	1273.58
638.08	1265.97
638.42	1257.86
638.77	1249.14
639.11	1240.94
639.45	1233.10
639.80	1224.72
640.14	1216.07
640.49	1207.23
640.83	1198.58
641.17	1190.39
641.52	1182.31
641.86	1173.81
642.20	1166.03
642.55	1157.45
642.89	1148.53
643.23	1139.91
643.58	1131.80
643.92	1122.87
644.26	1114.23
644.61	1105.70
644.95	1096.96
645.29	1087.87
645.64	1078.76
645.98	1070.22
646.32	1062.34
646.66	1053.86
647.01	1045.49
647.35	1037.37
647.69	1029.12
648.04	1020.81
648.38	1012.03
648.72	1003.29
649.06	994.84
649.41	986.70
649.75	978.76
650.09	970.92
650.43	963.07
650.78	954.82
651.12	947.25
651.46	940.04
651.80	932.96
652.14	925.75
652.49	918.36
652.83	911.07
653.17	903.48
653.51	895.86
653.85	888.74
654.20	881.57
654.54	874.16
654.88	866.93
655.22	859.87
655.56	852.99
655.90	846.30
656.25	839.79
656.59	832.97
656.93	826.11
657.27	819.09
657.61	812.17
657.95	806.10
658.29	800.12
658.64	793.92
658.98	787.45
659.32	780.97
659.66	774.66
660.00	768.44
660.34	762.44
660.68	756.46
661.02	750.20
661.36	744.32
661.70	738.61
662.05	733.13
662.39	727.63
662.73	722.20
663.07	716.94
663.41	711.36
663.75	705.71
664.09	700.12
664.43	694.77
664.77	689.47
665.11	683.71
665.45	677.94
665.79	672.26
666.13	666.71
666.47	661.22
666.81	655.91
667.15	650.58
667.49	645.46
667.83	640.32
668.17	635.16
668.51	630.11
668.85	625.31
669.19	620.50
669.53	615.58
669.87	610.56
670.21	605.80
670.55	601.22
670.89	596.88
671.23	592.66
671.57	588.37
671.91	584.18
672.25	580.02
672.58	575.99
672.92	572.02
673.26	568.11
673.60	564.36
673.94	560.56
674.28	557.03
674.62	553.39
674.96	549.69
675.30	546.26
675.64	542.66
675.97	539.12
676.31	535.54
676.65	532.02
676.99	528.69
677.33	524.94
677.67	521.36
678.01	517.54
678.34	513.94
678.68	510.39
679.02	506.78
679.36	503.16
679.70	499.52
680.04	496.01
680.37	492.62
680.71	489.34
681.05	486.29
681.39	483.09
681.73	479.93
682.06	476.92
682.40	473.87
682.74	470.72
683.08	467.52
683.42	464.37
683.75	461.37
684.09	458.37
684.43	455.61
684.77	452.73
685.10	449.93
685.44	447.06
685.78	444.26
686.12	441.60
686.45	438.96
686.79	436.41
687.13	433.91
687.46	431.33
687.80	428.68
688.14	425.89
688.48	423.26
688.81	420.64
689.15	418.14
689.49	415.55
689.82	413.11
690.16	410.59
690.50	408.23
690.83	405.78
691.17	403.32
691.51	400.89
691.84	398.65
692.18	396.50
692.52	394.30
692.85	392.19
693.19	390.07
693.52	387.93
693.86	385.76
694.20	383.61
694.53	381.50
694.87	379.38
695.21	377.27
695.54	375.20
695.88	373.09
696.21	370.91
696.55	368.86
696.88	366.82
697.22	364.88
697.56	363.02
697.89	361.24
698.23	359.51
698.56	357.73
698.90	356.01
699.23	354.17
699.57	352.36
699.90	350.54
700.24	348.76
700.58	347.09
700.91	345.43
701.25	343.89
701.58	342.29
701.92	340.76
702.25	339.20
702.59	337.60
702.92	336.09
703.26	334.58
703.59	333.10
703.93	331.92
704.26	330.54
704.60	329.05
704.93	327.58
705.26	326.09
705.60	324.65
705.93	323.14
706.27	321.88
706.60	320.67
706.94	319.45
707.27	318.09
707.61	316.79
707.94	315.50
708.27	314.07
708.61	312.71
708.94	311.31
709.28	310.07
709.61	308.84
709.94	307.67
710.28	306.49
710.61	305.36
710.95	303.96
711.28	302.94
711.61	301.80
711.95	300.70
712.28	299.55
712.61	298.41
712.95	297.43
713.28	296.38
713.61	295.27
713.95	294.17
714.28	293.19
714.61	292.16
714.95	291.11
715.28	290.16
715.61	289.15
715.95	288.25
716.28	287.29
716.61	286.42
716.95	285.48
717.28	284.57
717.61	283.65
717.94	282.79
718.28	281.75
718.61	280.93
718.94	280.02
719.27	279.24
719.61	278.45
719.94	277.57
720.27	276.63
720.60	275.75
720.94	274.97
721.27	274.26
721.60	273.61
721.93	272.95
722.27	272.29
722.60	271.67
722.93	270.98
723.26	270.36
723.59	269.68
723.93	269.08
724.26	268.46
724.59	267.84
724.92	267.24
725.25	266.73
725.59	266.17
725.92	265.69
726.25	265.12
726.58	264.57
726.91	264.01
727.24	263.52
727.57	263.04
727.91	262.44
728.24	261.92
728.57	261.28
728.90	260.74
729.23	260.11
729.56	259.70
729.89	259.20
730.22	258.62
730.55	258.07
730.89	257.52
731.22	257.00
731.55	256.46
731.88	255.93
732.21	255.38
732.54	254.82
732.87	254.32
733.20	253.85
733.53	253.37
733.86	252.93
734.19	252.43
734.52	252.03
734.85	251.76
735.18	251.27
735.51	250.96
735.84	250.55
736.17	250.19
736.50	249.64
736.83	249.48
737.16	249.13
737.49	248.77
737.82	248.39
738.15	248.05
738.48	247.67
738.81	247.26
739.14	246.86
739.47	246.48
739.80	246.12
740.13	245.74
740.46	245.37
740.79	244.96
741.12	244.60
741.45	244.21
741.78	243.77
742.11	243.48
742.44	243.08
742.77	242.76
743.10	242.42
743.43	242.07
743.75	241.50
744.08	241.43
744.41	241.05
744.74	240.68
745.07	240.30
745.40	240.00
745.73	239.78
746.06	239.49
746.39	239.22
746.71	238.85
747.04	238.53
747.37	238.22
747.70	237.98
748.03	237.69
748.36	237.43
748.68	237.12
749.01	236.80
749.34	236.51
749.67	236.24
750.00	235.99
750.33	235.91
750.65	235.68
750.98	235.20
751.31	234.99
751.64	234.79
751.97	234.71
752.29	234.47
752.62	234.18
752.95	233.94
753.28	233.68
753.60	233.49
753.93	233.34
754.26	233.15
754.59	232.86
754.91	232.65
755.24	232.40
755.57	232.18
755.90	231.96
756.22	231.70
756.55	231.46
756.88	231.21
757.20	230.87
757.53	230.62
757.86	230.41
758.19	230.19
758.51	230.00
758.84	229.69
759.17	229.52
759.49	229.35
759.82	229.26
760.15	229.11
760.47	228.92
760.80	228.69
761.13	228.53
761.45	228.35
761.78	228.15
762.11	228.02
762.43	227.86
762.76	227.71
763.08	227.65
763.41	227.51
763.74	227.39
764.06	227.21
764.39	227.04
764.71	226.89
765.04	226.73
765.37	226.60
765.69	226.44
766.02	226.28
766.34	226.08
766.67	225.88
767.00	225.79
767.32	225.81
767.65	225.79
767.97	225.59
768.30	225.47
768.62	225.37
768.95	225.18
769.27	225.03
769.60	224.94
769.92	224.77
770.25	224.62
770.57	224.45
770.90	224.33
771.22	224.22
771.55	224.09
771.87	224.00
772.20	223.87
772.52	223.92
772.85	224.05
773.17	224.00
773.50	223.88
773.82	223.73
774.15	223.50
774.47	223.27
774.80	223.18
775.12	223.10
775.45	222.99
775.77	222.95
776.09	222.90
776.42	222.80
776.74	222.80
777.07	222.72
777.39	222.66
777.72	222.55
778.04	222.52
778.36	222.47
778.69	222.40
779.01	222.31
779.33	222.05
779.66	221.76
779.98	221.65
780.31	221.60
780.63	221.61
780.95	221.54
781.28	221.46
781.60	221.38
781.92	221.30
782.25	221.24
782.57	221.16
782.89	221.10
783.22	220.99
783.54	220.84
783.86	220.79
784.19	220.73
784.51	220.75
784.83	220.65
785.16	220.59
785.48	220.51
785.80	220.45
786.12	220.41
786.45	220.36
786.77	220.32
787.09	220.24
787.42	220.11
787.74	220.08
788.06	220.05
788.38	220.01
788.71	219.94
789.03	219.92
789.35	219.90
789.67	219.83
789.99	219.80
790.32	219.73
790.64	219.69
790.96	219.79
791.28	219.68
791.61	219.60
791.93	219.54
792.25	219.49
792.57	219.61
792.89	219.51
793.21	219.50
793.54	219.42
793.86	219.33
794.18	219.34
794.50	219.24
794.82	219.19
795.14	219.17
795.47	219.19
795.79	219.14
796.11	219.08
796.43	219.03
796.75	219.00
797.07	218.96
797.39	218.89
797.71	218.73
798.04	218.67
798.36	218.66
798.68	218.60
799.00	218.58
799.32	218.43
799.64	218.48
799.96	218.44
800.28	218.46
800.60	218.45
800.92	218.43
801.24	218.42
801.56	218.41
801.89	218.38
802.21	218.32
802.53	218.24
802.85	218.23
803.17	218.30
803.49	218.21
803.81	218.19
804.13	218.16
804.45	218.06
804.77	218.09
805.09	218.04
805.41	218.01
805.73	217.95
806.05	217.86
806.37	217.78
806.69	217.67
807.01	217.62
807.33	217.64
807.65	217.56
807.97	217.62
808.28	217.56
808.60	217.50
808.92	217.46
809.24	217.54
809.56	217.49
809.88	217.36
810.20	217.37
810.52	217.36
810.84	217.32
811.16	217.29
811.48	217.22
811.80	217.29
812.12	217.26
812.43	217.25
812.75	217.25
813.07	217.23
813.39	217.23
813.71	217.15
814.03	217.12
814.35	217.05
814.67	216.92
814.98	216.88
815.30	216.86
815.62	216.84
815.94	216.71
816.26	216.70
816.58	216.67
816.89	216.65
817.21	216.62
817.53	216.62
817.85	216.58
818.17	216.56
818.48	216.46
818.80	216.48
819.12	216.45
819.44	216.40
819.76	216.36
820.07	216.36
820.39	216.37
820.71	216.33
821.03	216.33
821.34	216.32
821.66	216.35
821.98	216.32
822.30	216.27
822.61	216.35
822.93	216.34
823.25	216.32
823.57	216.28
823.88	216.33
824.20	216.31
824.52	216.33
824.83	216.34
825.15	216.33
825.47	216.29
825.79	216.33
826.10	216.32
826.42	216.29
826.74	216.29
827.05	216.25
827.37	216.25
827.69	216.26
828.00	216.27
828.32	216.26
828.64	216.25
828.95	216.36
829.27	216.26
829.58	216.23
829.90	216.25
830.22	216.26
830.53	216.17
830.85	216.18
831.17	216.17
831.48	216.13
831.80	216.12
832.11	216.11
832.43	216.03
832.75	216.01
833.06	216.12
833.38	216.07
833.69	216.05
834.01	216.05
834.32	216.04
834.64	215.99
834.96	215.98
835.27	215.95
835.59	215.88
835.90	215.89
836.22	215.87
836.53	215.82
836.85	215.79
837.16	216.02
837.48	216.00
837.79	216.06
838.11	216.07
838.42	216.04
838.74	216.06
839.05	216.10
839.37	216.09
839.68	216.00
840.00	215.99
840.31	216.02
840.63	216.01
840.94	215.97
841.26	215.95
841.57	215.94
841.88	215.98
842.20	215.96
842.51	215.90
842.83	215.92
843.14	216.11
843.46	216.13
843.77	215.96
844.08	215.93
844.40	215.85
844.71	215.83
845.03	215.81
845.34	215.81
845.65	215.75
845.97	215.77
846.28	215.77
846.60	215.76
846.91	215.74
847.22	215.73
847.54	215.78
847.85	215.80
848.16	215.74
848.48	215.69
848.79	215.74
849.10	215.78
849.42	215.77
849.73	215.57
850.04	215.53
850.36	215.48
850.67	215.51
850.98	215.48
851.30	215.55
851.61	215.52
851.92	215.45
852.23	215.54
852.55	215.55
852.86	215.49
853.17	215.50
853.49	215.54
853.80	215.54
854.11	215.53
854.42	215.57
854.74	215.57
855.05	215.55
855.36	215.45
855.67	215.44
855.99	215.44
856.30	215.67
856.61	215.67
856.92	215.70
857.23	215.69
857.55	215.71
857.86	215.66
858.17	215.70
858.48	215.69
858.79	215.61
859.11	215.61
859.42	215.62
859.73	215.58
860.04	215.57
860.35	215.53
860.66	215.46
860.98	215.44
861.29	215.46
861.60	215.47
861.91	215.53
862.22	215.49
862.53	215.43
862.84	215.17
863.16	215.20
863.47	215.13
863.78	215.11
864.09	215.11
864.40	215.10
864.71	215.09
865.02	215.11
865.33	215.07
865.64	215.03
865.95	215.05
866.27	215.17
866.58	215.13
866.89	215.16
867.20	215.13
867.51	215.11
867.82	215.09
868.13	215.14
868.44	215.06
868.75	215.08
869.06	215.13
869.37	215.17
869.68	215.12
869.99	215.15
870.30	215.17
870.61	215.17
870.92	215.14
871.23	215.14
871.54	215.19
871.85	215.24
872.16	215.27
872.47	215.23
872.78	215.13
873.09	215.16
873.40	215.10
873.71	215.18
874.02	215.20
874.33	215.19
874.64	215.13
874.95	215.18
875.26	215.17
875.56	215.15
875.87	215.13
876.18	215.12
876.49	215.32
876.80	215.30
877.11	215.24
877.42	215.29
877.73	215.28
878.04	215.24
878.35	215.24
878.66	215.23
878.96	215.23
879.27	215.20
879.58	215.18
879.89	215.19
880.20	215.22
880.51	215.17
880.82	215.14
881.12	215.20
881.43	215.17
881.74	215.13
882.05	215.12
882.36	215.13
882.67	215.12
882.97	214.89
883.28	214.86
883.59	214.86
883.90	214.85
884.21	214.89
884.51	214.87
884.82	214.84
885.13	214.85
885.44	214.85
885.74	214.87
886.05	214.89
886.36	214.88
886.67	214.78
886.98	214.88
887.28	214.91
887.59	214.90
887.90	214.90
888.20	214.92
888.51	214.94
888.82	214.93
889.13	214.97
889.43	215.13
889.74	215.10
890.05	215.12
890.35	215.10
890.66	215.04
890.97	215.04
891.28	215.01
891.58	214.99
891.89	214.98
892.20	214.97
892.50	214.96
892.81	214.92
893.12	214.94
893.42	214.89
893.73	214.87
894.04	214.85
894.34	214.87
894.65	214.84
894.95	214.82
895.26	214.83
895.57	214.89
895.87	214.70
896.18	214.78
896.48	214.81
896.79	214.80
897.10	214.84
897.40	214.84
897.71	214.88
898.01	214.87
898.32	214.92
898.63	214.92
898.93	214.92
899.24	214.98
899.54	214.97
899.85	214.92
900.15	214.94
900.46	214.95
900.76	214.97
901.07	215.00
901.38	215.01
901.68	214.98
901.99	214.89
902.29	214.92
902.60	214.86
902.90	214.84
903.21	214.82
903.51	214.79
903.82	214.83
904.12	214.81
904.43	214.83
904.73	214.81
905.03	214.80
905.34	214.99
905.64	214.96
905.95	214.97
906.25	214.97
906.56	214.97
906.86	214.95
907.17	214.91
907.47	214.90
907.77	214.90
908.08	214.88
908.38	214.90
908.69	214.92
908.99	214.99
909.30	214.98
909.60	214.99
909.90	215.03
910.21	214.97
910.51	214.97
910.81	214.94
911.12	214.94
911.42	214.94
911.73	214.71
912.03	214.74
912.33	214.76
912.64	214.75
912.94	214.72
913.24	214.67
913.55	214.67
913.85	214.66
914.15	214.72
914.46	214.75
914.76	214.74
915.06	214.71
915.37	214.66
915.67	214.65
915.97	214.66
916.27	214.62
916.58	214.65
916.88	214.63
917.18	214.63
917.49	214.74
917.79	214.73
918.09	214.78
918.39	214.84
918.70	214.81
919.00	214.83
919.30	214.92
919.60	214.95
919.91	214.95
920.21	214.97
920.51	214.87
920.81	214.88
921.12	214.90
921.42	214.87
921.72	214.89
922.02	214.91
922.32	214.95
922.63	214.94
922.93	215.03
923.23	215.04
923.53	215.05
923.83	214.92
924.13	214.93
924.44	214.94
924.74	214.96
925.04	215.03
925.34	215.02
925.64	214.96
925.94	214.92
926.24	215.00
926.55	214.95
926.85	215.00
927.15	214.96
927.45	214.97
927.75	215.02
928.05	215.00
928.35	214.96
928.65	214.98
928.95	215.00
929.26	214.91
929.56	214.96
929.86	214.94
930.16	214.92
930.46	214.94
930.76	214.90
931.06	214.80
931.36	214.75
931.66	214.76
931.96	214.77
932.26	214.80
932.56	214.73
932.86	214.76
933.16	214.75
933.46	214.73
933.76	214.65
934.06	214.68
934.36	214.75
934.66	214.76
934.96	214.72
935.26	214.73
935.56	214.76
935.86	214.67
936.16	214.69
936.46	214.67
936.76	214.63
937.06	214.62
937.36	214.64
937.66	214.62
937.96	214.64
938.26	214.60
938.56	214.60
938.86	214.59
939.16	214.62
939.46	214.63
939.76	214.68
940.06	214.73
940.35	214.68
940.65	214.57
940.95	214.59
941.25	214.56
941.55	214.53
941.85	214.52
942.15	214.61
942.45	214.66
942.75	214.66
943.04	214.68
943.34	214.75
943.64	214.73
943.94	214.69
944.24	214.67
944.54	214.69
944.84	214.71
945.13	214.72
945.43	214.69
945.73	214.68
946.03	214.66
946.33	214.64
946.62	214.66
946.92	214.65
947.22	214.66
947.52	214.67
947.82	214.68
948.11	214.63
948.41	214.57
948.71	214.47
949.01	214.48
949.31	214.48
949.60	214.43
949.90	214.45
950.20	214.47
950.50	214.46
950.79	214.44
951.09	214.43
951.39	214.39
951.69	214.38
951.98	214.42
952.28	214.43
952.58	214.41
952.87	214.38
953.17	214.43
953.47	214.38
953.76	214.40
954.06	214.40
954.36	214.38
954.66	214.40
954.95	214.48
955.25	214.52
955.55	214.50
955.84	214.50
956.14	214.51
956.44	214.50
956.73	214.49
957.03	214.48
957.32	214.47
957.62	214.48
957.92	214.51
958.21	214.52
958.51	214.75
958.81	214.79
959.10	214.80
959.40	214.82
959.69	214.86
959.99	214.89
960.29	214.92
960.58	214.92
960.88	215.00
961.17	214.98
961.47	214.99
961.76	215.03
962.06	215.05
962.36	215.02
962.65	215.03
962.95	215.05
963.24	215.06
963.54	215.08
963.83	215.11
964.13	215.10
964.42	214.98
964.72	214.81
965.01	214.82
965.31	214.82
965.60	214.77
965.90	214.90
966.19	214.83
966.49	214.83
966.78	214.84
967.08	214.80
967.37	214.80
967.67	214.77
967.96	214.75
968.26	214.76
968.55	214.81
968.85	214.84
969.14	214.84
969.43	214.84
969.73	214.82
970.02	214.79
970.32	214.76
970.61	214.77
970.91	214.71
971.20	214.69
971.49	214.69
971.79	214.71
972.08	214.54
972.38	214.58
972.67	214.57
972.96	214.56
973.26	214.53
973.55	214.57
973.85	214.54
974.14	214.52
974.43	214.53
974.73	214.49
975.02	214.43
975.31	214.44
975.61	214.43
975.90	214.40
976.19	214.41
976.49	214.45
976.78	214.49
977.07	214.49
977.37	214.51
977.66	214.52
977.95	214.48
978.24	214.49
978.54	214.51
978.83	214.49
979.12	214.51
979.42	214.53
979.71	214.49
980.00	214.48
980.29	214.49
980.59	214.46
980.88	214.46
981.17	214.45
981.46	214.43
981.76	214.43
982.05	214.49
982.34	214.50
982.63	214.48
982.93	214.46
983.22	214.54
983.51	214.51
983.80	214.54
984.09	214.60
984.39	214.60
984.68	214.59
984.97	214.56
985.26	214.55
985.55	214.55
985.85	214.51
986.14	214.55
986.43	214.59
986.72	214.57
987.01	214.50
987.30	214.53
987.59	214.52
987.89	214.54
988.18	214.49
988.47	214.51
988.76	214.49
989.05	214.50
989.34	214.44
989.63	214.51
989.92	214.48
990.22	214.45
990.51	214.42
990.80	214.42
991.09	214.46
991.38	214.48
991.67	214.46
991.96	214.47
992.25	214.46
992.54	214.42
992.83	214.45
993.12	214.50
993.41	214.52
993.70	214.59
993.99	214.59
994.28	214.62
994.58	214.62
994.87	214.61
995.16	214.60
995.45	214.56
995.74	214.49
996.03	214.53
996.32	214.56
996.61	214.61
996.90	214.58
997.19	214.58
997.48	214.53
997.77	214.47
998.06	214.47
998.34	214.46
998.63	214.44
998.92	214.44
999.21	214.46
999.50	214.44
999.79	214.38
1000.08	214.42
1000.37	214.41
1000.66	214.39
1000.95	214.43
1001.24	214.44
1001.53	214.49
1001.82	214.50
1002.11	214.46
1002.40	214.46
1002.68	214.52
1002.97	214.67
1003.26	214.66
1003.55	214.65
1003.84	214.71
1004.13	214.80
1004.42	214.80
1004.71	214.84
1004.99	214.80
1005.28	214.87
1005.57	214.88
1005.86	214.85
1006.15	214.80
1006.44	214.76
1006.72	214.79
1007.01	214.76
1007.30	214.76
1007.59	214.74
1007.88	214.74
1008.17	214.70
1008.45	214.66
1008.74	214.60
1009.03	214.52
1009.32	214.50
1009.60	214.50
1009.89	214.48
1010.18	214.36
1010.47	214.35
1010.76	214.32
1011.04	214.35
1011.33	214.34
1011.62	214.35
1011.91	214.36
1012.19	214.39
1012.48	214.40
1012.77	214.39
1013.05	214.50
1013.34	214.50
1013.63	214.51
1013.92	214.53
1014.20	214.55
1014.49	214.59
1014.78	214.58
1015.06	214.49
1015.35	214.51
1015.64	214.55
1015.92	214.56
1016.21	214.59
1016.50	214.62
1016.78	214.65
1017.07	214.64
1017.36	214.58
1017.64	214.54
1017.93	214.56
1018.22	214.55
1018.50	214.57
1018.79	214.55
1019.08	214.45
1019.36	214.45
1019.65	214.41
1019.93	214.45
1020.22	214.46
1020.51	214.54
1020.79	214.52
1021.08	214.61
1021.36	214.25
1021.65	214.39
1021.94	214.38
1022.22	214.45
1022.51	214.30
1022.79	215.14
1023.08	214.37
1023.36	216.97
1023.65	213.86
>>>>>End Processed Spectral Data<<<<<
