SpectraSuite Data File
++++++++++++++++++++++++++++++++++++
Date: Tue Jan 29 16:11:43 EST 2013
User: group
Dark Spectrum Present: No
Reference Spectrum Present: No
Number of Sampled Component Spectra: 1
Spectrometers: USB2E7196
Integration Time (usec): 65000 (USB2E7196)
Spectra Averaged: 100 (USB2E7196)
Boxcar Smoothing: 10 (USB2E7196)
Correct for Electrical Dark: No (USB2E7196)
Strobe/Lamp Enabled: No (USB2E7196)
Correct for Detector Non-linearity: No (USB2E7196)
Correct for Stray Light: No (USB2E7196)
Number of Pixels in Processed Spectrum: 2048
>>>>>Begin Processed Spectral Data<<<<<
339.09	0.00
339.48	202.39
339.86	204.78
340.24	205.69
340.63	207.66
341.01	212.02
341.39	209.61
341.78	211.70
342.16	212.56
342.54	213.02
342.93	202.04
343.31	212.23
343.69	212.79
344.07	213.21
344.46	213.61
344.84	213.98
345.22	214.12
345.60	214.41
345.99	214.58
346.37	214.69
346.75	214.81
347.13	214.86
347.52	214.93
347.90	214.99
348.28	214.99
348.66	215.07
349.05	215.01
349.43	215.04
349.81	215.09
350.19	215.14
350.57	215.21
350.96	215.31
351.34	215.42
351.72	215.50
352.10	215.60
352.48	215.71
352.87	215.71
353.25	215.79
353.63	215.83
354.01	215.85
354.39	215.94
354.77	215.97
355.15	216.06
355.54	216.11
355.92	216.14
356.30	216.21
356.68	216.42
357.06	216.46
357.44	216.48
357.82	216.53
358.20	216.61
358.58	216.66
358.97	216.70
359.35	216.80
359.73	216.89
360.11	216.95
360.49	217.01
360.87	217.07
361.25	217.10
361.63	217.21
362.01	217.30
362.39	217.32
362.77	217.40
363.15	217.43
363.53	217.47
363.91	217.50
364.29	217.54
364.67	217.35
365.05	217.44
365.43	217.51
365.81	217.54
366.19	217.66
366.57	217.75
366.95	217.77
367.33	217.74
367.71	217.73
368.09	217.79
368.47	217.77
368.85	217.80
369.23	217.84
369.61	217.77
369.99	217.83
370.37	217.87
370.75	217.94
371.13	217.91
371.51	217.87
371.89	217.88
372.27	217.89
372.65	217.90
373.03	217.84
373.41	217.81
373.78	217.79
374.16	217.67
374.54	217.59
374.92	217.54
375.30	217.50
375.68	217.44
376.06	217.40
376.44	217.35
376.82	217.33
377.19	217.29
377.57	217.23
377.95	217.12
378.33	217.08
378.71	216.89
379.09	216.87
379.47	216.87
379.84	216.82
380.22	216.73
380.60	216.63
380.98	216.60
381.36	216.57
381.73	216.47
382.11	216.47
382.49	216.43
382.87	216.36
383.25	216.32
383.62	216.51
384.00	216.45
384.38	216.42
384.76	216.41
385.13	216.43
385.51	216.40
385.89	216.34
386.27	216.30
386.64	216.36
387.02	216.32
387.40	216.25
387.78	216.24
388.15	216.22
388.53	216.20
388.91	216.18
389.29	216.14
389.66	216.18
390.04	216.12
390.42	216.15
390.79	216.16
391.17	216.15
391.55	215.93
391.92	215.92
392.30	215.95
392.68	215.89
393.05	215.88
393.43	215.88
393.81	215.90
394.18	215.85
394.56	215.81
394.94	215.83
395.31	215.85
395.69	215.91
396.06	215.95
396.44	215.97
396.82	215.97
397.19	216.07
397.57	216.05
397.95	216.12
398.32	216.08
398.70	216.11
399.07	216.18
399.45	216.21
399.82	216.23
400.20	216.27
400.58	216.33
400.95	216.32
401.33	216.45
401.70	216.62
402.08	216.72
402.45	216.81
402.83	216.97
403.20	217.04
403.58	217.10
403.95	217.27
404.33	217.39
404.71	217.53
405.08	217.80
405.46	217.99
405.83	218.14
406.21	218.35
406.58	218.61
406.96	218.80
407.33	219.04
407.70	219.32
408.08	219.71
408.45	220.05
408.83	220.43
409.20	220.74
409.58	221.02
409.95	221.49
410.33	221.96
410.70	222.35
411.08	222.92
411.45	223.49
411.82	224.04
412.20	224.76
412.57	225.55
412.95	226.09
413.32	226.87
413.69	227.68
414.07	228.54
414.44	229.45
414.82	230.44
415.19	231.57
415.56	232.74
415.94	233.89
416.31	235.25
416.68	236.56
417.06	238.07
417.43	239.60
417.81	241.25
418.18	242.97
418.55	244.87
418.93	246.83
419.30	248.85
419.67	250.98
420.04	253.15
420.42	255.49
420.79	258.21
421.16	260.90
421.54	263.73
421.91	266.62
422.28	269.62
422.66	272.82
423.03	275.99
423.40	279.25
423.77	282.70
424.15	286.28
424.52	290.02
424.89	294.07
425.26	297.99
425.64	301.78
426.01	305.91
426.38	310.19
426.75	314.56
427.13	319.14
427.50	323.92
427.87	328.92
428.24	333.95
428.61	338.76
428.99	344.12
429.36	349.91
429.73	355.57
430.10	361.26
430.47	367.08
430.85	373.15
431.22	379.60
431.59	386.48
431.96	393.06
432.33	400.31
432.70	407.33
433.08	415.54
433.45	423.30
433.82	431.04
434.19	439.64
434.56	448.05
434.93	456.11
435.30	464.12
435.68	472.92
436.05	481.58
436.42	490.16
436.79	498.01
437.16	506.47
437.53	515.53
437.90	524.39
438.27	533.05
438.64	542.02
439.01	550.29
439.38	557.67
439.75	564.69
440.13	572.79
440.50	580.41
440.87	586.61
441.24	593.00
441.61	600.10
441.98	605.24
442.35	611.36
442.72	617.45
443.09	623.24
443.46	626.84
443.83	629.26
444.20	631.41
444.57	634.40
444.94	635.82
445.31	637.08
445.68	638.31
446.05	638.92
446.42	638.09
446.79	637.15
447.16	635.98
447.53	635.19
447.90	632.04
448.27	628.91
448.64	624.40
449.01	621.18
449.37	615.48
449.74	610.03
450.11	603.35
450.48	596.21
450.85	589.04
451.22	582.85
451.59	576.89
451.96	571.20
452.33	563.63
452.70	556.74
453.07	548.61
453.43	540.35
453.80	532.34
454.17	524.60
454.54	517.34
454.91	509.47
455.28	501.86
455.65	494.68
456.02	487.43
456.38	481.35
456.75	473.78
457.12	467.48
457.49	461.23
457.86	455.31
458.23	450.16
458.59	444.53
458.96	438.72
459.33	433.64
459.70	428.53
460.07	424.45
460.43	419.74
460.80	415.34
461.17	411.51
461.54	407.44
461.91	403.57
462.27	399.58
462.64	396.34
463.01	392.61
463.38	389.04
463.74	385.44
464.11	382.30
464.48	379.58
464.85	376.54
465.21	374.16
465.58	371.60
465.95	368.52
466.32	365.93
466.68	363.39
467.05	360.88
467.42	358.41
467.78	355.83
468.15	353.41
468.52	351.59
468.88	349.19
469.25	347.08
469.62	345.38
469.98	343.56
470.35	341.86
470.72	340.24
471.08	338.52
471.45	337.12
471.82	335.65
472.18	334.06
472.55	332.93
472.92	331.68
473.28	330.55
473.65	329.47
474.02	328.42
474.38	327.64
474.75	326.96
475.11	326.17
475.48	325.60
475.85	325.13
476.21	324.65
476.58	324.40
476.94	324.20
477.31	323.93
477.67	323.69
478.04	323.53
478.41	323.56
478.77	323.77
479.14	323.76
479.50	323.95
479.87	324.26
480.23	324.62
480.60	324.85
480.96	325.15
481.33	325.76
481.69	326.37
482.06	326.91
482.42	327.40
482.79	328.03
483.15	328.88
483.52	329.89
483.88	330.79
484.25	331.65
484.61	332.65
484.98	333.67
485.34	334.97
485.71	336.38
486.07	337.85
486.44	339.15
486.80	340.76
487.17	342.43
487.53	344.27
487.90	346.08
488.26	348.10
488.62	350.20
488.99	352.22
489.35	354.38
489.72	356.75
490.08	359.29
490.44	361.87
490.81	364.57
491.17	367.26
491.54	370.23
491.90	373.29
492.26	376.55
492.63	380.03
492.99	383.49
493.36	387.17
493.72	390.98
494.08	394.99
494.45	399.16
494.81	403.50
495.17	407.88
495.54	412.64
495.90	417.47
496.26	422.43
496.63	427.63
496.99	432.97
497.35	438.55
497.72	444.36
498.08	450.30
498.44	456.36
498.80	462.77
499.17	469.20
499.53	475.86
499.89	482.73
500.26	489.67
500.62	496.76
500.98	504.06
501.34	511.52
501.71	519.31
502.07	527.10
502.43	535.07
502.79	543.17
503.16	551.45
503.52	559.96
503.88	568.70
504.24	577.61
504.60	586.62
504.97	595.73
505.33	604.88
505.69	614.66
506.05	624.41
506.41	634.19
506.78	644.22
507.14	654.44
507.50	664.81
507.86	675.42
508.22	686.18
508.59	696.79
508.95	707.82
509.31	718.92
509.67	730.30
510.03	741.64
510.39	753.31
510.75	765.07
511.12	776.86
511.48	788.79
511.84	800.97
512.20	813.11
512.56	825.67
512.92	838.39
513.28	850.95
513.64	863.61
514.00	876.37
514.37	889.22
514.73	902.11
515.09	914.99
515.45	927.71
515.81	940.47
516.17	953.69
516.53	966.67
516.89	979.67
517.25	992.65
517.61	1006.03
517.97	1019.18
518.33	1032.17
518.69	1045.56
519.05	1059.03
519.41	1072.40
519.77	1086.17
520.13	1099.25
520.49	1112.21
520.85	1125.27
521.21	1138.39
521.57	1151.82
521.93	1164.67
522.29	1178.32
522.65	1191.67
523.01	1204.97
523.37	1217.90
523.73	1230.95
524.09	1243.81
524.45	1256.94
524.81	1270.10
525.17	1283.16
525.53	1296.16
525.89	1309.20
526.25	1321.98
526.61	1334.49
526.97	1347.36
527.33	1359.99
527.68	1373.18
528.04	1386.40
528.40	1399.26
528.76	1412.34
529.12	1424.88
529.48	1437.83
529.84	1449.65
530.20	1462.09
530.56	1474.48
530.91	1487.49
531.27	1500.08
531.63	1512.65
531.99	1525.05
532.35	1537.04
532.71	1549.08
533.07	1561.62
533.42	1573.55
533.78	1585.37
534.14	1597.15
534.50	1608.08
534.86	1619.34
535.21	1629.93
535.57	1641.02
535.93	1652.02
536.29	1662.74
536.65	1673.89
537.00	1684.58
537.36	1695.70
537.72	1706.34
538.08	1717.37
538.44	1728.07
538.79	1738.70
539.15	1749.24
539.51	1759.82
539.87	1770.89
540.22	1781.45
540.58	1792.03
540.94	1802.52
541.29	1812.60
541.65	1822.21
542.01	1832.44
542.37	1842.25
542.72	1852.17
543.08	1861.56
543.44	1871.59
543.79	1880.70
544.15	1889.81
544.51	1899.63
544.87	1909.28
545.22	1918.26
545.58	1926.82
545.94	1935.39
546.29	1943.68
546.65	1951.80
547.01	1959.61
547.36	1967.01
547.72	1974.49
548.07	1981.88
548.43	1989.38
548.79	1996.90
549.14	2004.74
549.50	2012.83
549.86	2020.34
550.21	2027.48
550.57	2035.01
550.92	2041.71
551.28	2049.05
551.64	2056.02
551.99	2063.24
552.35	2070.11
552.70	2076.81
553.06	2083.30
553.41	2089.42
553.77	2095.78
554.13	2102.01
554.48	2108.96
554.84	2115.88
555.19	2122.06
555.55	2128.32
555.90	2134.51
556.26	2141.08
556.61	2146.89
556.97	2151.73
557.32	2157.49
557.68	2163.75
558.03	2169.42
558.39	2174.56
558.74	2180.35
559.10	2186.00
559.45	2191.53
559.81	2196.93
560.16	2202.50
560.52	2208.50
560.87	2214.84
561.23	2220.76
561.58	2227.35
561.94	2232.53
562.29	2237.44
562.64	2243.66
563.00	2249.31
563.35	2254.80
563.71	2260.71
564.06	2266.47
564.42	2272.27
564.77	2277.41
565.12	2282.62
565.48	2287.77
565.83	2293.36
566.19	2298.79
566.54	2304.12
566.89	2308.68
567.25	2313.49
567.60	2319.28
567.96	2324.30
568.31	2328.90
568.66	2333.16
569.02	2337.06
569.37	2340.55
569.72	2344.77
570.08	2348.39
570.43	2351.45
570.78	2354.61
571.14	2357.20
571.49	2360.38
571.84	2364.06
572.20	2367.00
572.55	2370.16
572.90	2372.66
573.26	2375.69
573.61	2378.28
573.96	2380.59
574.31	2382.60
574.67	2384.48
575.02	2385.33
575.37	2386.85
575.72	2387.71
576.08	2389.45
576.43	2389.77
576.78	2390.77
577.13	2392.57
577.49	2393.76
577.84	2395.21
578.19	2396.78
578.54	2397.55
578.90	2398.55
579.25	2398.60
579.60	2398.70
579.95	2398.06
580.30	2398.32
580.66	2397.60
581.01	2396.05
581.36	2393.98
581.71	2392.96
582.06	2392.10
582.42	2391.48
582.77	2389.54
583.12	2387.99
583.47	2386.75
583.82	2386.30
584.17	2385.21
584.53	2383.20
584.88	2381.26
585.23	2379.38
585.58	2377.32
585.93	2375.40
586.28	2373.43
586.63	2371.29
586.98	2369.34
587.34	2367.65
587.69	2365.40
588.04	2363.73
588.39	2362.48
588.74	2360.10
589.09	2357.64
589.44	2354.68
589.79	2352.24
590.14	2350.55
590.49	2347.91
590.84	2344.23
591.19	2341.56
591.54	2338.45
591.89	2334.59
592.25	2331.59
592.60	2327.49
592.95	2323.54
593.30	2319.35
593.65	2314.96
594.00	2310.63
594.35	2307.79
594.70	2303.19
595.05	2298.68
595.40	2293.32
595.75	2287.97
596.10	2284.59
596.45	2279.70
596.80	2275.19
597.15	2270.07
597.50	2264.38
597.85	2259.58
598.19	2254.46
598.54	2248.70
598.89	2243.71
599.24	2239.33
599.59	2233.34
599.94	2227.90
600.29	2222.23
600.64	2216.70
600.99	2210.16
601.34	2204.81
601.69	2197.86
602.04	2191.65
602.39	2185.18
602.74	2179.31
603.08	2173.64
603.43	2167.08
603.78	2160.39
604.13	2153.41
604.48	2146.27
604.83	2140.01
605.18	2133.76
605.53	2126.82
605.87	2119.75
606.22	2112.96
606.57	2105.01
606.92	2097.22
607.27	2090.35
607.62	2083.79
607.96	2076.79
608.31	2070.40
608.66	2062.80
609.01	2055.24
609.36	2048.16
609.70	2040.54
610.05	2032.86
610.40	2024.70
610.75	2016.48
611.10	2008.98
611.44	2000.36
611.79	1991.75
612.14	1981.83
612.49	1971.49
612.83	1962.46
613.18	1953.32
613.53	1944.02
613.88	1934.59
614.22	1926.02
614.57	1916.10
614.92	1905.52
615.27	1895.48
615.61	1885.42
615.96	1875.78
616.31	1866.25
616.65	1857.10
617.00	1847.37
617.35	1837.70
617.70	1827.93
618.04	1817.98
618.39	1807.60
618.74	1797.85
619.08	1788.30
619.43	1779.81
619.78	1771.63
620.12	1762.94
620.47	1753.24
620.82	1743.07
621.16	1733.33
621.51	1723.34
621.85	1713.51
622.20	1703.04
622.55	1692.45
622.89	1682.67
623.24	1672.98
623.59	1663.28
623.93	1653.02
624.28	1643.27
624.62	1633.07
624.97	1622.94
625.32	1613.20
625.66	1604.40
626.01	1595.57
626.35	1586.09
626.70	1575.92
627.04	1565.68
627.39	1555.61
627.73	1546.42
628.08	1537.28
628.43	1527.58
628.77	1518.35
629.12	1509.57
629.46	1501.65
629.81	1493.28
630.15	1483.71
630.50	1473.86
630.84	1463.40
631.19	1453.58
631.53	1444.27
631.88	1434.18
632.22	1424.08
632.57	1414.70
632.91	1404.60
633.26	1394.85
633.60	1385.39
633.95	1376.09
634.29	1366.70
634.64	1357.28
634.98	1347.40
635.32	1338.23
635.67	1329.78
636.01	1320.59
636.36	1310.76
636.70	1301.37
637.05	1291.99
637.39	1283.01
637.73	1274.45
638.08	1266.90
638.42	1258.59
638.77	1249.83
639.11	1241.73
639.45	1234.01
639.80	1225.47
640.14	1216.89
640.49	1207.94
640.83	1199.13
641.17	1191.13
641.52	1183.02
641.86	1174.46
642.20	1166.63
642.55	1158.03
642.89	1149.16
643.23	1140.53
643.58	1132.49
643.92	1123.45
644.26	1114.82
644.61	1106.44
644.95	1097.72
645.29	1088.44
645.64	1079.29
645.98	1070.81
646.32	1062.81
646.66	1054.29
647.01	1045.92
647.35	1037.73
647.69	1029.48
648.04	1021.16
648.38	1012.11
648.72	1003.30
649.06	995.01
649.41	986.86
649.75	978.99
650.09	971.31
650.43	963.26
650.78	955.00
651.12	947.47
651.46	940.16
651.80	932.96
652.14	925.60
652.49	918.16
652.83	910.90
653.17	903.25
653.51	895.65
653.85	888.38
654.20	881.17
654.54	873.64
654.88	866.54
655.22	859.44
655.56	852.59
655.90	846.00
656.25	839.35
656.59	832.42
656.93	825.42
657.27	818.34
657.61	811.56
657.95	805.61
658.29	799.71
658.64	793.59
658.98	787.21
659.32	780.76
659.66	774.59
660.00	768.32
660.34	762.47
660.68	756.46
661.02	750.30
661.36	744.54
661.70	738.92
662.05	733.25
662.39	727.85
662.73	722.54
663.07	717.24
663.41	711.73
663.75	706.17
664.09	700.66
664.43	695.29
664.77	690.04
665.11	684.18
665.45	678.28
665.79	672.52
666.13	666.83
666.47	661.42
666.81	656.02
667.15	650.84
667.49	645.63
667.83	640.40
668.17	635.20
668.51	630.08
668.85	625.17
669.19	620.36
669.53	615.43
669.87	610.39
670.21	605.58
670.55	600.89
670.89	596.55
671.23	592.28
671.57	587.98
671.91	583.74
672.25	579.71
672.58	575.67
672.92	571.66
673.26	567.81
673.60	564.08
673.94	560.39
674.28	556.79
674.62	553.09
674.96	549.44
675.30	546.02
675.64	542.42
675.97	538.88
676.31	535.32
676.65	531.78
676.99	528.41
677.33	524.65
677.67	521.11
678.01	517.25
678.34	513.60
678.68	510.14
679.02	506.52
679.36	502.89
679.70	499.34
680.04	495.88
680.37	492.54
680.71	489.19
681.05	486.02
681.39	482.82
681.73	479.71
682.06	476.71
682.40	473.65
682.74	470.49
683.08	467.35
683.42	464.22
683.75	461.27
684.09	458.29
684.43	455.54
684.77	452.62
685.10	449.89
685.44	447.07
685.78	444.18
686.12	441.50
686.45	438.83
686.79	436.15
687.13	433.69
687.46	431.08
687.80	428.45
688.14	425.72
688.48	423.15
688.81	420.56
689.15	418.03
689.49	415.47
689.82	413.05
690.16	410.54
690.50	408.15
690.83	405.70
691.17	403.21
691.51	400.85
691.84	398.66
692.18	396.48
692.52	394.27
692.85	392.20
693.19	390.10
693.52	387.98
693.86	385.86
694.20	383.71
694.53	381.62
694.87	379.48
695.21	377.36
695.54	375.27
695.88	373.15
696.21	371.00
696.55	368.95
696.88	366.93
697.22	364.99
697.56	363.18
697.89	361.37
698.23	359.67
698.56	357.90
698.90	356.16
699.23	354.24
699.57	352.45
699.90	350.63
700.24	348.85
700.58	347.17
700.91	345.57
701.25	344.03
701.58	342.51
701.92	340.94
702.25	339.38
702.59	337.76
702.92	336.31
703.26	334.82
703.59	333.42
703.93	332.19
704.26	330.83
704.60	329.32
704.93	327.87
705.26	326.41
705.60	325.01
705.93	323.56
706.27	322.30
706.60	321.07
706.94	319.87
707.27	318.53
707.61	317.21
707.94	315.88
708.27	314.41
708.61	312.95
708.94	311.60
709.28	310.34
709.61	309.11
709.94	307.87
710.28	306.67
710.61	305.48
710.95	304.08
711.28	302.99
711.61	301.82
711.95	300.66
712.28	299.50
712.61	298.28
712.95	297.24
713.28	296.24
713.61	295.14
713.95	294.02
714.28	293.04
714.61	292.01
714.95	291.02
715.28	290.03
715.61	289.04
715.95	288.18
716.28	287.23
716.61	286.33
716.95	285.39
717.28	284.49
717.61	283.56
717.94	282.71
718.28	281.73
718.61	280.90
718.94	280.07
719.27	279.29
719.61	278.49
719.94	277.62
720.27	276.68
720.60	275.86
720.94	275.04
721.27	274.28
721.60	273.59
721.93	272.89
722.27	272.28
722.60	271.65
722.93	270.94
723.26	270.37
723.59	269.68
723.93	269.07
724.26	268.41
724.59	267.80
724.92	267.23
725.25	266.74
725.59	266.19
725.92	265.69
726.25	265.09
726.58	264.55
726.91	263.99
727.24	263.46
727.57	262.88
727.91	262.32
728.24	261.81
728.57	261.20
728.90	260.64
729.23	260.01
729.56	259.61
729.89	259.10
730.22	258.50
730.55	257.99
730.89	257.47
731.22	256.95
731.55	256.44
731.88	255.90
732.21	255.33
732.54	254.79
732.87	254.25
733.20	253.77
733.53	253.31
733.86	252.90
734.19	252.44
734.52	252.07
734.85	251.78
735.18	251.31
735.51	250.94
735.84	250.51
736.17	250.13
736.50	249.58
736.83	249.41
737.16	249.09
737.49	248.75
737.82	248.33
738.15	248.00
738.48	247.64
738.81	247.27
739.14	246.84
739.47	246.49
739.80	246.15
740.13	245.82
740.46	245.43
740.79	245.02
741.12	244.71
741.45	244.35
741.78	243.96
742.11	243.69
742.44	243.34
742.77	243.07
743.10	242.72
743.43	242.41
743.75	241.88
744.08	241.80
744.41	241.40
744.74	241.09
745.07	240.71
745.40	240.41
745.73	240.20
746.06	239.92
746.39	239.64
746.71	239.29
747.04	238.98
747.37	238.71
747.70	238.46
748.03	238.13
748.36	237.84
748.68	237.55
749.01	237.19
749.34	236.92
749.67	236.59
750.00	236.35
750.33	236.23
750.65	235.97
750.98	235.44
751.31	235.23
751.64	235.00
751.97	234.88
752.29	234.62
752.62	234.26
752.95	234.04
753.28	233.73
753.60	233.50
753.93	233.32
754.26	233.09
754.59	232.81
754.91	232.59
755.24	232.34
755.57	232.09
755.90	231.90
756.22	231.64
756.55	231.45
756.88	231.20
757.20	230.87
757.53	230.61
757.86	230.40
758.19	230.19
758.51	229.99
758.84	229.68
759.17	229.48
759.49	229.35
759.82	229.27
760.15	229.14
760.47	228.98
760.80	228.72
761.13	228.55
761.45	228.36
761.78	228.17
762.11	228.00
762.43	227.81
762.76	227.62
763.08	227.49
763.41	227.33
763.74	227.22
764.06	227.08
764.39	226.95
764.71	226.81
765.04	226.63
765.37	226.49
765.69	226.35
766.02	226.24
766.34	226.09
766.67	225.86
767.00	225.77
767.32	225.72
767.65	225.74
767.97	225.62
768.30	225.50
768.62	225.41
768.95	225.28
769.27	225.15
769.60	225.07
769.92	224.93
770.25	224.80
770.57	224.63
770.90	224.52
771.22	224.38
771.55	224.29
771.87	224.23
772.20	224.11
772.52	224.21
772.85	224.34
773.17	224.23
773.50	224.10
773.82	224.00
774.15	223.84
774.47	223.60
774.80	223.51
775.12	223.45
775.45	223.35
775.77	223.28
776.09	223.25
776.42	223.17
776.74	223.16
777.07	223.04
777.39	222.99
777.72	222.88
778.04	222.81
778.36	222.69
778.69	222.59
779.01	222.53
779.33	222.25
779.66	221.89
779.98	221.82
780.31	221.79
780.63	221.77
780.95	221.72
781.28	221.66
781.60	221.56
781.92	221.48
782.25	221.43
782.57	221.36
782.89	221.24
783.22	221.13
783.54	221.03
783.86	221.04
784.19	220.95
784.51	220.95
784.83	220.88
785.16	220.79
785.48	220.74
785.80	220.71
786.12	220.67
786.45	220.62
786.77	220.54
787.09	220.45
787.42	220.30
787.74	220.23
788.06	220.19
788.38	220.13
788.71	220.05
789.03	219.98
789.35	219.95
789.67	219.88
789.99	219.86
790.32	219.79
790.64	219.74
790.96	219.84
791.28	219.73
791.61	219.68
791.93	219.67
792.25	219.59
792.57	219.66
792.89	219.56
793.21	219.54
793.54	219.49
793.86	219.40
794.18	219.41
794.50	219.34
794.82	219.28
795.14	219.28
795.47	219.27
795.79	219.24
796.11	219.14
796.43	219.11
796.75	219.03
797.07	218.97
797.39	218.92
797.71	218.76
798.04	218.72
798.36	218.70
798.68	218.69
799.00	218.69
799.32	218.53
799.64	218.58
799.96	218.56
800.28	218.59
800.60	218.56
800.92	218.54
801.24	218.52
801.56	218.53
801.89	218.48
802.21	218.44
802.53	218.39
802.85	218.44
803.17	218.50
803.49	218.46
803.81	218.45
804.13	218.35
804.45	218.29
804.77	218.28
805.09	218.21
805.41	218.16
805.73	218.12
806.05	218.05
806.37	217.99
806.69	217.95
807.01	217.89
807.33	217.89
807.65	217.77
807.97	217.81
808.28	217.76
808.60	217.74
808.92	217.69
809.24	217.79
809.56	217.72
809.88	217.64
810.20	217.60
810.52	217.58
810.84	217.58
811.16	217.54
811.48	217.50
811.80	217.56
812.12	217.50
812.43	217.51
812.75	217.50
813.07	217.42
813.39	217.38
813.71	217.32
814.03	217.31
814.35	217.30
814.67	217.21
814.98	217.13
815.30	217.09
815.62	217.03
815.94	216.87
816.26	216.84
816.58	216.78
816.89	216.82
817.21	216.76
817.53	216.73
817.85	216.70
818.17	216.68
818.48	216.58
818.80	216.63
819.12	216.51
819.44	216.46
819.76	216.41
820.07	216.40
820.39	216.38
820.71	216.35
821.03	216.32
821.34	216.25
821.66	216.28
821.98	216.31
822.30	216.32
822.61	216.43
822.93	216.35
823.25	216.34
823.57	216.29
823.88	216.32
824.20	216.34
824.52	216.36
824.83	216.34
825.15	216.34
825.47	216.31
825.79	216.35
826.10	216.36
826.42	216.36
826.74	216.38
827.05	216.38
827.37	216.39
827.69	216.38
828.00	216.40
828.32	216.37
828.64	216.32
828.95	216.39
829.27	216.33
829.58	216.32
829.90	216.33
830.22	216.31
830.53	216.26
830.85	216.21
831.17	216.15
831.48	216.16
831.80	216.11
832.11	216.08
832.43	216.02
832.75	216.03
833.06	216.14
833.38	216.06
833.69	216.04
834.01	215.99
834.32	215.96
834.64	215.92
834.96	215.94
835.27	215.92
835.59	215.85
835.90	215.79
836.22	215.80
836.53	215.77
836.85	215.75
837.16	215.96
837.48	215.96
837.79	216.01
838.11	216.01
838.42	216.03
838.74	216.03
839.05	216.01
839.37	215.96
839.68	215.80
840.00	215.80
840.31	215.83
840.63	215.85
840.94	215.81
841.26	215.79
841.57	215.75
841.88	215.76
842.20	215.70
842.51	215.68
842.83	215.69
843.14	215.85
843.46	215.86
843.77	215.75
844.08	215.76
844.40	215.72
844.71	215.67
845.03	215.65
845.34	215.63
845.65	215.62
845.97	215.62
846.28	215.68
846.60	215.70
846.91	215.66
847.22	215.60
847.54	215.67
847.85	215.67
848.16	215.67
848.48	215.63
848.79	215.76
849.10	215.78
849.42	215.80
849.73	215.63
850.04	215.58
850.36	215.46
850.67	215.45
850.98	215.42
851.30	215.42
851.61	215.43
851.92	215.44
852.23	215.51
852.55	215.52
852.86	215.51
853.17	215.51
853.49	215.57
853.80	215.64
854.11	215.65
854.42	215.68
854.74	215.68
855.05	215.68
855.36	215.56
855.67	215.57
855.99	215.52
856.30	215.76
856.61	215.78
856.92	215.82
857.23	215.81
857.55	215.81
857.86	215.82
858.17	215.82
858.48	215.77
858.79	215.73
859.11	215.75
859.42	215.72
859.73	215.71
860.04	215.69
860.35	215.63
860.66	215.58
860.98	215.60
861.29	215.61
861.60	215.64
861.91	215.68
862.22	215.64
862.53	215.59
862.84	215.32
863.16	215.37
863.47	215.32
863.78	215.33
864.09	215.35
864.40	215.35
864.71	215.40
865.02	215.41
865.33	215.39
865.64	215.37
865.95	215.38
866.27	215.49
866.58	215.46
866.89	215.47
867.20	215.44
867.51	215.37
867.82	215.35
868.13	215.40
868.44	215.34
868.75	215.39
869.06	215.42
869.37	215.46
869.68	215.40
869.99	215.43
870.30	215.41
870.61	215.44
870.92	215.40
871.23	215.34
871.54	215.37
871.85	215.40
872.16	215.43
872.47	215.40
872.78	215.29
873.09	215.29
873.40	215.30
873.71	215.35
874.02	215.39
874.33	215.37
874.64	215.30
874.95	215.33
875.26	215.29
875.56	215.30
875.87	215.27
876.18	215.27
876.49	215.45
876.80	215.46
877.11	215.42
877.42	215.43
877.73	215.44
878.04	215.43
878.35	215.44
878.66	215.42
878.96	215.40
879.27	215.36
879.58	215.35
879.89	215.30
880.20	215.33
880.51	215.30
880.82	215.28
881.12	215.32
881.43	215.29
881.74	215.25
882.05	215.22
882.36	215.25
882.67	215.25
882.97	215.04
883.28	214.99
883.59	214.98
883.90	215.01
884.21	215.02
884.51	215.00
884.82	214.94
885.13	214.95
885.44	214.95
885.74	214.98
886.05	214.97
886.36	214.97
886.67	214.86
886.98	215.01
887.28	215.03
887.59	215.02
887.90	214.99
888.20	214.99
888.51	215.00
888.82	214.96
889.13	214.97
889.43	215.13
889.74	215.14
890.05	215.15
890.35	215.12
890.66	215.09
890.97	215.10
891.28	215.09
891.58	215.07
891.89	215.06
892.20	215.04
892.50	215.04
892.81	215.07
893.12	215.10
893.42	214.97
893.73	214.97
894.04	214.95
894.34	215.01
894.65	215.01
894.95	214.99
895.26	215.04
895.57	215.10
895.87	214.90
896.18	214.89
896.48	214.87
896.79	214.91
897.10	214.94
897.40	214.96
897.71	214.98
898.01	214.97
898.32	215.00
898.63	214.99
898.93	215.00
899.24	214.98
899.54	215.00
899.85	214.96
900.15	214.96
900.46	214.95
900.76	214.96
901.07	214.97
901.38	214.98
901.68	214.95
901.99	214.89
902.29	214.91
902.60	214.93
902.90	214.94
903.21	214.91
903.51	214.91
903.82	214.90
904.12	214.88
904.43	214.90
904.73	214.91
905.03	214.95
905.34	215.13
905.64	215.12
905.95	215.11
906.25	215.14
906.56	215.16
906.86	215.15
907.17	215.08
907.47	215.07
907.77	215.05
908.08	214.99
908.38	215.06
908.69	215.07
908.99	215.12
909.30	215.13
909.60	215.15
909.90	215.15
910.21	215.09
910.51	215.05
910.81	215.06
911.12	215.04
911.42	215.03
911.73	214.82
912.03	214.84
912.33	214.84
912.64	214.79
912.94	214.74
913.24	214.70
913.55	214.73
913.85	214.74
914.15	214.77
914.46	214.87
914.76	214.78
915.06	214.76
915.37	214.70
915.67	214.67
915.97	214.65
916.27	214.60
916.58	214.67
916.88	214.69
917.18	214.67
917.49	214.83
917.79	214.81
918.09	214.82
918.39	214.89
918.70	214.89
919.00	214.91
919.30	215.02
919.60	215.01
919.91	214.99
920.21	215.00
920.51	214.97
920.81	214.94
921.12	214.99
921.42	215.01
921.72	215.01
922.02	215.00
922.32	215.03
922.63	215.03
922.93	215.07
923.23	215.08
923.53	215.07
923.83	214.91
924.13	214.93
924.44	214.96
924.74	214.95
925.04	214.98
925.34	215.01
925.64	214.91
925.94	214.91
926.24	215.02
926.55	214.99
926.85	215.00
927.15	214.97
927.45	214.97
927.75	214.97
928.05	214.96
928.35	214.99
928.65	215.00
928.95	215.01
929.26	214.93
929.56	214.95
929.86	214.97
930.16	214.98
930.46	214.96
930.76	214.95
931.06	214.88
931.36	214.84
931.66	214.88
931.96	214.89
932.26	214.90
932.56	214.80
932.86	214.82
933.16	214.83
933.46	214.82
933.76	214.78
934.06	214.82
934.36	214.93
934.66	214.92
934.96	214.89
935.26	214.91
935.56	214.93
935.86	214.89
936.16	214.87
936.46	214.87
936.76	214.87
937.06	214.83
937.36	214.82
937.66	214.81
937.96	214.79
938.26	214.76
938.56	214.77
938.86	214.80
939.16	214.88
939.46	214.90
939.76	214.93
940.06	214.91
940.35	214.85
940.65	214.74
940.95	214.76
941.25	214.73
941.55	214.71
941.85	214.71
942.15	214.77
942.45	214.80
942.75	214.80
943.04	214.80
943.34	214.87
943.64	214.87
943.94	214.82
944.24	214.83
944.54	214.86
944.84	214.85
945.13	214.83
945.43	214.76
945.73	214.74
946.03	214.70
946.33	214.69
946.62	214.68
946.92	214.66
947.22	214.67
947.52	214.69
947.82	214.70
948.11	214.67
948.41	214.61
948.71	214.56
949.01	214.53
949.31	214.52
949.60	214.48
949.90	214.51
950.20	214.54
950.50	214.51
950.79	214.46
951.09	214.48
951.39	214.47
951.69	214.43
951.98	214.46
952.28	214.46
952.58	214.46
952.87	214.48
953.17	214.51
953.47	214.48
953.76	214.48
954.06	214.42
954.36	214.40
954.66	214.42
954.95	214.49
955.25	214.51
955.55	214.54
955.84	214.50
956.14	214.51
956.44	214.50
956.73	214.51
957.03	214.53
957.32	214.55
957.62	214.52
957.92	214.59
958.21	214.57
958.51	214.83
958.81	214.88
959.10	214.92
959.40	214.92
959.69	214.93
959.99	214.94
960.29	215.00
960.58	214.98
960.88	215.05
961.17	215.02
961.47	215.05
961.76	215.01
962.06	215.08
962.36	215.04
962.65	215.06
962.95	215.07
963.24	215.06
963.54	215.04
963.83	215.07
964.13	215.04
964.42	215.01
964.72	214.84
965.01	214.84
965.31	214.82
965.60	214.76
965.90	214.95
966.19	214.90
966.49	214.88
966.78	214.90
967.08	214.86
967.37	214.87
967.67	214.85
967.96	214.90
968.26	214.87
968.55	214.92
968.85	214.90
969.14	214.88
969.43	214.86
969.73	214.87
970.02	214.85
970.32	214.85
970.61	214.83
970.91	214.77
971.20	214.74
971.49	214.72
971.79	214.76
972.08	214.57
972.38	214.60
972.67	214.62
972.96	214.66
973.26	214.61
973.55	214.69
973.85	214.66
974.14	214.62
974.43	214.66
974.73	214.61
975.02	214.60
975.31	214.61
975.61	214.63
975.90	214.59
976.19	214.57
976.49	214.61
976.78	214.63
977.07	214.62
977.37	214.63
977.66	214.63
977.95	214.60
978.24	214.63
978.54	214.68
978.83	214.65
979.12	214.63
979.42	214.62
979.71	214.56
980.00	214.54
980.29	214.57
980.59	214.52
980.88	214.56
981.17	214.55
981.46	214.56
981.76	214.56
982.05	214.63
982.34	214.64
982.63	214.63
982.93	214.62
983.22	214.66
983.51	214.67
983.80	214.72
984.09	214.74
984.39	214.70
984.68	214.67
984.97	214.66
985.26	214.63
985.55	214.65
985.85	214.64
986.14	214.66
986.43	214.66
986.72	214.63
987.01	214.57
987.30	214.59
987.59	214.59
987.89	214.60
988.18	214.53
988.47	214.55
988.76	214.52
989.05	214.52
989.34	214.48
989.63	214.51
989.92	214.47
990.22	214.48
990.51	214.49
990.80	214.47
991.09	214.50
991.38	214.53
991.67	214.52
991.96	214.52
992.25	214.51
992.54	214.47
992.83	214.48
993.12	214.50
993.41	214.52
993.70	214.58
993.99	214.60
994.28	214.60
994.58	214.60
994.87	214.55
995.16	214.53
995.45	214.52
995.74	214.47
996.03	214.49
996.32	214.51
996.61	214.53
996.90	214.52
997.19	214.52
997.48	214.55
997.77	214.54
998.06	214.52
998.34	214.53
998.63	214.56
998.92	214.57
999.21	214.61
999.50	214.63
999.79	214.56
1000.08	214.57
1000.37	214.62
1000.66	214.60
1000.95	214.70
1001.24	214.73
1001.53	214.78
1001.82	214.77
1002.11	214.74
1002.40	214.73
1002.68	214.80
1002.97	214.91
1003.26	214.85
1003.55	214.80
1003.84	214.86
1004.13	214.93
1004.42	214.95
1004.71	214.95
1004.99	214.95
1005.28	215.00
1005.57	214.96
1005.86	214.96
1006.15	214.92
1006.44	214.88
1006.72	214.91
1007.01	214.87
1007.30	214.87
1007.59	214.84
1007.88	214.83
1008.17	214.84
1008.45	214.79
1008.74	214.70
1009.03	214.65
1009.32	214.69
1009.60	214.68
1009.89	214.64
1010.18	214.56
1010.47	214.54
1010.76	214.53
1011.04	214.52
1011.33	214.53
1011.62	214.55
1011.91	214.56
1012.19	214.58
1012.48	214.58
1012.77	214.60
1013.05	214.69
1013.34	214.69
1013.63	214.70
1013.92	214.70
1014.20	214.71
1014.49	214.76
1014.78	214.79
1015.06	214.73
1015.35	214.72
1015.64	214.73
1015.92	214.76
1016.21	214.77
1016.50	214.76
1016.78	214.78
1017.07	214.80
1017.36	214.72
1017.64	214.67
1017.93	214.67
1018.22	214.68
1018.50	214.68
1018.79	214.65
1019.08	214.52
1019.36	214.54
1019.65	214.51
1019.93	214.55
1020.22	214.59
1020.51	214.68
1020.79	214.66
1021.08	215.10
1021.36	214.06
1021.65	214.48
1021.94	214.02
1022.22	215.05
1022.51	213.97
1022.79	215.04
1023.08	215.26
1023.36	217.27
1023.65	214.38
>>>>>End Processed Spectral Data<<<<<
