SpectraSuite Data File
++++++++++++++++++++++++++++++++++++
Date: Tue Jan 29 16:32:41 EST 2013
User: group
Dark Spectrum Present: No
Reference Spectrum Present: No
Number of Sampled Component Spectra: 1
Spectrometers: USB2E7196
Integration Time (usec): 65000 (USB2E7196)
Spectra Averaged: 100 (USB2E7196)
Boxcar Smoothing: 10 (USB2E7196)
Correct for Electrical Dark: No (USB2E7196)
Strobe/Lamp Enabled: No (USB2E7196)
Correct for Detector Non-linearity: No (USB2E7196)
Correct for Stray Light: No (USB2E7196)
Number of Pixels in Processed Spectrum: 2048
>>>>>Begin Processed Spectral Data<<<<<
339.09	0.00
339.48	201.86
339.86	203.14
340.24	204.79
340.63	206.11
341.01	210.38
341.39	208.91
341.78	210.27
342.16	211.79
342.54	211.78
342.93	201.00
343.31	211.18
343.69	211.71
344.07	212.18
344.46	212.63
344.84	213.03
345.22	213.23
345.60	213.48
345.99	213.71
346.37	213.83
346.75	213.98
347.13	214.09
347.52	214.14
347.90	214.29
348.28	214.34
348.66	214.46
349.05	214.43
349.43	214.50
349.81	214.60
350.19	214.66
350.57	214.70
350.96	214.82
351.34	214.90
351.72	215.01
352.10	215.10
352.48	215.14
352.87	215.18
353.25	215.23
353.63	215.31
354.01	215.35
354.39	215.46
354.77	215.53
355.15	215.65
355.54	215.71
355.92	215.69
356.30	215.73
356.68	215.90
357.06	215.99
357.44	216.02
357.82	216.06
358.20	216.16
358.58	216.25
358.97	216.31
359.35	216.44
359.73	216.53
360.11	216.63
360.49	216.73
360.87	216.81
361.25	216.90
361.63	217.03
362.01	217.08
362.39	217.11
362.77	217.15
363.15	217.20
363.53	217.21
363.91	217.24
364.29	217.29
364.67	217.12
365.05	217.16
365.43	217.20
365.81	217.26
366.19	217.36
366.57	217.44
366.95	217.43
367.33	217.34
367.71	217.32
368.09	217.33
368.47	217.30
368.85	217.27
369.23	217.28
369.61	217.19
369.99	217.24
370.37	217.23
370.75	217.31
371.13	217.20
371.51	217.16
371.89	217.16
372.27	217.16
372.65	217.15
373.03	217.09
373.41	217.03
373.78	217.00
374.16	216.83
374.54	216.72
374.92	216.69
375.30	216.67
375.68	216.60
376.06	216.59
376.44	216.56
376.82	216.52
377.19	216.48
377.57	216.42
377.95	216.32
378.33	216.26
378.71	216.10
379.09	216.14
379.47	216.12
379.84	216.07
380.22	215.99
380.60	215.96
380.98	215.89
381.36	215.87
381.73	215.78
382.11	215.79
382.49	215.77
382.87	215.69
383.25	215.65
383.62	215.85
384.00	215.76
384.38	215.73
384.76	215.74
385.13	215.76
385.51	215.75
385.89	215.68
386.27	215.65
386.64	215.62
387.02	215.55
387.40	215.56
387.78	215.50
388.15	215.48
388.53	215.44
388.91	215.44
389.29	215.41
389.66	215.46
390.04	215.41
390.42	215.43
390.79	215.41
391.17	215.39
391.55	215.19
391.92	215.18
392.30	215.20
392.68	215.17
393.05	215.16
393.43	215.15
393.81	215.17
394.18	215.13
394.56	215.16
394.94	215.21
395.31	215.15
395.69	215.24
396.06	215.30
396.44	215.31
396.82	215.32
397.19	215.45
397.57	215.41
397.95	215.51
398.32	215.45
398.70	215.51
399.07	215.60
399.45	215.62
399.82	215.66
400.20	215.68
400.58	215.73
400.95	215.69
401.33	215.79
401.70	216.02
402.08	216.11
402.45	216.18
402.83	216.31
403.20	216.43
403.58	216.52
403.95	216.67
404.33	216.85
404.71	217.01
405.08	217.25
405.46	217.44
405.83	217.60
406.21	217.85
406.58	218.08
406.96	218.29
407.33	218.53
407.70	218.85
408.08	219.31
408.45	219.67
408.83	220.04
409.20	220.39
409.58	220.63
409.95	221.15
410.33	221.64
410.70	222.07
411.08	222.66
411.45	223.22
411.82	223.79
412.20	224.48
412.57	225.28
412.95	225.85
413.32	226.69
413.69	227.53
414.07	228.43
414.44	229.43
414.82	230.43
415.19	231.63
415.56	232.85
415.94	234.02
416.31	235.41
416.68	236.84
417.06	238.43
417.43	239.98
417.81	241.71
418.18	243.48
418.55	245.43
418.93	247.43
419.30	249.54
419.67	251.75
420.04	254.03
420.42	256.41
420.79	259.25
421.16	262.05
421.54	264.93
421.91	267.94
422.28	271.02
422.66	274.32
423.03	277.62
423.40	280.96
423.77	284.52
424.15	288.21
424.52	292.05
424.89	296.20
425.26	300.30
425.64	304.20
426.01	308.45
426.38	312.90
426.75	317.46
427.13	322.19
427.50	327.15
427.87	332.35
428.24	337.59
428.61	342.56
428.99	348.08
429.36	354.13
429.73	360.00
430.10	365.88
430.47	371.99
430.85	378.21
431.22	384.91
431.59	392.05
431.96	398.88
432.33	406.34
432.70	413.62
433.08	422.16
433.45	430.17
433.82	438.24
434.19	447.16
434.56	455.86
434.93	464.24
435.30	472.57
435.68	481.67
436.05	490.60
436.42	499.51
436.79	507.65
437.16	516.43
437.53	525.81
437.90	534.95
438.27	543.91
438.64	553.13
439.01	561.70
439.38	569.26
439.75	576.60
440.13	585.06
440.50	593.00
440.87	599.50
441.24	606.19
441.61	613.59
441.98	618.93
442.35	625.22
442.72	631.55
443.09	637.57
443.46	641.31
443.83	643.86
444.20	646.04
444.57	649.22
444.94	650.70
445.31	652.06
445.68	653.46
446.05	654.11
446.42	653.37
446.79	652.41
447.16	651.36
447.53	650.58
447.90	647.27
448.27	644.00
448.64	639.30
449.01	635.95
449.37	630.02
449.74	624.41
450.11	617.53
450.48	610.12
450.85	602.66
451.22	596.15
451.59	590.01
451.96	584.18
452.33	576.27
452.70	569.10
453.07	560.62
453.43	552.02
453.80	543.73
454.17	535.72
454.54	528.13
454.91	519.96
455.28	511.96
455.65	504.51
456.02	497.03
456.38	490.68
456.75	482.81
457.12	476.24
457.49	469.68
457.86	463.54
458.23	458.13
458.59	452.24
458.96	446.29
459.33	441.02
459.70	435.63
460.07	431.36
460.43	426.48
460.80	421.88
461.17	417.90
461.54	413.67
461.91	409.66
462.27	405.59
462.64	402.14
463.01	398.39
463.38	394.70
463.74	390.92
464.11	387.67
464.48	384.84
464.85	381.71
465.21	379.27
465.58	376.64
465.95	373.50
466.32	370.85
466.68	368.22
467.05	365.61
467.42	363.06
467.78	360.39
468.15	357.86
468.52	355.96
468.88	353.45
469.25	351.27
469.62	349.48
469.98	347.50
470.35	345.70
470.72	343.94
471.08	342.14
471.45	340.69
471.82	339.16
472.18	337.47
472.55	336.25
472.92	334.87
473.28	333.62
473.65	332.45
474.02	331.34
474.38	330.48
474.75	329.68
475.11	328.87
475.48	328.30
475.85	327.80
476.21	327.33
476.58	326.98
476.94	326.72
477.31	326.37
477.67	326.16
478.04	325.98
478.41	326.00
478.77	326.14
479.14	326.07
479.50	326.20
479.87	326.55
480.23	326.85
480.60	327.06
480.96	327.32
481.33	327.91
481.69	328.52
482.06	329.06
482.42	329.58
482.79	330.17
483.15	330.93
483.52	331.88
483.88	332.76
484.25	333.63
484.61	334.63
484.98	335.67
485.34	336.99
485.71	338.35
486.07	339.79
486.44	341.11
486.80	342.73
487.17	344.42
487.53	346.23
487.90	348.11
488.26	350.19
488.62	352.38
488.99	354.44
489.35	356.58
489.72	358.94
490.08	361.50
490.44	364.10
490.81	366.84
491.17	369.54
491.54	372.49
491.90	375.62
492.26	378.92
492.63	382.39
492.99	385.83
493.36	389.51
493.72	393.33
494.08	397.37
494.45	401.64
494.81	406.00
495.17	410.43
495.54	415.15
495.90	419.96
496.26	424.83
496.63	430.02
496.99	435.43
497.35	440.99
497.72	446.76
498.08	452.73
498.44	458.84
498.80	465.30
499.17	471.88
499.53	478.60
499.89	485.49
500.26	492.46
500.62	499.60
500.98	507.05
501.34	514.54
501.71	522.39
502.07	530.15
502.43	538.24
502.79	546.40
503.16	554.87
503.52	563.50
503.88	572.30
504.24	581.36
504.60	590.45
504.97	599.77
505.33	609.08
505.69	619.00
506.05	628.90
506.41	638.77
506.78	648.82
507.14	659.13
507.50	669.64
507.86	680.47
508.22	691.35
508.59	702.11
508.95	713.24
509.31	724.55
509.67	736.08
510.03	747.51
510.39	759.32
510.75	771.17
511.12	783.13
511.48	795.36
511.84	807.66
512.20	820.06
512.56	832.75
512.92	845.57
513.28	858.24
513.64	871.00
514.00	884.00
514.37	897.15
514.73	910.29
515.09	923.32
515.45	936.22
515.81	949.28
516.17	962.75
516.53	976.16
516.89	989.27
517.25	1002.54
517.61	1016.16
517.97	1029.63
518.33	1042.87
518.69	1056.54
519.05	1070.35
519.41	1084.12
519.77	1098.12
520.13	1111.42
520.49	1124.77
520.85	1138.37
521.21	1151.93
521.57	1165.62
521.93	1178.75
522.29	1192.59
522.65	1206.34
523.01	1220.06
523.37	1233.35
523.73	1246.77
524.09	1259.99
524.45	1273.61
524.81	1287.26
525.17	1300.73
525.53	1314.21
525.89	1327.72
526.25	1341.01
526.61	1353.94
526.97	1367.17
527.33	1380.18
527.68	1393.81
528.04	1407.42
528.40	1420.55
528.76	1434.06
529.12	1446.98
529.48	1460.39
529.84	1472.84
530.20	1485.73
530.56	1498.41
530.91	1511.74
531.27	1524.70
531.63	1537.41
531.99	1550.20
532.35	1562.53
532.71	1575.07
533.07	1587.84
533.42	1600.05
533.78	1612.27
534.14	1624.38
534.50	1635.65
534.86	1647.48
535.21	1658.44
535.57	1670.08
535.93	1681.56
536.29	1692.72
536.65	1704.37
537.00	1715.51
537.36	1726.92
537.72	1738.04
538.08	1749.65
538.44	1760.73
538.79	1771.97
539.15	1783.15
539.51	1793.96
539.87	1805.46
540.22	1816.36
540.58	1827.32
540.94	1838.34
541.29	1848.71
541.65	1858.65
542.01	1869.31
542.37	1879.43
542.72	1889.76
543.08	1899.72
543.44	1910.21
543.79	1919.56
544.15	1929.15
544.51	1939.21
544.87	1949.21
545.22	1958.54
545.58	1967.38
545.94	1976.46
546.29	1985.15
546.65	1993.64
547.01	2002.08
547.36	2009.77
547.72	2017.60
548.07	2025.39
548.43	2033.43
548.79	2041.46
549.14	2049.70
549.50	2058.22
549.86	2066.16
550.21	2073.76
550.57	2081.45
550.92	2088.25
551.28	2095.85
551.64	2103.19
551.99	2110.54
552.35	2117.77
552.70	2124.71
553.06	2131.62
553.41	2137.83
553.77	2144.24
554.13	2150.81
554.48	2157.89
554.84	2165.03
555.19	2171.65
555.55	2178.20
555.90	2184.31
556.26	2191.14
556.61	2197.13
556.97	2202.01
557.32	2207.86
557.68	2214.28
558.03	2220.04
558.39	2225.44
558.74	2231.37
559.10	2237.00
559.45	2242.86
559.81	2248.52
560.16	2254.04
560.52	2259.80
560.87	2266.31
561.23	2272.33
561.58	2278.75
561.94	2283.88
562.29	2288.73
562.64	2294.79
563.00	2300.54
563.35	2306.26
563.71	2312.00
564.06	2317.82
564.42	2323.89
564.77	2328.91
565.12	2334.24
565.48	2339.52
565.83	2345.14
566.19	2350.60
566.54	2355.91
566.89	2360.45
567.25	2365.02
567.60	2370.68
567.96	2375.92
568.31	2380.54
568.66	2384.78
569.02	2388.78
569.37	2392.56
569.72	2396.78
570.08	2400.29
570.43	2403.35
570.78	2406.41
571.14	2408.88
571.49	2411.93
571.84	2415.36
572.20	2418.32
572.55	2421.23
572.90	2423.36
573.26	2425.99
573.61	2428.48
573.96	2430.59
574.31	2432.62
574.67	2434.53
575.02	2435.35
575.37	2436.66
575.72	2437.39
576.08	2438.76
576.43	2439.10
576.78	2439.68
577.13	2441.34
577.49	2442.39
577.84	2443.40
578.19	2444.55
578.54	2445.21
578.90	2445.93
579.25	2445.92
579.60	2445.79
579.95	2444.92
580.30	2444.99
580.66	2444.21
581.01	2442.38
581.36	2440.02
581.71	2438.56
582.06	2437.27
582.42	2436.32
582.77	2434.05
583.12	2432.26
583.47	2430.88
583.82	2429.88
584.17	2428.58
584.53	2426.34
584.88	2424.33
585.23	2422.22
585.58	2419.99
585.93	2417.76
586.28	2415.45
586.63	2412.76
586.98	2410.40
587.34	2408.38
587.69	2405.87
588.04	2403.83
588.39	2402.51
588.74	2400.08
589.09	2397.18
589.44	2393.89
589.79	2391.53
590.14	2389.47
590.49	2386.59
590.84	2382.67
591.19	2379.59
591.54	2376.16
591.89	2372.03
592.25	2368.56
592.60	2364.34
592.95	2360.24
593.30	2356.05
593.65	2351.60
594.00	2347.21
594.35	2344.24
594.70	2339.56
595.05	2334.98
595.40	2329.53
595.75	2323.70
596.10	2319.88
596.45	2315.02
596.80	2310.47
597.15	2305.07
597.50	2299.21
597.85	2294.19
598.19	2288.95
598.54	2283.05
598.89	2277.82
599.24	2273.20
599.59	2267.03
599.94	2261.26
600.29	2255.11
600.64	2249.26
600.99	2242.39
601.34	2236.84
601.69	2229.75
602.04	2223.36
602.39	2216.59
602.74	2210.51
603.08	2204.92
603.43	2198.27
603.78	2191.48
604.13	2184.36
604.48	2177.04
604.83	2170.79
605.18	2164.53
605.53	2157.55
605.87	2150.53
606.22	2143.62
606.57	2135.63
606.92	2127.56
607.27	2120.53
607.62	2113.99
607.96	2106.75
608.31	2100.44
608.66	2092.57
609.01	2084.96
609.36	2077.69
609.70	2069.99
610.05	2062.15
610.40	2053.78
610.75	2045.49
611.10	2037.68
611.44	2028.72
611.79	2019.93
612.14	2009.95
612.49	1999.23
612.83	1989.91
613.18	1980.60
613.53	1971.32
613.88	1961.77
614.22	1953.30
614.57	1943.44
614.92	1932.69
615.27	1922.38
615.61	1912.05
615.96	1902.39
616.31	1892.65
616.65	1883.23
617.00	1873.50
617.35	1863.66
617.70	1853.94
618.04	1843.86
618.39	1833.66
618.74	1823.98
619.08	1814.22
619.43	1805.43
619.78	1797.13
620.12	1788.39
620.47	1778.77
620.82	1768.39
621.16	1758.43
621.51	1748.45
621.85	1738.46
622.20	1728.07
622.55	1717.57
622.89	1707.65
623.24	1697.83
623.59	1687.92
623.93	1677.82
624.28	1667.89
624.62	1657.71
624.97	1647.26
625.32	1637.36
625.66	1628.36
626.01	1619.51
626.35	1610.15
626.70	1600.14
627.04	1589.98
627.39	1579.80
627.73	1570.44
628.08	1561.44
628.43	1551.92
628.77	1542.59
629.12	1533.79
629.46	1525.97
629.81	1517.68
630.15	1508.10
630.50	1498.34
630.84	1487.98
631.19	1477.97
631.53	1468.72
631.88	1458.57
632.22	1448.67
632.57	1439.33
632.91	1429.17
633.26	1419.34
633.60	1409.77
633.95	1400.36
634.29	1390.88
634.64	1381.55
634.98	1371.61
635.32	1362.36
635.67	1353.92
636.01	1344.63
636.36	1334.74
636.70	1325.07
637.05	1315.66
637.39	1306.67
637.73	1298.02
638.08	1290.39
638.42	1282.22
638.77	1273.36
639.11	1265.15
639.45	1257.23
639.80	1248.70
640.14	1239.95
640.49	1231.03
640.83	1222.16
641.17	1213.96
641.52	1205.77
641.86	1197.18
642.20	1189.31
642.55	1180.53
642.89	1171.53
643.23	1162.88
643.58	1154.78
643.92	1145.84
644.26	1137.09
644.61	1128.66
644.95	1119.84
645.29	1110.57
645.64	1101.39
645.98	1092.87
646.32	1084.88
646.66	1076.28
647.01	1067.91
647.35	1059.84
647.69	1051.43
648.04	1043.10
648.38	1034.25
648.72	1025.46
649.06	1016.95
649.41	1008.69
649.75	1000.74
650.09	992.92
650.43	984.85
650.78	976.49
651.12	968.66
651.46	961.20
651.80	953.86
652.14	946.49
652.49	938.97
652.83	931.58
653.17	923.85
653.51	916.19
653.85	908.92
654.20	901.51
654.54	893.90
654.88	886.61
655.22	879.37
655.56	872.30
655.90	865.43
656.25	858.71
656.59	851.75
656.93	844.74
657.27	837.49
657.61	830.48
657.95	824.38
658.29	818.50
658.64	812.23
658.98	805.82
659.32	799.27
659.66	792.91
660.00	786.42
660.34	780.31
660.68	774.17
661.02	767.82
661.36	761.94
661.70	756.07
662.05	750.40
662.39	744.90
662.73	739.49
663.07	734.15
663.41	728.45
663.75	722.67
664.09	716.88
664.43	711.40
664.77	705.97
665.11	700.06
665.45	694.07
665.79	688.16
666.13	682.38
666.47	676.69
666.81	671.19
667.15	665.79
667.49	660.54
667.83	655.25
668.17	649.97
668.51	644.79
668.85	639.82
669.19	634.85
669.53	629.71
669.87	624.52
670.21	619.68
670.55	614.97
670.89	610.45
671.23	606.04
671.57	601.63
671.91	597.27
672.25	593.10
672.58	588.88
672.92	584.77
673.26	580.85
673.60	576.98
673.94	573.17
674.28	569.53
674.62	565.72
674.96	561.91
675.30	558.39
675.64	554.63
675.97	551.02
676.31	547.41
676.65	543.80
676.99	540.38
677.33	536.45
677.67	532.72
678.01	528.89
678.34	525.26
678.68	521.66
679.02	518.03
679.36	514.27
679.70	510.57
680.04	507.02
680.37	503.42
680.71	500.06
681.05	496.84
681.39	493.59
681.73	490.36
682.06	487.27
682.40	484.11
682.74	480.93
683.08	477.68
683.42	474.41
683.75	471.35
684.09	468.22
684.43	465.38
684.77	462.39
685.10	459.50
685.44	456.59
685.78	453.66
686.12	450.83
686.45	448.09
686.79	445.36
687.13	442.80
687.46	440.22
687.80	437.48
688.14	434.59
688.48	431.86
688.81	429.12
689.15	426.55
689.49	423.91
689.82	421.32
690.16	418.69
690.50	416.21
690.83	413.65
691.17	411.07
691.51	408.56
691.84	406.26
692.18	403.99
692.52	401.70
692.85	399.54
693.19	397.40
693.52	395.18
693.86	392.99
694.20	390.76
694.53	388.56
694.87	386.32
695.21	384.19
695.54	381.97
695.88	379.79
696.21	377.49
696.55	375.33
696.88	373.26
697.22	371.24
697.56	369.34
697.89	367.47
698.23	365.72
698.56	363.90
698.90	362.12
699.23	360.19
699.57	358.30
699.90	356.45
700.24	354.59
700.58	352.79
700.91	351.09
701.25	349.48
701.58	347.85
701.92	346.24
702.25	344.59
702.59	342.99
702.92	341.46
703.26	339.91
703.59	338.38
703.93	337.11
704.26	335.65
704.60	334.09
704.93	332.60
705.26	331.08
705.60	329.59
705.93	328.08
706.27	326.68
706.60	325.37
706.94	324.10
707.27	322.65
707.61	321.30
707.94	319.91
708.27	318.39
708.61	316.90
708.94	315.52
709.28	314.20
709.61	312.88
709.94	311.59
710.28	310.37
710.61	309.19
710.95	307.75
711.28	306.64
711.61	305.44
711.95	304.28
712.28	303.05
712.61	301.81
712.95	300.74
713.28	299.71
713.61	298.54
713.95	297.34
714.28	296.37
714.61	295.35
714.95	294.33
715.28	293.32
715.61	292.29
715.95	291.29
716.28	290.29
716.61	289.37
716.95	288.42
717.28	287.47
717.61	286.45
717.94	285.49
718.28	284.47
718.61	283.57
718.94	282.63
719.27	281.75
719.61	280.92
719.94	280.01
720.27	279.04
720.60	278.15
720.94	277.36
721.27	276.59
721.60	275.88
721.93	275.14
722.27	274.51
722.60	273.88
722.93	273.17
723.26	272.52
723.59	271.77
723.93	271.12
724.26	270.47
724.59	269.80
724.92	269.20
725.25	268.63
725.59	268.09
725.92	267.57
726.25	266.99
726.58	266.41
726.91	265.79
727.24	265.25
727.57	264.69
727.91	264.04
728.24	263.45
728.57	262.80
728.90	262.28
729.23	261.59
729.56	261.10
729.89	260.56
730.22	259.97
730.55	259.45
730.89	258.89
731.22	258.32
731.55	257.83
731.88	257.33
732.21	256.76
732.54	256.18
732.87	255.63
733.20	255.16
733.53	254.65
733.86	254.19
734.19	253.66
734.52	253.26
734.85	252.95
735.18	252.47
735.51	252.14
735.84	251.67
736.17	251.31
736.50	250.76
736.83	250.59
737.16	250.21
737.49	249.82
737.82	249.41
738.15	249.06
738.48	248.66
738.81	248.22
739.14	247.81
739.47	247.42
739.80	247.03
740.13	246.63
740.46	246.24
740.79	245.85
741.12	245.51
741.45	245.11
741.78	244.69
742.11	244.44
742.44	244.02
742.77	243.72
743.10	243.37
743.43	243.02
743.75	242.44
744.08	242.30
744.41	241.96
744.74	241.62
745.07	241.24
745.40	240.94
745.73	240.71
746.06	240.40
746.39	240.08
746.71	239.76
747.04	239.40
747.37	239.08
747.70	238.83
748.03	238.52
748.36	238.23
748.68	237.92
749.01	237.54
749.34	237.24
749.67	236.94
750.00	236.67
750.33	236.55
750.65	236.28
750.98	235.80
751.31	235.54
751.64	235.29
751.97	235.14
752.29	234.85
752.62	234.49
752.95	234.21
753.28	233.95
753.60	233.69
753.93	233.55
754.26	233.36
754.59	233.05
754.91	232.80
755.24	232.57
755.57	232.31
755.90	232.08
756.22	231.83
756.55	231.55
756.88	231.30
757.20	230.95
757.53	230.71
757.86	230.52
758.19	230.31
758.51	230.11
758.84	229.81
759.17	229.64
759.49	229.50
759.82	229.44
760.15	229.28
760.47	229.12
760.80	228.82
761.13	228.67
761.45	228.51
761.78	228.30
762.11	228.12
762.43	227.94
762.76	227.74
763.08	227.60
763.41	227.46
763.74	227.31
764.06	227.17
764.39	227.01
764.71	226.83
765.04	226.68
765.37	226.49
765.69	226.32
766.02	226.15
766.34	225.97
766.67	225.72
767.00	225.63
767.32	225.59
767.65	225.63
767.97	225.45
768.30	225.33
768.62	225.22
768.95	225.07
769.27	224.96
769.60	224.89
769.92	224.72
770.25	224.54
770.57	224.36
770.90	224.20
771.22	224.09
771.55	223.99
771.87	223.86
772.20	223.76
772.52	223.83
772.85	223.98
773.17	223.87
773.50	223.77
773.82	223.65
774.15	223.44
774.47	223.22
774.80	223.12
775.12	223.01
775.45	222.89
775.77	222.85
776.09	222.76
776.42	222.68
776.74	222.66
777.07	222.57
777.39	222.49
777.72	222.39
778.04	222.32
778.36	222.20
778.69	222.13
779.01	222.05
779.33	221.81
779.66	221.45
779.98	221.32
780.31	221.26
780.63	221.27
780.95	221.23
781.28	221.17
781.60	221.09
781.92	221.02
782.25	220.98
782.57	220.88
782.89	220.81
783.22	220.73
783.54	220.60
783.86	220.58
784.19	220.53
784.51	220.54
784.83	220.45
785.16	220.40
785.48	220.31
785.80	220.29
786.12	220.21
786.45	220.19
786.77	220.19
787.09	220.12
787.42	219.94
787.74	219.88
788.06	219.78
788.38	219.69
788.71	219.61
789.03	219.54
789.35	219.51
789.67	219.42
789.99	219.36
790.32	219.33
790.64	219.33
790.96	219.44
791.28	219.33
791.61	219.28
791.93	219.25
792.25	219.22
792.57	219.29
792.89	219.21
793.21	219.17
793.54	219.12
793.86	219.02
794.18	219.05
794.50	218.97
794.82	218.93
795.14	218.90
795.47	218.90
795.79	218.86
796.11	218.77
796.43	218.72
796.75	218.68
797.07	218.63
797.39	218.57
797.71	218.37
798.04	218.35
798.36	218.32
798.68	218.29
799.00	218.26
799.32	218.11
799.64	218.18
799.96	218.14
800.28	218.15
800.60	218.13
800.92	218.08
801.24	218.06
801.56	218.06
801.89	218.01
802.21	218.02
802.53	217.97
802.85	217.97
803.17	218.06
803.49	217.98
803.81	217.93
804.13	217.86
804.45	217.80
804.77	217.76
805.09	217.71
805.41	217.63
805.73	217.56
806.05	217.50
806.37	217.43
806.69	217.40
807.01	217.32
807.33	217.28
807.65	217.20
807.97	217.23
808.28	217.18
808.60	217.20
808.92	217.13
809.24	217.24
809.56	217.22
809.88	217.13
810.20	217.13
810.52	217.15
810.84	217.09
811.16	217.05
811.48	217.03
811.80	217.10
812.12	217.05
812.43	217.07
812.75	217.02
813.07	216.95
813.39	216.93
813.71	216.88
814.03	216.83
814.35	216.81
814.67	216.74
814.98	216.69
815.30	216.67
815.62	216.61
815.94	216.43
816.26	216.42
816.58	216.37
816.89	216.38
817.21	216.28
817.53	216.27
817.85	216.29
818.17	216.25
818.48	216.16
818.80	216.20
819.12	216.14
819.44	216.12
819.76	216.07
820.07	216.04
820.39	216.04
820.71	216.08
821.03	216.06
821.34	216.00
821.66	216.01
821.98	215.99
822.30	215.94
822.61	216.06
822.93	215.98
823.25	215.93
823.57	215.87
823.88	215.92
824.20	215.91
824.52	215.93
824.83	215.92
825.15	215.90
825.47	215.89
825.79	215.90
826.10	215.90
826.42	215.91
826.74	215.92
827.05	215.90
827.37	215.87
827.69	215.86
828.00	215.85
828.32	215.82
828.64	215.80
828.95	215.90
829.27	215.82
829.58	215.82
829.90	215.83
830.22	215.84
830.53	215.76
830.85	215.73
831.17	215.66
831.48	215.64
831.80	215.64
832.11	215.63
832.43	215.59
832.75	215.57
833.06	215.70
833.38	215.62
833.69	215.63
834.01	215.64
834.32	215.62
834.64	215.61
834.96	215.61
835.27	215.59
835.59	215.52
835.90	215.50
836.22	215.48
836.53	215.43
836.85	215.41
837.16	215.62
837.48	215.61
837.79	215.69
838.11	215.70
838.42	215.68
838.74	215.69
839.05	215.65
839.37	215.61
839.68	215.47
840.00	215.43
840.31	215.46
840.63	215.40
840.94	215.38
841.26	215.35
841.57	215.34
841.88	215.33
842.20	215.29
842.51	215.25
842.83	215.26
843.14	215.45
843.46	215.45
843.77	215.33
844.08	215.36
844.40	215.26
844.71	215.25
845.03	215.23
845.34	215.18
845.65	215.18
845.97	215.20
846.28	215.20
846.60	215.21
846.91	215.16
847.22	215.16
847.54	215.21
847.85	215.20
848.16	215.19
848.48	215.20
848.79	215.28
849.10	215.31
849.42	215.30
849.73	215.09
850.04	215.06
850.36	215.00
850.67	215.03
850.98	215.03
851.30	215.02
851.61	214.98
851.92	214.98
852.23	215.04
852.55	215.04
852.86	215.04
853.17	215.05
853.49	215.08
853.80	215.10
854.11	215.09
854.42	215.10
854.74	215.10
855.05	215.10
855.36	214.99
855.67	214.96
855.99	214.97
856.30	215.21
856.61	215.23
856.92	215.20
857.23	215.16
857.55	215.16
857.86	215.17
858.17	215.20
858.48	215.18
858.79	215.14
859.11	215.18
859.42	215.14
859.73	215.11
860.04	215.10
860.35	215.05
860.66	214.97
860.98	214.99
861.29	214.96
861.60	214.93
861.91	214.98
862.22	214.96
862.53	214.93
862.84	214.69
863.16	214.71
863.47	214.70
863.78	214.67
864.09	214.70
864.40	214.68
864.71	214.69
865.02	214.68
865.33	214.67
865.64	214.59
865.95	214.60
866.27	214.76
866.58	214.71
866.89	214.72
867.20	214.74
867.51	214.67
867.82	214.66
868.13	214.73
868.44	214.69
868.75	214.77
869.06	214.78
869.37	214.77
869.68	214.70
869.99	214.73
870.30	214.76
870.61	214.74
870.92	214.69
871.23	214.71
871.54	214.73
871.85	214.76
872.16	214.80
872.47	214.77
872.78	214.60
873.09	214.64
873.40	214.61
873.71	214.61
874.02	214.66
874.33	214.65
874.64	214.58
874.95	214.60
875.26	214.51
875.56	214.47
875.87	214.47
876.18	214.48
876.49	214.65
876.80	214.63
877.11	214.60
877.42	214.61
877.73	214.58
878.04	214.56
878.35	214.54
878.66	214.53
878.96	214.55
879.27	214.56
879.58	214.55
879.89	214.55
880.20	214.61
880.51	214.63
880.82	214.65
881.12	214.66
881.43	214.64
881.74	214.63
882.05	214.62
882.36	214.64
882.67	214.62
882.97	214.42
883.28	214.37
883.59	214.35
883.90	214.36
884.21	214.38
884.51	214.36
884.82	214.33
885.13	214.32
885.44	214.28
885.74	214.29
886.05	214.29
886.36	214.30
886.67	214.22
886.98	214.28
887.28	214.30
887.59	214.32
887.90	214.31
888.20	214.32
888.51	214.35
888.82	214.31
889.13	214.35
889.43	214.53
889.74	214.50
890.05	214.52
890.35	214.52
890.66	214.49
890.97	214.46
891.28	214.49
891.58	214.51
891.89	214.55
892.20	214.50
892.50	214.45
892.81	214.44
893.12	214.43
893.42	214.32
893.73	214.32
894.04	214.30
894.34	214.31
894.65	214.31
894.95	214.30
895.26	214.34
895.57	214.43
895.87	214.23
896.18	214.30
896.48	214.32
896.79	214.33
897.10	214.34
897.40	214.39
897.71	214.38
898.01	214.37
898.32	214.38
898.63	214.41
898.93	214.47
899.24	214.49
899.54	214.50
899.85	214.49
900.15	214.47
900.46	214.48
900.76	214.51
901.07	214.49
901.38	214.46
901.68	214.44
901.99	214.33
902.29	214.34
902.60	214.33
902.90	214.27
903.21	214.26
903.51	214.26
903.82	214.29
904.12	214.28
904.43	214.29
904.73	214.27
905.03	214.24
905.34	214.43
905.64	214.41
905.95	214.38
906.25	214.37
906.56	214.35
906.86	214.34
907.17	214.33
907.47	214.38
907.77	214.38
908.08	214.38
908.38	214.38
908.69	214.40
908.99	214.40
909.30	214.44
909.60	214.45
909.90	214.46
910.21	214.40
910.51	214.36
910.81	214.35
911.12	214.35
911.42	214.35
911.73	214.12
912.03	214.13
912.33	214.16
912.64	214.16
912.94	214.15
913.24	214.11
913.55	214.08
913.85	214.02
914.15	214.04
914.46	214.05
914.76	214.05
915.06	214.04
915.37	214.04
915.67	213.99
915.97	213.97
916.27	213.91
916.58	213.91
916.88	213.94
917.18	213.90
917.49	214.04
917.79	214.07
918.09	214.07
918.39	214.15
918.70	214.15
919.00	214.19
919.30	214.29
919.60	214.31
919.91	214.28
920.21	214.31
920.51	214.27
920.81	214.27
921.12	214.28
921.42	214.27
921.72	214.26
922.02	214.27
922.32	214.29
922.63	214.30
922.93	214.42
923.23	214.41
923.53	214.41
923.83	214.28
924.13	214.29
924.44	214.31
924.74	214.27
925.04	214.30
925.34	214.28
925.64	214.20
925.94	214.20
926.24	214.36
926.55	214.34
926.85	214.37
927.15	214.36
927.45	214.39
927.75	214.38
928.05	214.40
928.35	214.41
928.65	214.49
928.95	214.52
929.26	214.44
929.56	214.51
929.86	214.50
930.16	214.47
930.46	214.47
930.76	214.49
931.06	214.39
931.36	214.31
931.66	214.34
931.96	214.34
932.26	214.34
932.56	214.22
932.86	214.26
933.16	214.24
933.46	214.21
933.76	214.18
934.06	214.20
934.36	214.26
934.66	214.24
934.96	214.18
935.26	214.18
935.56	214.21
935.86	214.16
936.16	214.17
936.46	214.16
936.76	214.14
937.06	214.07
937.36	214.16
937.66	214.18
937.96	214.17
938.26	214.14
938.56	214.14
938.86	214.13
939.16	214.14
939.46	214.18
939.76	214.21
940.06	214.19
940.35	214.17
940.65	214.06
940.95	214.09
941.25	214.04
941.55	214.00
941.85	213.97
942.15	213.98
942.45	214.03
942.75	214.05
943.04	214.05
943.34	214.10
943.64	214.06
943.94	214.04
944.24	214.05
944.54	214.07
944.84	214.07
945.13	214.06
945.43	214.05
945.73	214.04
946.03	214.00
946.33	214.00
946.62	213.97
946.92	213.95
947.22	213.96
947.52	214.00
947.82	214.01
948.11	213.98
948.41	213.95
948.71	213.89
949.01	213.90
949.31	213.91
949.60	213.95
949.90	213.99
950.20	214.00
950.50	213.99
950.79	213.95
951.09	213.99
951.39	213.98
951.69	213.97
951.98	213.97
952.28	213.99
952.58	213.97
952.87	213.99
953.17	214.05
953.47	214.02
953.76	214.03
954.06	214.01
954.36	214.04
954.66	214.04
954.95	214.11
955.25	214.12
955.55	214.12
955.84	214.05
956.14	214.08
956.44	214.10
956.73	214.08
957.03	214.12
957.32	214.11
957.62	214.13
957.92	214.15
958.21	214.15
958.51	214.39
958.81	214.44
959.10	214.48
959.40	214.52
959.69	214.54
959.99	214.58
960.29	214.60
960.58	214.57
960.88	214.64
961.17	214.61
961.47	214.64
961.76	214.63
962.06	214.68
962.36	214.62
962.65	214.60
962.95	214.61
963.24	214.59
963.54	214.59
963.83	214.58
964.13	214.60
964.42	214.54
964.72	214.39
965.01	214.38
965.31	214.33
965.60	214.27
965.90	214.38
966.19	214.33
966.49	214.35
966.78	214.32
967.08	214.33
967.37	214.31
967.67	214.24
967.96	214.28
968.26	214.27
968.55	214.30
968.85	214.35
969.14	214.35
969.43	214.31
969.73	214.29
970.02	214.26
970.32	214.25
970.61	214.27
970.91	214.21
971.20	214.18
971.49	214.19
971.79	214.24
972.08	214.11
972.38	214.12
972.67	214.09
972.96	214.14
973.26	214.06
973.55	214.15
973.85	214.14
974.14	214.11
974.43	214.13
974.73	214.09
975.02	214.02
975.31	214.03
975.61	214.04
975.90	214.01
976.19	213.99
976.49	214.00
976.78	213.99
977.07	213.98
977.37	214.00
977.66	213.99
977.95	213.93
978.24	213.95
978.54	213.98
978.83	213.98
979.12	213.94
979.42	213.97
979.71	213.91
980.00	213.92
980.29	213.92
980.59	213.87
980.88	213.93
981.17	213.94
981.46	213.92
981.76	213.93
982.05	214.02
982.34	214.03
982.63	214.01
982.93	214.00
983.22	214.04
983.51	214.07
983.80	214.10
984.09	214.14
984.39	214.12
984.68	214.09
984.97	214.10
985.26	214.09
985.55	214.09
985.85	214.04
986.14	214.05
986.43	214.07
986.72	214.06
987.01	214.00
987.30	214.03
987.59	214.03
987.89	214.04
988.18	213.98
988.47	213.99
988.76	213.98
989.05	213.98
989.34	213.95
989.63	213.99
989.92	213.97
990.22	213.94
990.51	213.94
990.80	213.90
991.09	213.91
991.38	213.96
991.67	213.97
991.96	213.95
992.25	214.00
992.54	213.96
992.83	213.96
993.12	213.93
993.41	213.92
993.70	214.04
993.99	214.05
994.28	214.02
994.58	214.03
994.87	214.00
995.16	214.04
995.45	214.04
995.74	213.96
996.03	213.98
996.32	213.99
996.61	214.02
996.90	214.03
997.19	214.02
997.48	214.01
997.77	213.96
998.06	214.00
998.34	213.95
998.63	213.94
998.92	213.95
999.21	214.00
999.50	213.99
999.79	213.90
1000.08	213.93
1000.37	213.97
1000.66	213.94
1000.95	214.01
1001.24	214.00
1001.53	214.04
1001.82	214.05
1002.11	214.00
1002.40	213.99
1002.68	214.01
1002.97	214.15
1003.26	214.14
1003.55	214.09
1003.84	214.11
1004.13	214.19
1004.42	214.17
1004.71	214.20
1004.99	214.22
1005.28	214.27
1005.57	214.28
1005.86	214.26
1006.15	214.21
1006.44	214.17
1006.72	214.21
1007.01	214.16
1007.30	214.14
1007.59	214.09
1007.88	214.09
1008.17	214.12
1008.45	214.10
1008.74	214.00
1009.03	213.93
1009.32	213.91
1009.60	213.90
1009.89	213.90
1010.18	213.81
1010.47	213.83
1010.76	213.81
1011.04	213.80
1011.33	213.78
1011.62	213.76
1011.91	213.77
1012.19	213.79
1012.48	213.82
1012.77	213.83
1013.05	213.95
1013.34	213.95
1013.63	213.93
1013.92	213.95
1014.20	213.91
1014.49	213.93
1014.78	214.01
1015.06	213.94
1015.35	213.98
1015.64	214.03
1015.92	214.05
1016.21	214.03
1016.50	214.00
1016.78	214.05
1017.07	214.05
1017.36	214.02
1017.64	214.05
1017.93	214.05
1018.22	214.05
1018.50	214.02
1018.79	214.01
1019.08	213.89
1019.36	213.93
1019.65	213.94
1019.93	213.98
1020.22	214.04
1020.51	214.14
1020.79	214.11
1021.08	214.24
1021.36	213.31
1021.65	214.23
1021.94	213.85
1022.22	214.33
1022.51	213.50
1022.79	215.03
1023.08	214.38
1023.36	216.57
1023.65	213.56
>>>>>End Processed Spectral Data<<<<<
