SpectraSuite Data File
++++++++++++++++++++++++++++++++++++
Date: Tue Jan 29 16:38:36 EST 2013
User: group
Dark Spectrum Present: No
Reference Spectrum Present: No
Number of Sampled Component Spectra: 1
Spectrometers: USB2E7196
Integration Time (usec): 65000 (USB2E7196)
Spectra Averaged: 100 (USB2E7196)
Boxcar Smoothing: 10 (USB2E7196)
Correct for Electrical Dark: No (USB2E7196)
Strobe/Lamp Enabled: No (USB2E7196)
Correct for Detector Non-linearity: No (USB2E7196)
Correct for Stray Light: No (USB2E7196)
Number of Pixels in Processed Spectrum: 2048
>>>>>Begin Processed Spectral Data<<<<<
339.09	0.00
339.48	202.08
339.86	203.38
340.24	204.04
340.63	205.97
341.01	210.59
341.39	208.78
341.78	210.58
342.16	211.66
342.54	211.96
342.93	201.23
343.31	211.39
343.69	211.90
344.07	212.37
344.46	212.84
344.84	213.25
345.22	213.42
345.60	213.69
345.99	213.88
346.37	214.02
346.75	214.15
347.13	214.22
347.52	214.24
347.90	214.36
348.28	214.37
348.66	214.44
349.05	214.41
349.43	214.45
349.81	214.50
350.19	214.58
350.57	214.63
350.96	214.76
351.34	214.86
351.72	214.99
352.10	215.08
352.48	215.17
352.87	215.19
353.25	215.26
353.63	215.32
354.01	215.39
354.39	215.46
354.77	215.53
355.15	215.63
355.54	215.71
355.92	215.68
356.30	215.71
356.68	215.92
357.06	215.99
357.44	216.00
357.82	216.06
358.20	216.10
358.58	216.17
358.97	216.19
359.35	216.28
359.73	216.38
360.11	216.45
360.49	216.54
360.87	216.61
361.25	216.69
361.63	216.79
362.01	216.84
362.39	216.86
362.77	216.89
363.15	216.92
363.53	216.95
363.91	216.99
364.29	217.04
364.67	216.88
365.05	216.90
365.43	216.95
365.81	217.00
366.19	217.12
366.57	217.18
366.95	217.18
367.33	217.13
367.71	217.06
368.09	217.07
368.47	217.03
368.85	217.02
369.23	217.04
369.61	216.95
369.99	216.99
370.37	217.01
370.75	217.11
371.13	217.02
371.51	217.00
371.89	217.00
372.27	217.00
372.65	216.99
373.03	216.98
373.41	216.91
373.78	216.85
374.16	216.67
374.54	216.56
374.92	216.51
375.30	216.49
375.68	216.45
376.06	216.41
376.44	216.34
376.82	216.32
377.19	216.26
377.57	216.24
377.95	216.13
378.33	216.09
378.71	215.91
379.09	215.92
379.47	215.89
379.84	215.82
380.22	215.75
380.60	215.68
380.98	215.62
381.36	215.62
381.73	215.55
382.11	215.60
382.49	215.62
382.87	215.54
383.25	215.49
383.62	215.70
384.00	215.62
384.38	215.62
384.76	215.63
385.13	215.66
385.51	215.60
385.89	215.56
386.27	215.51
386.64	215.49
387.02	215.44
387.40	215.41
387.78	215.37
388.15	215.37
388.53	215.34
388.91	215.33
389.29	215.26
389.66	215.29
390.04	215.21
390.42	215.22
390.79	215.24
391.17	215.27
391.55	215.02
391.92	215.02
392.30	215.03
392.68	214.98
393.05	214.92
393.43	214.92
393.81	214.94
394.18	214.92
394.56	214.94
394.94	214.99
395.31	214.96
395.69	215.05
396.06	215.05
396.44	215.07
396.82	215.03
397.19	215.20
397.57	215.22
397.95	215.29
398.32	215.25
398.70	215.29
399.07	215.33
399.45	215.37
399.82	215.40
400.20	215.43
400.58	215.47
400.95	215.48
401.33	215.59
401.70	215.81
402.08	215.93
402.45	216.02
402.83	216.18
403.20	216.32
403.58	216.39
403.95	216.56
404.33	216.74
404.71	216.94
405.08	217.20
405.46	217.37
405.83	217.55
406.21	217.76
406.58	217.98
406.96	218.21
407.33	218.49
407.70	218.84
408.08	219.32
408.45	219.72
408.83	220.10
409.20	220.46
409.58	220.70
409.95	221.15
410.33	221.63
410.70	222.04
411.08	222.59
411.45	223.17
411.82	223.73
412.20	224.38
412.57	225.20
412.95	225.74
413.32	226.57
413.69	227.44
414.07	228.37
414.44	229.39
414.82	230.43
415.19	231.61
415.56	232.79
415.94	233.97
416.31	235.37
416.68	236.80
417.06	238.41
417.43	240.00
417.81	241.75
418.18	243.55
418.55	245.51
418.93	247.55
419.30	249.65
419.67	251.88
420.04	254.20
420.42	256.61
420.79	259.45
421.16	262.27
421.54	265.15
421.91	268.14
422.28	271.27
422.66	274.56
423.03	277.81
423.40	281.18
423.77	284.81
424.15	288.49
424.52	292.35
424.89	296.52
425.26	300.58
425.64	304.49
426.01	308.77
426.38	313.25
426.75	317.81
427.13	322.60
427.50	327.61
427.87	332.90
428.24	338.09
428.61	343.09
428.99	348.63
429.36	354.65
429.73	360.57
430.10	366.41
430.47	372.53
430.85	378.85
431.22	385.57
431.59	392.63
431.96	399.46
432.33	407.02
432.70	414.28
433.08	422.78
433.45	430.85
433.82	438.88
434.19	447.74
434.56	456.44
434.93	464.76
435.30	472.98
435.68	482.02
436.05	491.08
436.42	500.01
436.79	508.20
437.16	516.98
437.53	526.30
437.90	535.51
438.27	544.51
438.64	553.72
439.01	562.22
439.38	569.83
439.75	577.14
440.13	585.52
440.50	593.46
440.87	599.92
441.24	606.63
441.61	614.02
441.98	619.49
442.35	625.86
442.72	632.29
443.09	638.42
443.46	642.13
443.83	644.61
444.20	646.83
444.57	649.98
444.94	651.45
445.31	652.96
445.68	654.33
446.05	654.96
446.42	654.23
446.79	653.34
447.16	652.30
447.53	651.58
447.90	648.30
448.27	645.07
448.64	640.48
449.01	637.08
449.37	631.19
449.74	625.52
450.11	618.57
450.48	611.14
450.85	603.67
451.22	597.25
451.59	591.14
451.96	585.33
452.33	577.41
452.70	570.30
453.07	561.70
453.43	553.08
453.80	544.71
454.17	536.70
454.54	529.08
454.91	520.78
455.28	512.76
455.65	505.35
456.02	497.83
456.38	491.49
456.75	483.63
457.12	477.00
457.49	470.38
457.86	464.21
458.23	458.77
458.59	452.81
458.96	446.77
459.33	441.41
459.70	435.95
460.07	431.69
460.43	426.80
460.80	422.19
461.17	418.21
461.54	414.00
461.91	409.93
462.27	405.84
462.64	402.45
463.01	398.63
463.38	394.85
463.74	391.14
464.11	387.89
464.48	385.00
464.85	381.89
465.21	379.55
465.58	376.90
465.95	373.76
466.32	371.15
466.68	368.57
467.05	365.99
467.42	363.45
467.78	360.73
468.15	358.17
468.52	356.23
468.88	353.74
469.25	351.51
469.62	349.74
469.98	347.78
470.35	345.99
470.72	344.28
471.08	342.49
471.45	340.96
471.82	339.36
472.18	337.71
472.55	336.46
472.92	335.07
473.28	333.83
473.65	332.66
474.02	331.51
474.38	330.64
474.75	329.83
475.11	328.98
475.48	328.41
475.85	327.91
476.21	327.46
476.58	327.12
476.94	326.89
477.31	326.57
477.67	326.32
478.04	326.13
478.41	326.11
478.77	326.30
479.14	326.25
479.50	326.38
479.87	326.67
480.23	327.04
480.60	327.22
480.96	327.50
481.33	328.10
481.69	328.64
482.06	329.12
482.42	329.58
482.79	330.21
483.15	331.01
483.52	331.98
483.88	332.82
484.25	333.70
484.61	334.71
484.98	335.77
485.34	337.06
485.71	338.44
486.07	339.87
486.44	341.13
486.80	342.73
487.17	344.48
487.53	346.31
487.90	348.19
488.26	350.25
488.62	352.43
488.99	354.50
489.35	356.69
489.72	359.05
490.08	361.61
490.44	364.19
490.81	366.92
491.17	369.64
491.54	372.61
491.90	375.64
492.26	378.85
492.63	382.30
492.99	385.82
493.36	389.49
493.72	393.37
494.08	397.40
494.45	401.65
494.81	405.97
495.17	410.42
495.54	415.11
495.90	419.90
496.26	424.82
496.63	430.00
496.99	435.38
497.35	441.00
497.72	446.83
498.08	452.70
498.44	458.82
498.80	465.24
499.17	471.78
499.53	478.57
499.89	485.55
500.26	492.57
500.62	499.59
500.98	507.01
501.34	514.52
501.71	522.33
502.07	530.13
502.43	538.14
502.79	546.26
503.16	554.68
503.52	563.34
503.88	572.07
504.24	581.03
504.60	590.14
504.97	599.37
505.33	608.69
505.69	618.61
506.05	628.49
506.41	638.39
506.78	648.46
507.14	658.74
507.50	669.15
507.86	679.76
508.22	690.57
508.59	701.25
508.95	712.36
509.31	723.66
509.67	735.17
510.03	746.60
510.39	758.41
510.75	770.23
511.12	782.21
511.48	794.36
511.84	806.66
512.20	819.06
512.56	831.80
512.92	844.71
513.28	857.43
513.64	870.24
514.00	883.09
514.37	896.04
514.73	909.12
515.09	922.21
515.45	935.22
515.81	948.32
516.17	961.81
516.53	975.08
516.89	988.21
517.25	1001.41
517.61	1015.00
517.97	1028.41
518.33	1041.66
518.69	1055.30
519.05	1069.14
519.41	1083.00
519.77	1097.01
520.13	1110.34
520.49	1123.39
520.85	1136.92
521.21	1150.33
521.57	1164.06
521.93	1177.30
522.29	1191.15
522.65	1204.79
523.01	1218.49
523.37	1231.90
523.73	1245.29
524.09	1258.59
524.45	1272.14
524.81	1285.72
525.17	1299.23
525.53	1312.55
525.89	1326.00
526.25	1339.21
526.61	1352.07
526.97	1365.22
527.33	1378.26
527.68	1391.86
528.04	1405.48
528.40	1418.62
528.76	1432.06
529.12	1445.10
529.48	1458.62
529.84	1471.01
530.20	1483.87
530.56	1496.53
530.91	1509.87
531.27	1522.87
531.63	1535.71
531.99	1548.62
532.35	1561.02
532.71	1573.46
533.07	1586.42
533.42	1598.72
533.78	1610.98
534.14	1623.21
534.50	1634.53
534.86	1646.24
535.21	1657.22
535.57	1668.87
535.93	1680.33
536.29	1691.48
536.65	1703.17
537.00	1714.22
537.36	1725.65
537.72	1736.80
538.08	1748.38
538.44	1759.33
538.79	1770.44
539.15	1781.54
539.51	1792.29
539.87	1803.73
540.22	1814.70
540.58	1825.83
540.94	1836.87
541.29	1847.23
541.65	1857.20
542.01	1867.81
542.37	1877.90
542.72	1888.19
543.08	1898.08
543.44	1908.60
543.79	1918.16
544.15	1927.53
544.51	1937.56
544.87	1947.66
545.22	1956.84
545.58	1965.69
545.94	1974.70
546.29	1983.30
546.65	1991.64
547.01	2000.05
547.36	2007.76
547.72	2015.57
548.07	2023.11
548.43	2030.97
548.79	2038.83
549.14	2046.98
549.50	2055.55
549.86	2063.41
550.21	2070.90
550.57	2078.73
550.92	2085.56
551.28	2092.93
551.64	2100.39
551.99	2107.98
552.35	2115.17
552.70	2122.34
553.06	2129.10
553.41	2135.56
553.77	2142.27
554.13	2148.82
554.48	2155.72
554.84	2162.79
555.19	2169.42
555.55	2176.05
555.90	2182.32
556.26	2189.22
556.61	2195.43
556.97	2200.23
557.32	2206.11
557.68	2212.53
558.03	2218.27
558.39	2223.61
558.74	2229.70
559.10	2235.28
559.45	2240.84
559.81	2246.34
560.16	2251.88
560.52	2257.90
560.87	2264.18
561.23	2270.10
561.58	2276.73
561.94	2282.10
562.29	2286.88
562.64	2292.79
563.00	2298.35
563.35	2303.97
563.71	2309.73
564.06	2315.31
564.42	2321.32
564.77	2326.31
565.12	2331.64
565.48	2336.84
565.83	2342.33
566.19	2347.66
566.54	2352.98
566.89	2357.52
567.25	2362.10
567.60	2367.65
567.96	2372.79
568.31	2377.38
568.66	2381.55
569.02	2385.45
569.37	2389.13
569.72	2393.63
570.08	2397.22
570.43	2400.28
570.78	2403.25
571.14	2405.72
571.49	2408.80
571.84	2412.27
572.20	2415.28
572.55	2418.10
572.90	2420.34
573.26	2423.10
573.61	2425.57
573.96	2427.64
574.31	2429.55
574.67	2431.32
575.02	2432.06
575.37	2433.21
575.72	2433.78
576.08	2435.00
576.43	2435.02
576.78	2435.49
577.13	2436.96
577.49	2438.04
577.84	2438.98
578.19	2440.25
578.54	2440.61
578.90	2441.18
579.25	2440.98
579.60	2440.61
579.95	2439.75
580.30	2439.73
580.66	2438.99
581.01	2437.22
581.36	2434.70
581.71	2433.29
582.06	2432.04
582.42	2431.05
582.77	2428.76
583.12	2426.98
583.47	2425.55
583.82	2424.82
584.17	2423.58
584.53	2421.25
584.88	2418.97
585.23	2417.09
585.58	2414.86
585.93	2412.72
586.28	2410.41
586.63	2407.78
586.98	2405.72
587.34	2403.51
587.69	2400.92
588.04	2398.71
588.39	2397.21
588.74	2394.49
589.09	2391.52
589.44	2388.31
589.79	2385.64
590.14	2383.58
590.49	2380.79
590.84	2376.99
591.19	2373.70
591.54	2370.18
591.89	2366.04
592.25	2362.70
592.60	2358.23
592.95	2353.68
593.30	2349.49
593.65	2345.03
594.00	2340.50
594.35	2337.35
594.70	2332.66
595.05	2328.11
595.40	2322.65
595.75	2316.78
596.10	2313.18
596.45	2308.34
596.80	2303.53
597.15	2298.39
597.50	2292.50
597.85	2287.45
598.19	2282.11
598.54	2276.23
598.89	2270.89
599.24	2266.33
599.59	2260.13
599.94	2254.41
600.29	2248.48
600.64	2242.56
600.99	2235.63
601.34	2230.11
601.69	2223.05
602.04	2216.59
602.39	2209.71
602.74	2203.54
603.08	2197.91
603.43	2191.49
603.78	2184.61
604.13	2177.57
604.48	2170.23
604.83	2164.00
605.18	2157.80
605.53	2150.77
605.87	2143.73
606.22	2136.91
606.57	2128.88
606.92	2121.04
607.27	2113.98
607.62	2107.41
607.96	2100.28
608.31	2093.79
608.66	2086.07
609.01	2078.40
609.36	2071.37
609.70	2063.65
610.05	2055.81
610.40	2047.60
610.75	2039.04
611.10	2031.18
611.44	2022.22
611.79	2013.52
612.14	2003.53
612.49	1992.73
612.83	1983.40
613.18	1974.09
613.53	1964.77
613.88	1955.18
614.22	1946.42
614.57	1936.52
614.92	1925.88
615.27	1915.73
615.61	1905.67
615.96	1895.89
616.31	1886.15
616.65	1876.74
617.00	1867.01
617.35	1857.23
617.70	1847.34
618.04	1837.39
618.39	1827.28
618.74	1817.70
619.08	1807.96
619.43	1799.25
619.78	1790.97
620.12	1782.41
620.47	1772.86
620.82	1762.58
621.16	1752.80
621.51	1742.87
621.85	1733.10
622.20	1722.81
622.55	1712.21
622.89	1702.29
623.24	1692.56
623.59	1682.84
623.93	1672.64
624.28	1662.95
624.62	1652.97
624.97	1642.69
625.32	1632.96
625.66	1624.09
626.01	1615.41
626.35	1606.19
626.70	1596.07
627.04	1586.07
627.39	1575.89
627.73	1566.72
628.08	1557.82
628.43	1548.29
628.77	1539.15
629.12	1530.23
629.46	1522.41
629.81	1514.06
630.15	1504.55
630.50	1494.77
630.84	1484.29
631.19	1474.32
631.53	1464.99
631.88	1454.83
632.22	1444.99
632.57	1435.61
632.91	1425.45
633.26	1415.55
633.60	1405.94
633.95	1396.72
634.29	1387.18
634.64	1377.92
634.98	1367.86
635.32	1358.57
635.67	1350.06
636.01	1340.78
636.36	1331.13
636.70	1321.51
637.05	1312.19
637.39	1303.26
637.73	1294.72
638.08	1287.24
638.42	1279.26
638.77	1270.57
639.11	1262.38
639.45	1254.63
639.80	1246.11
640.14	1237.50
640.49	1228.71
640.83	1219.88
641.17	1211.79
641.52	1203.74
641.86	1195.21
642.20	1187.42
642.55	1178.75
642.89	1169.94
643.23	1161.26
643.58	1153.15
643.92	1144.10
644.26	1135.41
644.61	1126.95
644.95	1118.06
645.29	1108.76
645.64	1099.54
645.98	1090.84
646.32	1082.94
646.66	1074.30
647.01	1065.90
647.35	1057.81
647.69	1049.47
648.04	1041.09
648.38	1032.21
648.72	1023.34
649.06	1014.90
649.41	1006.64
649.75	998.65
650.09	990.72
650.43	982.75
650.78	974.35
651.12	966.61
651.46	959.23
651.80	952.05
652.14	944.75
652.49	937.27
652.83	929.85
653.17	922.26
653.51	914.52
653.85	907.23
654.20	900.07
654.54	892.50
654.88	885.13
655.22	878.03
655.56	870.95
655.90	864.17
656.25	857.39
656.59	850.44
656.93	843.44
657.27	836.27
657.61	829.20
657.95	823.12
658.29	817.18
658.64	811.00
658.98	804.50
659.32	797.99
659.66	791.68
660.00	785.30
660.34	779.22
660.68	773.09
661.02	766.71
661.36	760.70
661.70	754.91
662.05	749.31
662.39	743.70
662.73	738.29
663.07	732.94
663.41	727.27
663.75	721.57
664.09	715.83
664.43	710.34
664.77	705.02
665.11	699.11
665.45	693.25
665.79	687.36
666.13	681.62
666.47	676.07
666.81	670.67
667.15	665.29
667.49	659.98
667.83	654.71
668.17	649.45
668.51	644.27
668.85	639.34
669.19	634.39
669.53	629.34
669.87	624.20
670.21	619.40
670.55	614.66
670.89	610.15
671.23	605.80
671.57	601.44
671.91	597.06
672.25	592.91
672.58	588.74
672.92	584.66
673.26	580.66
673.60	576.76
673.94	572.91
674.28	569.33
674.62	565.65
674.96	561.87
675.30	558.34
675.64	554.63
675.97	550.97
676.31	547.38
676.65	543.74
676.99	540.34
677.33	536.37
677.67	532.70
678.01	528.86
678.34	525.16
678.68	521.62
679.02	517.98
679.36	514.24
679.70	510.56
680.04	506.97
680.37	503.54
680.71	500.16
681.05	496.85
681.39	493.49
681.73	490.24
682.06	487.16
682.40	484.07
682.74	480.83
683.08	477.60
683.42	474.33
683.75	471.32
684.09	468.19
684.43	465.46
684.77	462.54
685.10	459.61
685.44	456.64
685.78	453.63
686.12	450.84
686.45	448.08
686.79	445.40
687.13	442.82
687.46	440.13
687.80	437.40
688.14	434.56
688.48	431.91
688.81	429.21
689.15	426.64
689.49	423.98
689.82	421.45
690.16	418.82
690.50	416.36
690.83	413.75
691.17	411.20
691.51	408.63
691.84	406.34
692.18	404.12
692.52	401.93
692.85	399.87
693.19	397.69
693.52	395.48
693.86	393.17
694.20	390.96
694.53	388.77
694.87	386.60
695.21	384.49
695.54	382.32
695.88	380.14
696.21	377.88
696.55	375.69
696.88	373.56
697.22	371.52
697.56	369.57
697.89	367.67
698.23	365.86
698.56	364.05
698.90	362.22
699.23	360.34
699.57	358.43
699.90	356.47
700.24	354.62
700.58	352.85
700.91	351.15
701.25	349.59
701.58	347.98
701.92	346.33
702.25	344.68
702.59	343.00
702.92	341.44
703.26	339.81
703.59	338.39
703.93	337.12
704.26	335.70
704.60	334.16
704.93	332.70
705.26	331.21
705.60	329.73
705.93	328.18
706.27	326.80
706.60	325.51
706.94	324.27
707.27	322.91
707.61	321.56
707.94	320.24
708.27	318.68
708.61	317.17
708.94	315.77
709.28	314.45
709.61	313.22
709.94	311.96
710.28	310.77
710.61	309.50
710.95	308.07
711.28	306.96
711.61	305.80
711.95	304.63
712.28	303.40
712.61	302.18
712.95	301.14
713.28	300.11
713.61	298.93
713.95	297.75
714.28	296.68
714.61	295.60
714.95	294.52
715.28	293.47
715.61	292.45
715.95	291.47
716.28	290.49
716.61	289.52
716.95	288.48
717.28	287.55
717.61	286.59
717.94	285.66
718.28	284.60
718.61	283.69
718.94	282.76
719.27	281.89
719.61	281.09
719.94	280.16
720.27	279.15
720.60	278.30
720.94	277.50
721.27	276.70
721.60	276.03
721.93	275.34
722.27	274.70
722.60	274.05
722.93	273.32
723.26	272.66
723.59	271.93
723.93	271.33
724.26	270.62
724.59	269.96
724.92	269.37
725.25	268.86
725.59	268.27
725.92	267.75
726.25	267.19
726.58	266.55
726.91	265.95
727.24	265.43
727.57	264.81
727.91	264.16
728.24	263.60
728.57	263.00
728.90	262.40
729.23	261.75
729.56	261.29
729.89	260.73
730.22	260.14
730.55	259.57
730.89	259.02
731.22	258.47
731.55	257.95
731.88	257.41
732.21	256.80
732.54	256.21
732.87	255.70
733.20	255.17
733.53	254.70
733.86	254.23
734.19	253.73
734.52	253.31
734.85	253.05
735.18	252.58
735.51	252.15
735.84	251.73
736.17	251.37
736.50	250.82
736.83	250.66
737.16	250.27
737.49	249.89
737.82	249.45
738.15	249.11
738.48	248.71
738.81	248.28
739.14	247.90
739.47	247.52
739.80	247.15
740.13	246.82
740.46	246.41
740.79	246.01
741.12	245.62
741.45	245.26
741.78	244.79
742.11	244.49
742.44	244.11
742.77	243.82
743.10	243.45
743.43	243.07
743.75	242.52
744.08	242.42
744.41	242.04
744.74	241.70
745.07	241.30
745.40	240.98
745.73	240.76
746.06	240.39
746.39	240.11
746.71	239.75
747.04	239.39
747.37	239.08
747.70	238.81
748.03	238.51
748.36	238.26
748.68	237.96
749.01	237.61
749.34	237.29
749.67	236.96
750.00	236.71
750.33	236.58
750.65	236.33
750.98	235.82
751.31	235.61
751.64	235.39
751.97	235.29
752.29	235.04
752.62	234.69
752.95	234.45
753.28	234.19
753.60	233.93
753.93	233.78
754.26	233.58
754.59	233.32
754.91	233.07
755.24	232.78
755.57	232.54
755.90	232.31
756.22	232.09
756.55	231.86
756.88	231.62
757.20	231.29
757.53	231.01
757.86	230.79
758.19	230.57
758.51	230.34
758.84	230.05
759.17	229.83
759.49	229.67
759.82	229.60
760.15	229.44
760.47	229.25
760.80	228.95
761.13	228.79
761.45	228.61
761.78	228.43
762.11	228.24
762.43	228.05
762.76	227.88
763.08	227.74
763.41	227.60
763.74	227.44
764.06	227.27
764.39	227.13
764.71	226.96
765.04	226.77
765.37	226.62
765.69	226.45
766.02	226.31
766.34	226.15
766.67	225.91
767.00	225.77
767.32	225.74
767.65	225.71
767.97	225.53
768.30	225.37
768.62	225.26
768.95	225.15
769.27	225.03
769.60	224.96
769.92	224.80
770.25	224.60
770.57	224.48
770.90	224.34
771.22	224.18
771.55	224.07
771.87	223.98
772.20	223.85
772.52	223.90
772.85	224.03
773.17	223.92
773.50	223.80
773.82	223.68
774.15	223.49
774.47	223.26
774.80	223.20
775.12	223.12
775.45	223.04
775.77	222.94
776.09	222.86
776.42	222.71
776.74	222.67
777.07	222.61
777.39	222.50
777.72	222.40
778.04	222.35
778.36	222.26
778.69	222.19
779.01	222.11
779.33	221.81
779.66	221.47
779.98	221.38
780.31	221.31
780.63	221.27
780.95	221.22
781.28	221.16
781.60	221.06
781.92	221.01
782.25	220.90
782.57	220.85
782.89	220.72
783.22	220.66
783.54	220.55
783.86	220.48
784.19	220.43
784.51	220.45
784.83	220.36
785.16	220.28
785.48	220.20
785.80	220.15
786.12	220.15
786.45	220.11
786.77	220.12
787.09	220.05
787.42	219.95
787.74	219.91
788.06	219.87
788.38	219.80
788.71	219.70
789.03	219.65
789.35	219.62
789.67	219.59
789.99	219.54
790.32	219.50
790.64	219.46
790.96	219.60
791.28	219.43
791.61	219.41
791.93	219.37
792.25	219.33
792.57	219.44
792.89	219.36
793.21	219.30
793.54	219.18
793.86	219.08
794.18	219.03
794.50	218.93
794.82	218.89
795.14	218.84
795.47	218.84
795.79	218.79
796.11	218.74
796.43	218.66
796.75	218.65
797.07	218.59
797.39	218.53
797.71	218.32
798.04	218.35
798.36	218.31
798.68	218.29
799.00	218.28
799.32	218.10
799.64	218.12
799.96	218.08
800.28	218.08
800.60	218.08
800.92	218.06
801.24	218.00
801.56	217.98
801.89	217.93
802.21	217.89
802.53	217.84
802.85	217.83
803.17	217.92
803.49	217.81
803.81	217.75
804.13	217.71
804.45	217.65
804.77	217.61
805.09	217.55
805.41	217.49
805.73	217.40
806.05	217.31
806.37	217.27
806.69	217.20
807.01	217.15
807.33	217.14
807.65	217.06
807.97	217.13
808.28	217.08
808.60	217.10
808.92	217.05
809.24	217.15
809.56	217.07
809.88	216.98
810.20	216.98
810.52	217.00
810.84	216.96
811.16	216.92
811.48	216.87
811.80	216.90
812.12	216.89
812.43	216.92
812.75	216.94
813.07	216.89
813.39	216.90
813.71	216.85
814.03	216.78
814.35	216.76
814.67	216.67
814.98	216.61
815.30	216.53
815.62	216.47
815.94	216.31
816.26	216.30
816.58	216.22
816.89	216.24
817.21	216.17
817.53	216.16
817.85	216.15
818.17	216.15
818.48	216.08
818.80	216.11
819.12	216.06
819.44	216.00
819.76	215.95
820.07	215.92
820.39	215.90
820.71	215.95
821.03	215.92
821.34	215.90
821.66	215.92
821.98	215.93
822.30	215.90
822.61	216.02
822.93	216.00
823.25	216.02
823.57	215.95
823.88	215.99
824.20	215.99
824.52	216.00
824.83	215.94
825.15	215.93
825.47	215.91
825.79	215.91
826.10	215.89
826.42	215.91
826.74	215.92
827.05	215.90
827.37	215.87
827.69	215.85
828.00	215.84
828.32	215.83
828.64	215.82
828.95	215.93
829.27	215.87
829.58	215.87
829.90	215.88
830.22	215.93
830.53	215.87
830.85	215.84
831.17	215.82
831.48	215.83
831.80	215.81
832.11	215.77
832.43	215.73
832.75	215.71
833.06	215.83
833.38	215.78
833.69	215.77
834.01	215.78
834.32	215.79
834.64	215.77
834.96	215.75
835.27	215.76
835.59	215.70
835.90	215.61
836.22	215.57
836.53	215.52
836.85	215.44
837.16	215.62
837.48	215.63
837.79	215.69
838.11	215.68
838.42	215.67
838.74	215.68
839.05	215.67
839.37	215.70
839.68	215.54
840.00	215.53
840.31	215.56
840.63	215.52
840.94	215.47
841.26	215.43
841.57	215.44
841.88	215.42
842.20	215.37
842.51	215.36
842.83	215.37
843.14	215.51
843.46	215.55
843.77	215.45
844.08	215.42
844.40	215.33
844.71	215.27
845.03	215.24
845.34	215.21
845.65	215.19
845.97	215.15
846.28	215.15
846.60	215.14
846.91	215.06
847.22	215.05
847.54	215.11
847.85	215.11
848.16	215.07
848.48	215.04
848.79	215.12
849.10	215.14
849.42	215.11
849.73	214.92
850.04	214.88
850.36	214.79
850.67	214.81
850.98	214.80
851.30	214.86
851.61	214.87
851.92	214.85
852.23	214.90
852.55	214.90
852.86	214.90
853.17	214.94
853.49	215.00
853.80	215.03
854.11	215.03
854.42	215.04
854.74	214.99
855.05	215.01
855.36	214.90
855.67	214.89
855.99	214.92
856.30	215.18
856.61	215.18
856.92	215.19
857.23	215.20
857.55	215.16
857.86	215.13
858.17	215.17
858.48	215.16
858.79	215.09
859.11	215.12
859.42	215.11
859.73	215.06
860.04	215.02
860.35	214.96
860.66	214.90
860.98	214.93
861.29	215.00
861.60	214.95
861.91	214.97
862.22	214.95
862.53	214.88
862.84	214.63
863.16	214.70
863.47	214.65
863.78	214.60
864.09	214.63
864.40	214.66
864.71	214.63
865.02	214.64
865.33	214.62
865.64	214.57
865.95	214.55
866.27	214.70
866.58	214.72
866.89	214.70
867.20	214.71
867.51	214.68
867.82	214.64
868.13	214.70
868.44	214.68
868.75	214.75
869.06	214.79
869.37	214.80
869.68	214.74
869.99	214.78
870.30	214.79
870.61	214.81
870.92	214.76
871.23	214.78
871.54	214.79
871.85	214.89
872.16	214.92
872.47	214.91
872.78	214.77
873.09	214.77
873.40	214.80
873.71	214.79
874.02	214.80
874.33	214.81
874.64	214.77
874.95	214.82
875.26	214.73
875.56	214.72
875.87	214.70
876.18	214.68
876.49	214.90
876.80	214.90
877.11	214.85
877.42	214.87
877.73	214.85
878.04	214.84
878.35	214.81
878.66	214.80
878.96	214.78
879.27	214.77
879.58	214.72
879.89	214.70
880.20	214.78
880.51	214.73
880.82	214.71
881.12	214.70
881.43	214.62
881.74	214.60
882.05	214.56
882.36	214.58
882.67	214.60
882.97	214.36
883.28	214.31
883.59	214.28
883.90	214.30
884.21	214.27
884.51	214.23
884.82	214.21
885.13	214.24
885.44	214.24
885.74	214.22
886.05	214.24
886.36	214.23
886.67	214.13
886.98	214.21
887.28	214.22
887.59	214.25
887.90	214.28
888.20	214.27
888.51	214.32
888.82	214.28
889.13	214.30
889.43	214.48
889.74	214.50
890.05	214.53
890.35	214.50
890.66	214.51
890.97	214.50
891.28	214.44
891.58	214.44
891.89	214.43
892.20	214.42
892.50	214.42
892.81	214.39
893.12	214.40
893.42	214.32
893.73	214.34
894.04	214.31
894.34	214.33
894.65	214.33
894.95	214.32
895.26	214.35
895.57	214.42
895.87	214.20
896.18	214.20
896.48	214.21
896.79	214.20
897.10	214.23
897.40	214.26
897.71	214.31
898.01	214.27
898.32	214.32
898.63	214.31
898.93	214.31
899.24	214.35
899.54	214.32
899.85	214.32
900.15	214.31
900.46	214.26
900.76	214.27
901.07	214.30
901.38	214.28
901.68	214.28
901.99	214.20
902.29	214.22
902.60	214.22
902.90	214.20
903.21	214.19
903.51	214.16
903.82	214.23
904.12	214.20
904.43	214.21
904.73	214.21
905.03	214.25
905.34	214.43
905.64	214.42
905.95	214.44
906.25	214.41
906.56	214.40
906.86	214.44
907.17	214.41
907.47	214.39
907.77	214.38
908.08	214.35
908.38	214.34
908.69	214.33
908.99	214.35
909.30	214.36
909.60	214.38
909.90	214.40
910.21	214.31
910.51	214.30
910.81	214.32
911.12	214.31
911.42	214.30
911.73	214.12
912.03	214.11
912.33	214.13
912.64	214.17
912.94	214.16
913.24	214.14
913.55	214.11
913.85	214.12
914.15	214.16
914.46	214.15
914.76	214.16
915.06	214.17
915.37	214.16
915.67	214.16
915.97	214.16
916.27	214.14
916.58	214.16
916.88	214.16
917.18	214.13
917.49	214.25
917.79	214.26
918.09	214.26
918.39	214.33
918.70	214.33
919.00	214.33
919.30	214.43
919.60	214.41
919.91	214.42
920.21	214.43
920.51	214.37
920.81	214.40
921.12	214.42
921.42	214.40
921.72	214.41
922.02	214.44
922.32	214.49
922.63	214.46
922.93	214.57
923.23	214.59
923.53	214.57
923.83	214.50
924.13	214.52
924.44	214.55
924.74	214.57
925.04	214.62
925.34	214.62
925.64	214.50
925.94	214.52
926.24	214.64
926.55	214.61
926.85	214.66
927.15	214.63
927.45	214.65
927.75	214.66
928.05	214.62
928.35	214.57
928.65	214.61
928.95	214.64
929.26	214.55
929.56	214.56
929.86	214.56
930.16	214.50
930.46	214.46
930.76	214.44
931.06	214.33
931.36	214.29
931.66	214.31
931.96	214.38
932.26	214.41
932.56	214.32
932.86	214.34
933.16	214.37
933.46	214.36
933.76	214.30
934.06	214.37
934.36	214.46
934.66	214.49
934.96	214.44
935.26	214.43
935.56	214.46
935.86	214.42
936.16	214.42
936.46	214.38
936.76	214.39
937.06	214.37
937.36	214.40
937.66	214.37
937.96	214.36
938.26	214.28
938.56	214.26
938.86	214.25
939.16	214.27
939.46	214.22
939.76	214.23
940.06	214.22
940.35	214.14
940.65	214.03
940.95	214.02
941.25	213.96
941.55	213.95
941.85	213.94
942.15	214.00
942.45	214.04
942.75	214.09
943.04	214.11
943.34	214.15
943.64	214.14
943.94	214.13
944.24	214.13
944.54	214.14
944.84	214.13
945.13	214.14
945.43	214.12
945.73	214.16
946.03	214.15
946.33	214.17
946.62	214.18
946.92	214.18
947.22	214.21
947.52	214.24
947.82	214.27
948.11	214.23
948.41	214.19
948.71	214.13
949.01	214.15
949.31	214.10
949.60	214.09
949.90	214.12
950.20	214.10
950.50	214.09
950.79	214.11
951.09	214.15
951.39	214.12
951.69	214.11
951.98	214.13
952.28	214.15
952.58	214.16
952.87	214.13
953.17	214.16
953.47	214.12
953.76	214.11
954.06	214.06
954.36	214.04
954.66	214.01
954.95	214.09
955.25	214.10
955.55	214.13
955.84	214.08
956.14	214.10
956.44	214.09
956.73	214.07
957.03	214.11
957.32	214.08
957.62	214.07
957.92	214.13
958.21	214.08
958.51	214.31
958.81	214.30
959.10	214.35
959.40	214.40
959.69	214.45
959.99	214.49
960.29	214.53
960.58	214.54
960.88	214.63
961.17	214.59
961.47	214.59
961.76	214.57
962.06	214.65
962.36	214.58
962.65	214.62
962.95	214.63
963.24	214.57
963.54	214.57
963.83	214.62
964.13	214.58
964.42	214.55
964.72	214.36
965.01	214.35
965.31	214.35
965.60	214.29
965.90	214.37
966.19	214.31
966.49	214.28
966.78	214.27
967.08	214.27
967.37	214.27
967.67	214.20
967.96	214.24
968.26	214.22
968.55	214.28
968.85	214.26
969.14	214.25
969.43	214.25
969.73	214.26
970.02	214.20
970.32	214.20
970.61	214.19
970.91	214.12
971.20	214.10
971.49	214.06
971.79	214.09
972.08	213.95
972.38	213.96
972.67	213.99
972.96	214.01
973.26	213.97
973.55	214.04
973.85	214.06
974.14	214.02
974.43	214.01
974.73	213.97
975.02	213.94
975.31	213.95
975.61	213.94
975.90	213.92
976.19	213.89
976.49	213.91
976.78	213.93
977.07	213.94
977.37	213.98
977.66	214.01
977.95	213.99
978.24	214.02
978.54	214.07
978.83	214.05
979.12	214.01
979.42	213.98
979.71	213.94
980.00	213.92
980.29	213.95
980.59	213.90
980.88	213.93
981.17	213.96
981.46	213.97
981.76	213.98
982.05	214.06
982.34	214.11
982.63	214.12
982.93	214.15
983.22	214.19
983.51	214.16
983.80	214.22
984.09	214.24
984.39	214.23
984.68	214.21
984.97	214.20
985.26	214.18
985.55	214.23
985.85	214.20
986.14	214.22
986.43	214.24
986.72	214.23
987.01	214.19
987.30	214.20
987.59	214.19
987.89	214.20
988.18	214.13
988.47	214.11
988.76	214.06
989.05	214.02
989.34	213.98
989.63	214.03
989.92	213.96
990.22	213.93
990.51	213.92
990.80	213.88
991.09	213.88
991.38	213.91
991.67	213.88
991.96	213.85
992.25	213.88
992.54	213.86
992.83	213.88
993.12	213.84
993.41	213.88
993.70	213.94
993.99	213.97
994.28	213.99
994.58	214.00
994.87	214.00
995.16	214.00
995.45	214.01
995.74	213.95
996.03	214.00
996.32	214.04
996.61	214.10
996.90	214.09
997.19	214.09
997.48	214.12
997.77	214.10
998.06	214.12
998.34	214.07
998.63	214.02
998.92	214.02
999.21	214.07
999.50	214.05
999.79	213.95
1000.08	213.98
1000.37	213.97
1000.66	213.95
1000.95	213.99
1001.24	213.99
1001.53	214.01
1001.82	214.00
1002.11	213.94
1002.40	213.93
1002.68	213.94
1002.97	214.11
1003.26	214.10
1003.55	214.03
1003.84	214.04
1004.13	214.10
1004.42	214.10
1004.71	214.14
1004.99	214.14
1005.28	214.21
1005.57	214.21
1005.86	214.20
1006.15	214.17
1006.44	214.16
1006.72	214.17
1007.01	214.14
1007.30	214.14
1007.59	214.10
1007.88	214.11
1008.17	214.14
1008.45	214.08
1008.74	213.98
1009.03	213.89
1009.32	213.89
1009.60	213.89
1009.89	213.89
1010.18	213.83
1010.47	213.84
1010.76	213.82
1011.04	213.81
1011.33	213.81
1011.62	213.84
1011.91	213.89
1012.19	213.90
1012.48	213.90
1012.77	213.92
1013.05	213.98
1013.34	214.01
1013.63	214.00
1013.92	213.99
1014.20	213.98
1014.49	214.04
1014.78	214.09
1015.06	214.05
1015.35	214.04
1015.64	214.09
1015.92	214.10
1016.21	214.10
1016.50	214.09
1016.78	214.11
1017.07	214.07
1017.36	214.02
1017.64	213.96
1017.93	213.95
1018.22	213.93
1018.50	213.93
1018.79	213.92
1019.08	213.83
1019.36	213.83
1019.65	213.83
1019.93	213.91
1020.22	213.93
1020.51	214.00
1020.79	213.94
1021.08	213.92
1021.36	213.61
1021.65	214.10
1021.94	213.56
1022.22	214.05
1022.51	213.52
1022.79	215.03
1023.08	214.25
1023.36	215.95
1023.65	213.11
>>>>>End Processed Spectral Data<<<<<
