SpectraSuite Data File
++++++++++++++++++++++++++++++++++++
Date: Tue Jan 29 16:19:32 EST 2013
User: group
Dark Spectrum Present: No
Reference Spectrum Present: No
Number of Sampled Component Spectra: 1
Spectrometers: USB2E7196
Integration Time (usec): 65000 (USB2E7196)
Spectra Averaged: 100 (USB2E7196)
Boxcar Smoothing: 10 (USB2E7196)
Correct for Electrical Dark: No (USB2E7196)
Strobe/Lamp Enabled: No (USB2E7196)
Correct for Detector Non-linearity: No (USB2E7196)
Correct for Stray Light: No (USB2E7196)
Number of Pixels in Processed Spectrum: 2048
>>>>>Begin Processed Spectral Data<<<<<
339.09	0.00
339.48	201.92
339.86	203.61
340.24	204.54
340.63	206.61
341.01	210.80
341.39	209.18
341.78	210.51
342.16	211.74
342.54	212.36
342.93	201.21
343.31	211.42
343.69	212.00
344.07	212.47
344.46	212.93
344.84	213.30
345.22	213.47
345.60	213.71
345.99	213.93
346.37	214.07
346.75	214.19
347.13	214.30
347.52	214.37
347.90	214.51
348.28	214.59
348.66	214.69
349.05	214.66
349.43	214.79
349.81	214.88
350.19	214.93
350.57	215.02
350.96	215.13
351.34	215.20
351.72	215.28
352.10	215.40
352.48	215.48
352.87	215.58
353.25	215.66
353.63	215.76
354.01	215.81
354.39	215.91
354.77	216.00
355.15	216.12
355.54	216.19
355.92	216.17
356.30	216.23
356.68	216.43
357.06	216.54
357.44	216.55
357.82	216.59
358.20	216.69
358.58	216.77
358.97	216.86
359.35	216.97
359.73	217.09
360.11	217.14
360.49	217.20
360.87	217.19
361.25	217.27
361.63	217.41
362.01	217.46
362.39	217.49
362.77	217.53
363.15	217.55
363.53	217.58
363.91	217.64
364.29	217.68
364.67	217.46
365.05	217.46
365.43	217.50
365.81	217.57
366.19	217.69
366.57	217.76
366.95	217.74
367.33	217.70
367.71	217.69
368.09	217.73
368.47	217.74
368.85	217.73
369.23	217.76
369.61	217.67
369.99	217.76
370.37	217.82
370.75	217.90
371.13	217.84
371.51	217.78
371.89	217.74
372.27	217.69
372.65	217.72
373.03	217.74
373.41	217.73
373.78	217.66
374.16	217.55
374.54	217.44
374.92	217.36
375.30	217.32
375.68	217.24
376.06	217.20
376.44	217.15
376.82	217.16
377.19	217.13
377.57	217.05
377.95	216.90
378.33	216.80
378.71	216.65
379.09	216.64
379.47	216.66
379.84	216.60
380.22	216.57
380.60	216.50
380.98	216.45
381.36	216.34
381.73	216.28
382.11	216.24
382.49	216.20
382.87	216.16
383.25	216.11
383.62	216.30
384.00	216.22
384.38	216.19
384.76	216.19
385.13	216.21
385.51	216.18
385.89	216.09
386.27	216.01
386.64	215.98
387.02	215.97
387.40	215.91
387.78	215.92
388.15	215.88
388.53	215.84
388.91	215.79
389.29	215.80
389.66	215.82
390.04	215.80
390.42	215.81
390.79	215.82
391.17	215.81
391.55	215.58
391.92	215.58
392.30	215.59
392.68	215.53
393.05	215.50
393.43	215.52
393.81	215.57
394.18	215.58
394.56	215.61
394.94	215.63
395.31	215.61
395.69	215.65
396.06	215.69
396.44	215.73
396.82	215.71
397.19	215.81
397.57	215.83
397.95	215.85
398.32	215.82
398.70	215.89
399.07	215.99
399.45	216.03
399.82	216.08
400.20	216.10
400.58	216.16
400.95	216.15
401.33	216.25
401.70	216.48
402.08	216.60
402.45	216.66
402.83	216.77
403.20	216.86
403.58	216.94
403.95	217.08
404.33	217.23
404.71	217.39
405.08	217.61
405.46	217.78
405.83	217.99
406.21	218.23
406.58	218.43
406.96	218.68
407.33	218.91
407.70	219.21
408.08	219.64
408.45	220.01
408.83	220.36
409.20	220.68
409.58	220.91
409.95	221.36
410.33	221.84
410.70	222.30
411.08	222.87
411.45	223.44
411.82	224.01
412.20	224.67
412.57	225.50
412.95	226.04
413.32	226.83
413.69	227.62
414.07	228.45
414.44	229.40
414.82	230.33
415.19	231.51
415.56	232.67
415.94	233.86
416.31	235.22
416.68	236.61
417.06	238.19
417.43	239.74
417.81	241.46
418.18	243.22
418.55	245.08
418.93	247.09
419.30	249.16
419.67	251.34
420.04	253.58
420.42	255.92
420.79	258.74
421.16	261.48
421.54	264.33
421.91	267.31
422.28	270.36
422.66	273.61
423.03	276.76
423.40	280.07
423.77	283.61
424.15	287.17
424.52	290.94
424.89	295.04
425.26	299.02
425.64	302.81
426.01	307.00
426.38	311.42
426.75	315.84
427.13	320.47
427.50	325.35
427.87	330.52
428.24	335.61
428.61	340.49
428.99	345.93
429.36	351.81
429.73	357.61
430.10	363.40
430.47	369.35
430.85	375.61
431.22	382.19
431.59	389.15
431.96	395.92
432.33	403.24
432.70	410.36
433.08	418.75
433.45	426.61
433.82	434.45
434.19	443.20
434.56	451.78
434.93	459.96
435.30	468.05
435.68	476.92
436.05	485.70
436.42	494.42
436.79	502.41
437.16	511.01
437.53	520.13
437.90	529.09
438.27	537.90
438.64	546.92
439.01	555.29
439.38	562.67
439.75	569.86
440.13	578.17
440.50	585.93
440.87	592.22
441.24	598.77
441.61	606.01
441.98	611.19
442.35	617.39
442.72	623.53
443.09	629.49
443.46	633.20
443.83	635.72
444.20	637.95
444.57	641.05
444.94	642.47
445.31	643.93
445.68	645.33
446.05	645.88
446.42	645.11
446.79	644.11
447.16	643.09
447.53	642.30
447.90	639.02
448.27	635.85
448.64	631.35
449.01	628.02
449.37	622.21
449.74	616.69
450.11	609.89
450.48	602.74
450.85	595.37
451.22	589.03
451.59	583.02
451.96	577.18
452.33	569.37
452.70	562.42
453.07	554.02
453.43	545.52
453.80	537.40
454.17	529.54
454.54	522.16
454.91	514.16
455.28	506.31
455.65	499.07
456.02	491.72
456.38	485.45
456.75	477.83
457.12	471.38
457.49	464.97
457.86	458.92
458.23	453.63
458.59	447.89
458.96	441.95
459.33	436.70
459.70	431.46
460.07	427.37
460.43	422.56
460.80	418.08
461.17	414.15
461.54	410.05
461.91	406.12
462.27	402.08
462.64	398.71
463.01	395.00
463.38	391.37
463.74	387.70
464.11	384.52
464.48	381.75
464.85	378.74
465.21	376.39
465.58	373.82
465.95	370.71
466.32	368.10
466.68	365.61
467.05	363.09
467.42	360.61
467.78	357.92
468.15	355.47
468.52	353.61
468.88	351.19
469.25	349.08
469.62	347.38
469.98	345.51
470.35	343.73
470.72	342.05
471.08	340.28
471.45	338.82
471.82	337.35
472.18	335.68
472.55	334.50
472.92	333.10
473.28	331.94
473.65	330.88
474.02	329.83
474.38	328.95
474.75	328.23
475.11	327.46
475.48	326.96
475.85	326.50
476.21	326.06
476.58	325.75
476.94	325.51
477.31	325.18
477.67	324.96
478.04	324.81
478.41	324.84
478.77	324.95
479.14	324.94
479.50	325.07
479.87	325.37
480.23	325.70
480.60	326.00
480.96	326.23
481.33	326.81
481.69	327.36
482.06	327.88
482.42	328.39
482.79	329.00
483.15	329.78
483.52	330.69
483.88	331.56
484.25	332.48
484.61	333.46
484.98	334.45
485.34	335.76
485.71	337.16
486.07	338.60
486.44	339.98
486.80	341.55
487.17	343.22
487.53	345.07
487.90	346.95
488.26	349.00
488.62	351.24
488.99	353.28
489.35	355.47
489.72	357.83
490.08	360.35
490.44	362.88
490.81	365.56
491.17	368.32
491.54	371.27
491.90	374.32
492.26	377.63
492.63	381.11
492.99	384.61
493.36	388.24
493.72	392.15
494.08	396.23
494.45	400.48
494.81	404.89
495.17	409.34
495.54	414.06
495.90	418.82
496.26	423.72
496.63	428.93
496.99	434.33
497.35	439.91
497.72	445.73
498.08	451.73
498.44	457.92
498.80	464.33
499.17	470.85
499.53	477.55
499.89	484.46
500.26	491.45
500.62	498.59
500.98	506.04
501.34	513.48
501.71	521.18
502.07	529.07
502.43	537.06
502.79	545.24
503.16	553.65
503.52	562.34
503.88	571.11
504.24	580.11
504.60	589.16
504.97	598.38
505.33	607.65
505.69	617.49
506.05	627.32
506.41	637.21
506.78	647.27
507.14	657.55
507.50	667.95
507.86	678.64
508.22	689.40
508.59	700.11
508.95	711.22
509.31	722.52
509.67	733.93
510.03	745.39
510.39	757.17
510.75	769.01
511.12	780.93
511.48	793.01
511.84	805.30
512.20	817.65
512.56	830.39
512.92	843.23
513.28	855.87
513.64	868.61
514.00	881.49
514.37	894.46
514.73	907.59
515.09	920.56
515.45	933.48
515.81	946.53
516.17	959.86
516.53	973.11
516.89	986.16
517.25	999.37
517.61	1012.88
517.97	1026.15
518.33	1039.26
518.69	1052.86
519.05	1066.53
519.41	1080.14
519.77	1094.07
520.13	1107.38
520.49	1120.56
520.85	1133.87
521.21	1147.20
521.57	1160.83
521.93	1173.93
522.29	1187.66
522.65	1201.40
523.01	1215.05
523.37	1228.19
523.73	1241.46
524.09	1254.61
524.45	1268.04
524.81	1281.52
525.17	1294.85
525.53	1308.10
525.89	1321.37
526.25	1334.40
526.61	1347.31
526.97	1360.36
527.33	1373.20
527.68	1386.62
528.04	1399.99
528.40	1413.09
528.76	1426.49
529.12	1439.23
529.48	1452.45
529.84	1464.54
530.20	1477.11
530.56	1489.63
530.91	1502.89
531.27	1515.77
531.63	1528.41
531.99	1541.17
532.35	1553.28
532.71	1565.51
533.07	1578.30
533.42	1590.57
533.78	1602.54
534.14	1614.38
534.50	1625.51
534.86	1637.03
535.21	1647.66
535.57	1659.16
535.93	1670.34
536.29	1681.31
536.65	1692.78
537.00	1703.66
537.36	1715.04
537.72	1725.95
538.08	1737.13
538.44	1747.97
538.79	1758.90
539.15	1769.78
539.51	1780.31
539.87	1791.47
540.22	1802.24
540.58	1813.00
540.94	1823.75
541.29	1833.93
541.65	1843.67
542.01	1853.98
542.37	1863.97
542.72	1874.19
543.08	1883.90
543.44	1894.33
543.79	1903.46
544.15	1912.92
544.51	1922.74
544.87	1932.59
545.22	1941.77
545.58	1950.65
545.94	1959.32
546.29	1967.72
546.65	1975.95
547.01	1984.18
547.36	1991.75
547.72	1999.40
548.07	2006.97
548.43	2014.55
548.79	2022.40
549.14	2030.42
549.50	2038.90
549.86	2046.64
550.21	2053.97
550.57	2061.49
550.92	2068.13
551.28	2075.62
551.64	2082.78
551.99	2090.29
552.35	2097.19
552.70	2104.00
553.06	2110.58
553.41	2116.97
553.77	2123.63
554.13	2129.92
554.48	2136.87
554.84	2144.10
555.19	2150.60
555.55	2156.91
555.90	2163.23
556.26	2170.01
556.61	2176.12
556.97	2180.93
557.32	2186.78
557.68	2193.16
558.03	2198.93
558.39	2204.28
558.74	2210.15
559.10	2215.57
559.45	2221.16
559.81	2226.85
560.16	2232.39
560.52	2238.18
560.87	2244.61
561.23	2250.32
561.58	2257.08
561.94	2262.47
562.29	2267.17
562.64	2273.32
563.00	2279.09
563.35	2284.73
563.71	2290.56
564.06	2296.19
564.42	2302.31
564.77	2307.43
565.12	2312.81
565.48	2317.90
565.83	2323.51
566.19	2329.01
566.54	2334.45
566.89	2339.12
567.25	2343.96
567.60	2349.78
567.96	2355.07
568.31	2359.57
568.66	2364.07
569.02	2368.10
569.37	2371.82
569.72	2376.20
570.08	2379.82
570.43	2383.11
570.78	2386.33
571.14	2388.95
571.49	2392.35
571.84	2395.99
572.20	2399.09
572.55	2402.06
572.90	2404.63
573.26	2407.57
573.61	2410.24
573.96	2412.61
574.31	2414.78
574.67	2416.65
575.02	2417.48
575.37	2419.11
575.72	2420.01
576.08	2421.53
576.43	2421.72
576.78	2422.32
577.13	2424.13
577.49	2425.33
577.84	2426.51
578.19	2427.90
578.54	2428.61
578.90	2429.39
579.25	2429.46
579.60	2429.39
579.95	2428.83
580.30	2429.03
580.66	2428.40
581.01	2427.00
581.36	2424.74
581.71	2423.46
582.06	2422.47
582.42	2421.83
582.77	2419.69
583.12	2418.26
583.47	2417.04
583.82	2416.60
584.17	2415.43
584.53	2413.43
584.88	2411.53
585.23	2409.87
585.58	2407.82
585.93	2406.00
586.28	2404.09
586.63	2401.60
586.98	2399.63
587.34	2397.82
587.69	2395.53
588.04	2393.76
588.39	2392.47
588.74	2390.11
589.09	2387.55
589.44	2384.40
589.79	2381.98
590.14	2380.17
590.49	2377.57
590.84	2373.79
591.19	2370.75
591.54	2367.82
591.89	2363.98
592.25	2360.78
592.60	2356.45
592.95	2352.37
593.30	2348.32
593.65	2344.05
594.00	2339.82
594.35	2336.89
594.70	2332.32
595.05	2327.89
595.40	2322.58
595.75	2316.75
596.10	2313.21
596.45	2308.49
596.80	2304.05
597.15	2299.03
597.50	2293.18
597.85	2288.15
598.19	2283.06
598.54	2277.43
598.89	2272.20
599.24	2267.69
599.59	2261.71
599.94	2256.08
600.29	2250.21
600.64	2244.21
600.99	2237.37
601.34	2231.90
601.69	2225.00
602.04	2218.68
602.39	2212.11
602.74	2205.89
603.08	2200.48
603.43	2194.01
603.78	2187.03
604.13	2180.13
604.48	2172.79
604.83	2166.83
605.18	2160.73
605.53	2153.95
605.87	2146.98
606.22	2140.17
606.57	2132.11
606.92	2124.15
607.27	2117.29
607.62	2110.67
607.96	2103.70
608.31	2097.33
608.66	2089.65
609.01	2081.96
609.36	2074.89
609.70	2067.12
610.05	2059.42
610.40	2051.06
610.75	2042.79
611.10	2035.03
611.44	2026.08
611.79	2017.46
612.14	2007.31
612.49	1996.54
612.83	1987.00
613.18	1977.56
613.53	1968.17
613.88	1958.64
614.22	1949.97
614.57	1939.93
614.92	1929.43
615.27	1919.11
615.61	1908.79
615.96	1899.08
616.31	1889.38
616.65	1879.88
617.00	1870.11
617.35	1860.37
617.70	1850.58
618.04	1840.54
618.39	1830.49
618.74	1820.75
619.08	1811.00
619.43	1802.40
619.78	1794.11
620.12	1785.56
620.47	1776.06
620.82	1765.75
621.16	1755.95
621.51	1745.90
621.85	1736.05
622.20	1725.63
622.55	1715.04
622.89	1705.15
623.24	1695.40
623.59	1685.60
623.93	1675.36
624.28	1665.41
624.62	1655.24
624.97	1644.92
625.32	1634.94
625.66	1625.82
626.01	1617.03
626.35	1607.52
626.70	1597.29
627.04	1587.22
627.39	1577.01
627.73	1567.53
628.08	1558.48
628.43	1548.71
628.77	1539.51
629.12	1530.51
629.46	1522.47
629.81	1514.13
630.15	1504.51
630.50	1494.58
630.84	1483.94
631.19	1474.04
631.53	1464.77
631.88	1454.50
632.22	1444.44
632.57	1434.96
632.91	1424.88
633.26	1414.88
633.60	1405.25
633.95	1395.81
634.29	1386.18
634.64	1376.77
634.98	1366.66
635.32	1357.32
635.67	1348.89
636.01	1339.42
636.36	1329.64
636.70	1320.00
637.05	1310.55
637.39	1301.46
637.73	1292.71
638.08	1285.09
638.42	1276.85
638.77	1267.89
639.11	1259.65
639.45	1251.68
639.80	1243.16
640.14	1234.33
640.49	1225.35
640.83	1216.46
641.17	1208.26
641.52	1200.12
641.86	1191.41
642.20	1183.56
642.55	1174.73
642.89	1165.75
643.23	1157.12
643.58	1148.97
643.92	1139.83
644.26	1131.03
644.61	1122.54
644.95	1113.66
645.29	1104.28
645.64	1094.92
645.98	1086.41
646.32	1078.31
646.66	1069.63
647.01	1061.07
647.35	1052.77
647.69	1044.42
648.04	1035.99
648.38	1027.05
648.72	1018.13
649.06	1009.65
649.41	1001.44
649.75	993.49
650.09	985.54
650.43	977.44
650.78	968.88
651.12	961.08
651.46	953.62
651.80	946.35
652.14	938.99
652.49	931.42
652.83	924.05
653.17	916.30
653.51	908.75
653.85	901.51
654.20	894.36
654.54	886.94
654.88	879.61
655.22	872.41
655.56	865.35
655.90	858.48
656.25	851.73
656.59	844.76
656.93	837.68
657.27	830.44
657.61	823.35
657.95	817.25
658.29	811.30
658.64	805.07
658.98	798.54
659.32	791.97
659.66	785.81
660.00	779.42
660.34	773.34
660.68	767.20
661.02	760.81
661.36	754.81
661.70	748.96
662.05	743.42
662.39	737.90
662.73	732.43
663.07	727.01
663.41	721.29
663.75	715.55
664.09	709.85
664.43	704.53
664.77	699.24
665.11	693.43
665.45	687.57
665.79	681.76
666.13	676.04
666.47	670.56
666.81	665.06
667.15	659.67
667.49	654.40
667.83	649.07
668.17	643.88
668.51	638.70
668.85	633.75
669.19	628.70
669.53	623.58
669.87	618.42
670.21	613.63
670.55	608.99
670.89	604.48
671.23	600.18
671.57	595.73
671.91	591.46
672.25	587.32
672.58	583.15
672.92	579.06
673.26	575.11
673.60	571.20
673.94	567.37
674.28	563.70
674.62	559.97
674.96	556.25
675.30	552.76
675.64	549.09
675.97	545.49
676.31	541.87
676.65	538.35
676.99	534.92
677.33	531.09
677.67	527.39
678.01	523.54
678.34	519.86
678.68	516.32
679.02	512.69
679.36	508.95
679.70	505.33
680.04	501.82
680.37	498.32
680.71	494.98
681.05	491.81
681.39	488.55
681.73	485.38
682.06	482.28
682.40	479.13
682.74	475.96
683.08	472.78
683.42	469.65
683.75	466.62
684.09	463.59
684.43	460.79
684.77	457.86
685.10	455.04
685.44	452.16
685.78	449.22
686.12	446.37
686.45	443.65
686.79	440.92
687.13	438.34
687.46	435.78
687.80	433.14
688.14	430.26
688.48	427.66
688.81	424.92
689.15	422.35
689.49	419.78
689.82	417.22
690.16	414.60
690.50	412.11
690.83	409.63
691.17	407.13
691.51	404.65
691.84	402.44
692.18	400.24
692.52	398.05
692.85	395.91
693.19	393.80
693.52	391.64
693.86	389.46
694.20	387.29
694.53	385.14
694.87	382.95
695.21	380.81
695.54	378.65
695.88	376.51
696.21	374.34
696.55	372.19
696.88	370.15
697.22	368.19
697.56	366.26
697.89	364.38
698.23	362.61
698.56	360.81
698.90	359.03
699.23	357.10
699.57	355.15
699.90	353.33
700.24	351.52
700.58	349.80
700.91	348.14
701.25	346.57
701.58	344.97
701.92	343.39
702.25	341.84
702.59	340.24
702.92	338.71
703.26	337.16
703.59	335.71
703.93	334.43
704.26	333.00
704.60	331.54
704.93	330.07
705.26	328.61
705.60	327.15
705.93	325.62
706.27	324.31
706.60	323.09
706.94	321.85
707.27	320.52
707.61	319.20
707.94	317.86
708.27	316.34
708.61	314.91
708.94	313.49
709.28	312.19
709.61	310.95
709.94	309.75
710.28	308.54
710.61	307.34
710.95	305.94
711.28	304.88
711.61	303.70
711.95	302.57
712.28	301.38
712.61	300.18
712.95	299.15
713.28	298.11
713.61	296.96
713.95	295.82
714.28	294.77
714.61	293.73
714.95	292.71
715.28	291.72
715.61	290.70
715.95	289.77
716.28	288.83
716.61	287.89
716.95	286.88
717.28	285.97
717.61	285.01
717.94	284.18
718.28	283.13
718.61	282.28
718.94	281.38
719.27	280.55
719.61	279.75
719.94	278.92
720.27	277.97
720.60	277.15
720.94	276.31
721.27	275.51
721.60	274.81
721.93	274.13
722.27	273.50
722.60	272.85
722.93	272.20
723.26	271.58
723.59	270.87
723.93	270.27
724.26	269.60
724.59	268.94
724.92	268.31
725.25	267.83
725.59	267.24
725.92	266.67
726.25	266.11
726.58	265.58
726.91	264.95
727.24	264.39
727.57	263.80
727.91	263.22
728.24	262.74
728.57	262.13
728.90	261.54
729.23	260.91
729.56	260.44
729.89	259.87
730.22	259.30
730.55	258.79
730.89	258.27
731.22	257.75
731.55	257.25
731.88	256.71
732.21	256.09
732.54	255.59
732.87	255.08
733.20	254.59
733.53	254.08
733.86	253.62
734.19	253.18
734.52	252.75
734.85	252.51
735.18	252.03
735.51	251.71
735.84	251.30
736.17	250.96
736.50	250.41
736.83	250.23
737.16	249.83
737.49	249.46
737.82	249.05
738.15	248.69
738.48	248.35
738.81	247.97
739.14	247.63
739.47	247.23
739.80	246.88
740.13	246.54
740.46	246.14
740.79	245.77
741.12	245.41
741.45	245.06
741.78	244.60
742.11	244.32
742.44	243.92
742.77	243.62
743.10	243.26
743.43	242.99
743.75	242.43
744.08	242.35
744.41	242.00
744.74	241.64
745.07	241.26
745.40	240.95
745.73	240.69
746.06	240.34
746.39	240.06
746.71	239.70
747.04	239.38
747.37	239.08
747.70	238.82
748.03	238.50
748.36	238.25
748.68	237.95
749.01	237.59
749.34	237.31
749.67	237.05
750.00	236.78
750.33	236.62
750.65	236.39
750.98	235.87
751.31	235.63
751.64	235.41
751.97	235.31
752.29	235.04
752.62	234.72
752.95	234.49
753.28	234.21
753.60	234.01
753.93	233.85
754.26	233.66
754.59	233.39
754.91	233.14
755.24	232.89
755.57	232.66
755.90	232.42
756.22	232.18
756.55	231.90
756.88	231.63
757.20	231.31
757.53	231.05
757.86	230.87
758.19	230.66
758.51	230.44
758.84	230.12
759.17	229.91
759.49	229.71
759.82	229.63
760.15	229.48
760.47	229.29
760.80	229.01
761.13	228.85
761.45	228.64
761.78	228.44
762.11	228.25
762.43	228.06
762.76	227.91
763.08	227.76
763.41	227.60
763.74	227.47
764.06	227.28
764.39	227.13
764.71	226.99
765.04	226.82
765.37	226.65
765.69	226.50
766.02	226.39
766.34	226.25
766.67	226.04
767.00	225.90
767.32	225.88
767.65	225.84
767.97	225.67
768.30	225.58
768.62	225.46
768.95	225.30
769.27	225.19
769.60	225.10
769.92	224.93
770.25	224.79
770.57	224.63
770.90	224.49
771.22	224.34
771.55	224.22
771.87	224.11
772.20	224.04
772.52	224.10
772.85	224.21
773.17	224.10
773.50	223.99
773.82	223.88
774.15	223.67
774.47	223.47
774.80	223.36
775.12	223.23
775.45	223.18
775.77	223.12
776.09	223.03
776.42	222.95
776.74	222.97
777.07	222.87
777.39	222.79
777.72	222.71
778.04	222.66
778.36	222.53
778.69	222.45
779.01	222.35
779.33	222.09
779.66	221.77
779.98	221.68
780.31	221.58
780.63	221.60
780.95	221.52
781.28	221.42
781.60	221.34
781.92	221.28
782.25	221.19
782.57	221.12
782.89	221.05
783.22	220.94
783.54	220.80
783.86	220.74
784.19	220.68
784.51	220.68
784.83	220.58
785.16	220.52
785.48	220.50
785.80	220.48
786.12	220.45
786.45	220.39
786.77	220.36
787.09	220.30
787.42	220.15
787.74	220.11
788.06	220.07
788.38	220.00
788.71	219.96
789.03	219.90
789.35	219.85
789.67	219.77
789.99	219.74
790.32	219.66
790.64	219.64
790.96	219.73
791.28	219.64
791.61	219.57
791.93	219.57
792.25	219.48
792.57	219.54
792.89	219.47
793.21	219.42
793.54	219.36
793.86	219.26
794.18	219.24
794.50	219.16
794.82	219.12
795.14	219.12
795.47	219.07
795.79	219.05
796.11	218.97
796.43	218.91
796.75	218.86
797.07	218.88
797.39	218.83
797.71	218.67
798.04	218.63
798.36	218.61
798.68	218.58
799.00	218.55
799.32	218.41
799.64	218.40
799.96	218.35
800.28	218.37
800.60	218.34
800.92	218.33
801.24	218.27
801.56	218.26
801.89	218.20
802.21	218.21
802.53	218.14
802.85	218.15
803.17	218.21
803.49	218.13
803.81	218.04
804.13	217.98
804.45	217.89
804.77	217.88
805.09	217.84
805.41	217.77
805.73	217.71
806.05	217.60
806.37	217.58
806.69	217.60
807.01	217.53
807.33	217.55
807.65	217.44
807.97	217.53
808.28	217.48
808.60	217.47
808.92	217.40
809.24	217.51
809.56	217.50
809.88	217.42
810.20	217.43
810.52	217.47
810.84	217.43
811.16	217.44
811.48	217.39
811.80	217.46
812.12	217.42
812.43	217.46
812.75	217.47
813.07	217.41
813.39	217.35
813.71	217.30
814.03	217.23
814.35	217.21
814.67	217.09
814.98	217.07
815.30	217.02
815.62	216.99
815.94	216.81
816.26	216.79
816.58	216.76
816.89	216.74
817.21	216.66
817.53	216.66
817.85	216.62
818.17	216.62
818.48	216.51
818.80	216.58
819.12	216.50
819.44	216.45
819.76	216.42
820.07	216.43
820.39	216.40
820.71	216.42
821.03	216.42
821.34	216.38
821.66	216.43
821.98	216.44
822.30	216.42
822.61	216.53
822.93	216.49
823.25	216.45
823.57	216.40
823.88	216.45
824.20	216.43
824.52	216.45
824.83	216.43
825.15	216.41
825.47	216.38
825.79	216.40
826.10	216.37
826.42	216.33
826.74	216.32
827.05	216.33
827.37	216.32
827.69	216.30
828.00	216.30
828.32	216.24
828.64	216.19
828.95	216.26
829.27	216.20
829.58	216.17
829.90	216.19
830.22	216.19
830.53	216.13
830.85	216.10
831.17	216.04
831.48	216.00
831.80	216.01
832.11	215.98
832.43	215.96
832.75	215.98
833.06	216.11
833.38	216.05
833.69	216.04
834.01	216.02
834.32	216.00
834.64	216.00
834.96	216.01
835.27	215.99
835.59	215.95
835.90	215.88
836.22	215.89
836.53	215.84
836.85	215.81
837.16	215.99
837.48	216.00
837.79	216.04
838.11	216.04
838.42	216.02
838.74	216.00
839.05	215.97
839.37	215.91
839.68	215.75
840.00	215.73
840.31	215.75
840.63	215.69
840.94	215.67
841.26	215.61
841.57	215.58
841.88	215.63
842.20	215.59
842.51	215.58
842.83	215.55
843.14	215.75
843.46	215.75
843.77	215.61
844.08	215.58
844.40	215.53
844.71	215.49
845.03	215.48
845.34	215.46
845.65	215.45
845.97	215.47
846.28	215.49
846.60	215.52
846.91	215.49
847.22	215.56
847.54	215.61
847.85	215.64
848.16	215.63
848.48	215.58
848.79	215.65
849.10	215.68
849.42	215.70
849.73	215.52
850.04	215.48
850.36	215.45
850.67	215.48
850.98	215.49
851.30	215.52
851.61	215.49
851.92	215.48
852.23	215.52
852.55	215.54
852.86	215.53
853.17	215.55
853.49	215.56
853.80	215.58
854.11	215.57
854.42	215.55
854.74	215.52
855.05	215.51
855.36	215.41
855.67	215.40
855.99	215.39
856.30	215.63
856.61	215.64
856.92	215.64
857.23	215.61
857.55	215.59
857.86	215.59
858.17	215.62
858.48	215.59
858.79	215.52
859.11	215.51
859.42	215.52
859.73	215.47
860.04	215.46
860.35	215.39
860.66	215.31
860.98	215.31
861.29	215.37
861.60	215.35
861.91	215.40
862.22	215.38
862.53	215.32
862.84	215.05
863.16	215.09
863.47	215.00
863.78	215.01
864.09	215.03
864.40	215.03
864.71	215.04
865.02	215.07
865.33	215.07
865.64	215.03
865.95	215.01
866.27	215.15
866.58	215.13
866.89	215.19
867.20	215.22
867.51	215.18
867.82	215.18
868.13	215.28
868.44	215.25
868.75	215.26
869.06	215.30
869.37	215.33
869.68	215.28
869.99	215.31
870.30	215.28
870.61	215.31
870.92	215.28
871.23	215.26
871.54	215.30
871.85	215.32
872.16	215.38
872.47	215.37
872.78	215.23
873.09	215.26
873.40	215.19
873.71	215.21
874.02	215.20
874.33	215.18
874.64	215.10
874.95	215.14
875.26	215.10
875.56	215.09
875.87	215.06
876.18	215.03
876.49	215.25
876.80	215.26
877.11	215.20
877.42	215.21
877.73	215.19
878.04	215.10
878.35	215.14
878.66	215.11
878.96	215.10
879.27	215.11
879.58	215.11
879.89	215.10
880.20	215.15
880.51	215.17
880.82	215.12
881.12	215.15
881.43	215.07
881.74	215.05
882.05	215.02
882.36	215.03
882.67	215.06
882.97	214.85
883.28	214.82
883.59	214.80
883.90	214.83
884.21	214.87
884.51	214.91
884.82	214.83
885.13	214.85
885.44	214.86
885.74	214.84
886.05	214.81
886.36	214.82
886.67	214.74
886.98	214.85
887.28	214.89
887.59	214.88
887.90	214.92
888.20	214.93
888.51	215.00
888.82	214.97
889.13	214.99
889.43	215.16
889.74	215.15
890.05	215.15
890.35	215.11
890.66	215.07
890.97	215.03
891.28	215.03
891.58	215.02
891.89	214.99
892.20	215.00
892.50	214.99
892.81	214.96
893.12	214.97
893.42	214.84
893.73	214.86
894.04	214.86
894.34	214.84
894.65	214.82
894.95	214.78
895.26	214.80
895.57	214.86
895.87	214.66
896.18	214.69
896.48	214.70
896.79	214.70
897.10	214.72
897.40	214.76
897.71	214.79
898.01	214.77
898.32	214.81
898.63	214.75
898.93	214.76
899.24	214.78
899.54	214.72
899.85	214.74
900.15	214.71
900.46	214.72
900.76	214.74
901.07	214.75
901.38	214.75
901.68	214.75
901.99	214.65
902.29	214.68
902.60	214.67
902.90	214.66
903.21	214.65
903.51	214.64
903.82	214.66
904.12	214.65
904.43	214.65
904.73	214.64
905.03	214.69
905.34	214.87
905.64	214.86
905.95	214.89
906.25	214.89
906.56	214.91
906.86	214.90
907.17	214.89
907.47	214.92
907.77	214.90
908.08	214.87
908.38	214.92
908.69	214.93
908.99	214.97
909.30	214.99
909.60	214.99
909.90	214.99
910.21	214.93
910.51	214.91
910.81	214.94
911.12	214.95
911.42	214.95
911.73	214.74
912.03	214.76
912.33	214.81
912.64	214.79
912.94	214.78
913.24	214.72
913.55	214.69
913.85	214.68
914.15	214.74
914.46	214.79
914.76	214.77
915.06	214.74
915.37	214.70
915.67	214.67
915.97	214.69
916.27	214.62
916.58	214.64
916.88	214.64
917.18	214.63
917.49	214.75
917.79	214.76
918.09	214.80
918.39	214.85
918.70	214.83
919.00	214.85
919.30	214.93
919.60	214.93
919.91	214.91
920.21	214.90
920.51	214.86
920.81	214.83
921.12	214.82
921.42	214.81
921.72	214.84
922.02	214.91
922.32	214.90
922.63	214.95
922.93	215.07
923.23	215.07
923.53	215.02
923.83	214.90
924.13	214.89
924.44	214.87
924.74	214.91
925.04	214.96
925.34	214.94
925.64	214.87
925.94	214.89
926.24	214.98
926.55	214.95
926.85	214.96
927.15	214.94
927.45	214.97
927.75	215.00
928.05	215.00
928.35	215.00
928.65	215.04
928.95	215.05
929.26	214.95
929.56	215.01
929.86	215.04
930.16	215.02
930.46	215.02
930.76	215.00
931.06	214.89
931.36	214.86
931.66	214.91
931.96	214.92
932.26	214.91
932.56	214.87
932.86	214.90
933.16	214.87
933.46	214.85
933.76	214.80
934.06	214.83
934.36	214.89
934.66	214.87
934.96	214.87
935.26	214.86
935.56	214.88
935.86	214.79
936.16	214.75
936.46	214.74
936.76	214.74
937.06	214.74
937.36	214.75
937.66	214.73
937.96	214.72
938.26	214.64
938.56	214.65
938.86	214.63
939.16	214.70
939.46	214.73
939.76	214.75
940.06	214.76
940.35	214.71
940.65	214.58
940.95	214.57
941.25	214.48
941.55	214.47
941.85	214.48
942.15	214.57
942.45	214.67
942.75	214.65
943.04	214.65
943.34	214.70
943.64	214.68
943.94	214.65
944.24	214.66
944.54	214.71
944.84	214.70
945.13	214.69
945.43	214.65
945.73	214.64
946.03	214.65
946.33	214.66
946.62	214.65
946.92	214.67
947.22	214.68
947.52	214.71
947.82	214.74
948.11	214.69
948.41	214.65
948.71	214.58
949.01	214.57
949.31	214.55
949.60	214.57
949.90	214.63
950.20	214.65
950.50	214.60
950.79	214.57
951.09	214.62
951.39	214.60
951.69	214.55
951.98	214.58
952.28	214.59
952.58	214.58
952.87	214.59
953.17	214.64
953.47	214.62
953.76	214.63
954.06	214.58
954.36	214.56
954.66	214.51
954.95	214.55
955.25	214.59
955.55	214.62
955.84	214.57
956.14	214.57
956.44	214.57
956.73	214.53
957.03	214.55
957.32	214.54
957.62	214.54
957.92	214.59
958.21	214.57
958.51	214.81
958.81	214.83
959.10	214.87
959.40	214.90
959.69	214.93
959.99	214.95
960.29	214.97
960.58	214.97
960.88	215.08
961.17	215.05
961.47	215.07
961.76	215.03
962.06	215.08
962.36	215.04
962.65	215.04
962.95	215.10
963.24	215.08
963.54	215.06
963.83	215.05
964.13	215.05
964.42	214.99
964.72	214.82
965.01	214.82
965.31	214.77
965.60	214.71
965.90	214.83
966.19	214.77
966.49	214.78
966.78	214.79
967.08	214.75
967.37	214.77
967.67	214.74
967.96	214.78
968.26	214.77
968.55	214.80
968.85	214.78
969.14	214.77
969.43	214.76
969.73	214.75
970.02	214.77
970.32	214.79
970.61	214.80
970.91	214.73
971.20	214.69
971.49	214.70
971.79	214.73
972.08	214.58
972.38	214.61
972.67	214.58
972.96	214.61
973.26	214.58
973.55	214.64
973.85	214.65
974.14	214.61
974.43	214.62
974.73	214.57
975.02	214.57
975.31	214.57
975.61	214.58
975.90	214.56
976.19	214.54
976.49	214.57
976.78	214.58
977.07	214.58
977.37	214.60
977.66	214.61
977.95	214.59
978.24	214.62
978.54	214.63
978.83	214.62
979.12	214.58
979.42	214.56
979.71	214.51
980.00	214.52
980.29	214.55
980.59	214.50
980.88	214.56
981.17	214.52
981.46	214.53
981.76	214.55
982.05	214.62
982.34	214.62
982.63	214.59
982.93	214.54
983.22	214.60
983.51	214.62
983.80	214.63
984.09	214.64
984.39	214.62
984.68	214.59
984.97	214.62
985.26	214.66
985.55	214.69
985.85	214.67
986.14	214.68
986.43	214.70
986.72	214.70
987.01	214.65
987.30	214.68
987.59	214.65
987.89	214.65
988.18	214.56
988.47	214.55
988.76	214.53
989.05	214.55
989.34	214.52
989.63	214.56
989.92	214.54
990.22	214.53
990.51	214.54
990.80	214.55
991.09	214.58
991.38	214.59
991.67	214.55
991.96	214.50
992.25	214.49
992.54	214.44
992.83	214.42
993.12	214.41
993.41	214.42
993.70	214.48
993.99	214.50
994.28	214.56
994.58	214.58
994.87	214.56
995.16	214.56
995.45	214.52
995.74	214.47
996.03	214.52
996.32	214.56
996.61	214.58
996.90	214.58
997.19	214.53
997.48	214.50
997.77	214.48
998.06	214.52
998.34	214.52
998.63	214.51
998.92	214.53
999.21	214.58
999.50	214.59
999.79	214.54
1000.08	214.54
1000.37	214.52
1000.66	214.49
1000.95	214.54
1001.24	214.57
1001.53	214.63
1001.82	214.59
1002.11	214.52
1002.40	214.50
1002.68	214.51
1002.97	214.66
1003.26	214.63
1003.55	214.60
1003.84	214.60
1004.13	214.68
1004.42	214.66
1004.71	214.67
1004.99	214.66
1005.28	214.67
1005.57	214.66
1005.86	214.63
1006.15	214.60
1006.44	214.60
1006.72	214.63
1007.01	214.61
1007.30	214.60
1007.59	214.58
1007.88	214.59
1008.17	214.60
1008.45	214.59
1008.74	214.54
1009.03	214.43
1009.32	214.45
1009.60	214.46
1009.89	214.46
1010.18	214.39
1010.47	214.37
1010.76	214.39
1011.04	214.41
1011.33	214.40
1011.62	214.41
1011.91	214.45
1012.19	214.47
1012.48	214.46
1012.77	214.48
1013.05	214.58
1013.34	214.64
1013.63	214.63
1013.92	214.64
1014.20	214.62
1014.49	214.61
1014.78	214.66
1015.06	214.60
1015.35	214.60
1015.64	214.63
1015.92	214.66
1016.21	214.67
1016.50	214.69
1016.78	214.69
1017.07	214.66
1017.36	214.65
1017.64	214.62
1017.93	214.65
1018.22	214.63
1018.50	214.61
1018.79	214.56
1019.08	214.45
1019.36	214.42
1019.65	214.36
1019.93	214.40
1020.22	214.44
1020.51	214.56
1020.79	214.54
1021.08	214.18
1021.36	213.78
1021.65	214.12
1021.94	214.59
1022.22	214.49
1022.51	213.81
1022.79	215.05
1023.08	214.72
1023.36	217.34
1023.65	214.45
>>>>>End Processed Spectral Data<<<<<
