SpectraSuite Data File
++++++++++++++++++++++++++++++++++++
Date: Tue Jan 29 16:16:44 EST 2013
User: group
Dark Spectrum Present: No
Reference Spectrum Present: No
Number of Sampled Component Spectra: 1
Spectrometers: USB2E7196
Integration Time (usec): 65000 (USB2E7196)
Spectra Averaged: 100 (USB2E7196)
Boxcar Smoothing: 10 (USB2E7196)
Correct for Electrical Dark: No (USB2E7196)
Strobe/Lamp Enabled: No (USB2E7196)
Correct for Detector Non-linearity: No (USB2E7196)
Correct for Stray Light: No (USB2E7196)
Number of Pixels in Processed Spectrum: 2048
>>>>>Begin Processed Spectral Data<<<<<
339.09	0.00
339.48	203.10
339.86	204.21
340.24	205.53
340.63	206.86
341.01	211.83
341.39	209.71
341.78	211.17
342.16	212.74
342.54	212.89
342.93	201.76
343.31	211.95
343.69	212.46
344.07	212.92
344.46	213.35
344.84	213.76
345.22	213.90
345.60	214.17
345.99	214.37
346.37	214.51
346.75	214.61
347.13	214.70
347.52	214.81
347.90	214.95
348.28	215.03
348.66	215.11
349.05	215.08
349.43	215.14
349.81	215.24
350.19	215.32
350.57	215.36
350.96	215.43
351.34	215.53
351.72	215.63
352.10	215.74
352.48	215.83
352.87	215.86
353.25	215.94
353.63	216.03
354.01	216.09
354.39	216.18
354.77	216.23
355.15	216.35
355.54	216.41
355.92	216.43
356.30	216.50
356.68	216.71
357.06	216.82
357.44	216.87
357.82	216.92
358.20	217.01
358.58	217.07
358.97	217.15
359.35	217.25
359.73	217.37
360.11	217.39
360.49	217.45
360.87	217.48
361.25	217.53
361.63	217.60
362.01	217.67
362.39	217.68
362.77	217.77
363.15	217.78
363.53	217.80
363.91	217.82
364.29	217.85
364.67	217.63
365.05	217.67
365.43	217.71
365.81	217.75
366.19	217.81
366.57	217.91
366.95	217.92
367.33	217.90
367.71	217.88
368.09	217.95
368.47	217.93
368.85	217.93
369.23	217.96
369.61	217.85
369.99	217.89
370.37	217.87
370.75	217.92
371.13	217.86
371.51	217.80
371.89	217.80
372.27	217.80
372.65	217.82
373.03	217.77
373.41	217.72
373.78	217.66
374.16	217.55
374.54	217.44
374.92	217.40
375.30	217.36
375.68	217.28
376.06	217.23
376.44	217.19
376.82	217.15
377.19	217.12
377.57	217.10
377.95	217.00
378.33	216.95
378.71	216.76
379.09	216.74
379.47	216.70
379.84	216.62
380.22	216.53
380.60	216.45
380.98	216.37
381.36	216.34
381.73	216.25
382.11	216.25
382.49	216.25
382.87	216.14
383.25	216.10
383.62	216.32
384.00	216.27
384.38	216.25
384.76	216.26
385.13	216.26
385.51	216.21
385.89	216.15
386.27	216.14
386.64	216.20
387.02	216.16
387.40	216.15
387.78	216.13
388.15	216.12
388.53	216.10
388.91	216.10
389.29	216.05
389.66	216.07
390.04	216.01
390.42	215.98
390.79	216.03
391.17	216.02
391.55	215.77
391.92	215.73
392.30	215.74
392.68	215.70
393.05	215.72
393.43	215.76
393.81	215.75
394.18	215.73
394.56	215.70
394.94	215.73
395.31	215.75
395.69	215.81
396.06	215.84
396.44	215.87
396.82	215.87
397.19	215.99
397.57	216.00
397.95	216.02
398.32	216.00
398.70	216.01
399.07	216.10
399.45	216.13
399.82	216.20
400.20	216.20
400.58	216.27
400.95	216.23
401.33	216.33
401.70	216.55
402.08	216.63
402.45	216.72
402.83	216.88
403.20	217.00
403.58	217.06
403.95	217.23
404.33	217.36
404.71	217.51
405.08	217.76
405.46	217.90
405.83	218.12
406.21	218.34
406.58	218.58
406.96	218.77
407.33	219.02
407.70	219.32
408.08	219.74
408.45	220.07
408.83	220.47
409.20	220.77
409.58	221.01
409.95	221.46
410.33	221.93
410.70	222.31
411.08	222.84
411.45	223.40
411.82	223.91
412.20	224.55
412.57	225.37
412.95	225.93
413.32	226.77
413.69	227.56
414.07	228.42
414.44	229.34
414.82	230.28
415.19	231.45
415.56	232.56
415.94	233.69
416.31	235.06
416.68	236.39
417.06	237.94
417.43	239.47
417.81	241.14
418.18	242.85
418.55	244.71
418.93	246.64
419.30	248.69
419.67	250.87
420.04	253.09
420.42	255.36
420.79	258.07
421.16	260.74
421.54	263.58
421.91	266.49
422.28	269.51
422.66	272.72
423.03	275.86
423.40	279.13
423.77	282.66
424.15	286.19
424.52	289.91
424.89	293.94
425.26	297.88
425.64	301.63
426.01	305.79
426.38	310.13
426.75	314.56
427.13	319.12
427.50	323.89
427.87	328.92
428.24	333.98
428.61	338.73
428.99	344.01
429.36	349.80
429.73	355.50
430.10	361.21
430.47	367.09
430.85	373.17
431.22	379.64
431.59	386.49
431.96	393.07
432.33	400.32
432.70	407.33
433.08	415.52
433.45	423.29
433.82	431.06
434.19	439.62
434.56	448.03
434.93	456.14
435.30	464.21
435.68	473.02
436.05	481.68
436.42	490.36
436.79	498.24
437.16	506.74
437.53	515.71
437.90	524.48
438.27	533.08
438.64	542.03
439.01	550.27
439.38	557.58
439.75	564.70
440.13	572.82
440.50	580.49
440.87	586.78
441.24	593.18
441.61	600.21
441.98	605.40
442.35	611.44
442.72	617.55
443.09	623.30
443.46	626.91
443.83	629.31
444.20	631.36
444.57	634.40
444.94	635.74
445.31	637.07
445.68	638.34
446.05	638.93
446.42	638.14
446.79	637.22
447.16	636.20
447.53	635.40
447.90	632.28
448.27	629.05
448.64	624.49
449.01	621.37
449.37	615.63
449.74	610.10
450.11	603.52
450.48	596.32
450.85	589.20
451.22	582.95
451.59	576.98
451.96	571.39
452.33	563.83
452.70	556.96
453.07	548.84
453.43	540.60
453.80	532.64
454.17	524.91
454.54	517.64
454.91	509.74
455.28	502.06
455.65	494.83
456.02	487.71
456.38	481.64
456.75	474.01
457.12	467.76
457.49	461.61
457.86	455.61
458.23	450.45
458.59	444.78
458.96	438.99
459.33	433.96
459.70	428.82
460.07	424.72
460.43	420.03
460.80	415.58
461.17	411.79
461.54	407.73
461.91	403.91
462.27	399.90
462.64	396.59
463.01	392.95
463.38	389.39
463.74	385.73
464.11	382.59
464.48	379.86
464.85	376.84
465.21	374.43
465.58	371.86
465.95	368.80
466.32	366.22
466.68	363.76
467.05	361.28
467.42	358.80
467.78	356.24
468.15	353.79
468.52	351.98
468.88	349.58
469.25	347.46
469.62	345.69
469.98	343.89
470.35	342.12
470.72	340.48
471.08	338.82
471.45	337.44
471.82	335.98
472.18	334.37
472.55	333.27
472.92	331.95
473.28	330.82
473.65	329.74
474.02	328.72
474.38	327.87
474.75	327.15
475.11	326.40
475.48	325.87
475.85	325.44
476.21	324.96
476.58	324.63
476.94	324.42
477.31	324.14
477.67	323.89
478.04	323.80
478.41	323.83
478.77	323.96
479.14	323.93
479.50	324.09
479.87	324.40
480.23	324.68
480.60	324.96
480.96	325.26
481.33	325.91
481.69	326.43
482.06	326.92
482.42	327.38
482.79	328.01
483.15	328.81
483.52	329.79
483.88	330.71
484.25	331.63
484.61	332.68
484.98	333.78
485.34	335.06
485.71	336.40
486.07	337.83
486.44	339.15
486.80	340.74
487.17	342.36
487.53	344.22
487.90	346.12
488.26	348.13
488.62	350.27
488.99	352.32
489.35	354.51
489.72	356.94
490.08	359.48
490.44	362.02
490.81	364.67
491.17	367.33
491.54	370.32
491.90	373.34
492.26	376.59
492.63	379.95
492.99	383.43
493.36	387.13
493.72	390.98
494.08	395.04
494.45	399.26
494.81	403.59
495.17	407.96
495.54	412.65
495.90	417.42
496.26	422.34
496.63	427.47
496.99	432.82
497.35	438.36
497.72	444.13
498.08	449.99
498.44	456.11
498.80	462.52
499.17	468.94
499.53	475.62
499.89	482.45
500.26	489.37
500.62	496.43
500.98	503.76
501.34	511.17
501.71	518.85
502.07	526.62
502.43	534.64
502.79	542.75
503.16	551.04
503.52	559.65
503.88	568.33
504.24	577.28
504.60	586.27
504.97	595.38
505.33	604.61
505.69	614.54
506.05	624.31
506.41	634.07
506.78	644.03
507.14	654.26
507.50	664.57
507.86	675.24
508.22	685.87
508.59	696.50
508.95	707.49
509.31	718.62
509.67	729.93
510.03	741.25
510.39	752.88
510.75	764.66
511.12	776.43
511.48	788.37
511.84	800.37
512.20	812.56
512.56	825.12
512.92	837.77
513.28	850.11
513.64	862.65
514.00	875.33
514.37	888.16
514.73	901.05
515.09	913.92
515.45	926.56
515.81	939.49
516.17	952.65
516.53	965.68
516.89	978.60
517.25	991.66
517.61	1005.04
517.97	1018.21
518.33	1031.04
518.69	1044.40
519.05	1057.92
519.41	1071.41
519.77	1085.04
520.13	1097.99
520.49	1110.99
520.85	1124.26
521.21	1137.41
521.57	1150.81
521.93	1163.65
522.29	1177.12
522.65	1190.51
523.01	1203.84
523.37	1216.73
523.73	1229.68
524.09	1242.65
524.45	1255.80
524.81	1268.91
525.17	1281.96
525.53	1294.94
525.89	1308.07
526.25	1320.88
526.61	1333.38
526.97	1346.25
527.33	1358.87
527.68	1372.24
528.04	1385.46
528.40	1398.27
528.76	1411.32
529.12	1423.84
529.48	1436.90
529.84	1448.86
530.20	1461.26
530.56	1473.59
530.91	1486.55
531.27	1499.04
531.63	1511.46
531.99	1523.90
532.35	1535.82
532.71	1547.74
533.07	1560.22
533.42	1572.02
533.78	1583.80
534.14	1595.62
534.50	1606.46
534.86	1617.76
535.21	1628.17
535.57	1639.14
535.93	1650.05
536.29	1660.70
536.65	1671.81
537.00	1682.44
537.36	1693.45
537.72	1704.06
538.08	1714.99
538.44	1725.60
538.79	1736.47
539.15	1746.96
539.51	1757.21
539.87	1768.24
540.22	1778.78
540.58	1789.22
540.94	1799.85
541.29	1809.77
541.65	1819.23
542.01	1829.53
542.37	1839.28
542.72	1849.12
543.08	1858.72
543.44	1868.88
543.79	1877.94
544.15	1887.13
544.51	1896.84
544.87	1906.41
545.22	1915.25
545.58	1924.01
545.94	1932.63
546.29	1940.82
546.65	1948.89
547.01	1957.01
547.36	1964.44
547.72	1971.93
548.07	1979.46
548.43	1986.91
548.79	1994.46
549.14	2002.25
549.50	2010.34
549.86	2017.94
550.21	2025.15
550.57	2032.47
550.92	2039.15
551.28	2046.54
551.64	2053.53
551.99	2060.80
552.35	2067.91
552.70	2074.73
553.06	2081.17
553.41	2087.21
553.77	2093.56
554.13	2099.85
554.48	2106.63
554.84	2113.50
555.19	2119.87
555.55	2126.14
555.90	2132.21
556.26	2138.96
556.61	2144.83
556.97	2149.55
557.32	2155.20
557.68	2161.46
558.03	2167.11
558.39	2172.17
558.74	2177.90
559.10	2183.44
559.45	2188.85
559.81	2194.21
560.16	2199.73
560.52	2205.58
560.87	2211.85
561.23	2217.70
561.58	2224.23
561.94	2229.36
562.29	2234.13
562.64	2240.21
563.00	2245.72
563.35	2251.42
563.71	2257.21
564.06	2262.95
564.42	2268.90
564.77	2274.06
565.12	2279.26
565.48	2284.56
565.83	2290.10
566.19	2295.58
566.54	2301.02
566.89	2305.67
567.25	2310.31
567.60	2315.90
567.96	2320.97
568.31	2325.71
568.66	2329.92
569.02	2333.86
569.37	2337.75
569.72	2342.22
570.08	2345.89
570.43	2349.03
570.78	2352.19
571.14	2354.77
571.49	2357.87
571.84	2361.50
572.20	2364.31
572.55	2367.47
572.90	2369.46
573.26	2372.43
573.61	2374.98
573.96	2377.12
574.31	2379.15
574.67	2381.23
575.02	2382.27
575.37	2383.75
575.72	2384.51
576.08	2386.16
576.43	2386.47
576.78	2387.21
577.13	2388.95
577.49	2390.12
577.84	2391.53
578.19	2392.99
578.54	2393.79
578.90	2394.86
579.25	2394.74
579.60	2394.99
579.95	2394.45
580.30	2394.95
580.66	2394.30
581.01	2392.88
581.36	2390.84
581.71	2389.74
582.06	2388.69
582.42	2387.88
582.77	2386.02
583.12	2384.51
583.47	2383.36
583.82	2382.87
584.17	2381.71
584.53	2379.67
584.88	2377.72
585.23	2375.78
585.58	2373.62
585.93	2371.59
586.28	2369.46
586.63	2367.35
586.98	2365.38
587.34	2363.49
587.69	2361.32
588.04	2359.55
588.39	2358.12
588.74	2355.83
589.09	2353.23
589.44	2350.40
589.79	2348.14
590.14	2346.36
590.49	2343.79
590.84	2340.16
591.19	2337.48
591.54	2334.33
591.89	2330.53
592.25	2327.40
592.60	2323.33
592.95	2319.38
593.30	2315.28
593.65	2311.07
594.00	2306.81
594.35	2303.84
594.70	2299.27
595.05	2294.85
595.40	2289.41
595.75	2284.04
596.10	2280.58
596.45	2275.77
596.80	2271.17
597.15	2266.06
597.50	2260.30
597.85	2255.46
598.19	2250.34
598.54	2244.55
598.89	2239.38
599.24	2234.79
599.59	2228.88
599.94	2223.44
600.29	2217.69
600.64	2211.98
600.99	2205.27
601.34	2199.77
601.69	2192.85
602.04	2186.63
602.39	2180.06
602.74	2174.12
603.08	2168.65
603.43	2162.11
603.78	2155.44
604.13	2148.43
604.48	2141.41
604.83	2135.35
605.18	2129.09
605.53	2122.27
605.87	2115.23
606.22	2108.64
606.57	2100.97
606.92	2093.21
607.27	2086.29
607.62	2079.64
607.96	2072.80
608.31	2066.47
608.66	2058.98
609.01	2051.46
609.36	2044.45
609.70	2036.87
610.05	2029.25
610.40	2021.03
610.75	2012.93
611.10	2005.37
611.44	1996.68
611.79	1987.96
612.14	1978.01
612.49	1967.66
612.83	1958.48
613.18	1949.43
613.53	1940.12
613.88	1930.58
614.22	1922.00
614.57	1912.05
614.92	1901.53
615.27	1891.42
615.61	1881.53
615.96	1871.83
616.31	1862.35
616.65	1853.01
617.00	1843.30
617.35	1833.73
617.70	1824.04
618.04	1814.09
618.39	1803.72
618.74	1794.13
619.08	1784.49
619.43	1775.88
619.78	1767.81
620.12	1759.11
620.47	1749.31
620.82	1739.06
621.16	1729.25
621.51	1719.21
621.85	1709.48
622.20	1699.20
622.55	1688.63
622.89	1678.65
623.24	1668.93
623.59	1659.29
623.93	1649.21
624.28	1639.58
624.62	1629.41
624.97	1619.09
625.32	1609.36
625.66	1600.73
626.01	1591.90
626.35	1582.62
626.70	1572.57
627.04	1562.30
627.39	1552.26
627.73	1543.07
628.08	1534.19
628.43	1524.59
628.77	1515.45
629.12	1506.63
629.46	1498.87
629.81	1490.44
630.15	1480.87
630.50	1471.14
630.84	1460.52
631.19	1450.60
631.53	1441.16
631.88	1431.03
632.22	1421.15
632.57	1411.80
632.91	1401.66
633.26	1391.90
633.60	1382.35
633.95	1373.10
634.29	1363.84
634.64	1354.64
634.98	1344.77
635.32	1335.47
635.67	1327.06
636.01	1317.95
636.36	1308.23
636.70	1298.65
637.05	1289.39
637.39	1280.53
637.73	1271.90
638.08	1264.46
638.42	1256.35
638.77	1247.56
639.11	1239.42
639.45	1231.57
639.80	1222.95
640.14	1214.38
640.49	1205.55
640.83	1196.79
641.17	1188.72
641.52	1180.46
641.86	1171.88
642.20	1164.11
642.55	1155.63
642.89	1146.84
643.23	1138.14
643.58	1130.10
643.92	1121.17
644.26	1112.65
644.61	1104.45
644.95	1095.84
645.29	1086.60
645.64	1077.48
645.98	1069.22
646.32	1061.30
646.66	1052.97
647.01	1044.72
647.35	1036.51
647.69	1028.14
648.04	1019.88
648.38	1011.02
648.72	1002.34
649.06	993.95
649.41	985.80
649.75	977.86
650.09	970.11
650.43	962.14
650.78	954.00
651.12	946.41
651.46	939.04
651.80	931.76
652.14	924.47
652.49	917.08
652.83	909.88
653.17	902.19
653.51	894.65
653.85	887.39
654.20	880.19
654.54	872.75
654.88	865.72
655.22	858.65
655.56	851.71
655.90	845.02
656.25	838.39
656.59	831.52
656.93	824.60
657.27	817.50
657.61	810.68
657.95	804.58
658.29	798.71
658.64	792.60
658.98	786.21
659.32	779.78
659.66	773.72
660.00	767.43
660.34	761.54
660.68	755.59
661.02	749.37
661.36	743.60
661.70	737.94
662.05	732.25
662.39	726.95
662.73	721.62
663.07	716.30
663.41	710.84
663.75	705.25
664.09	699.70
664.43	694.44
664.77	689.12
665.11	683.38
665.45	677.55
665.79	671.87
666.13	666.19
666.47	660.69
666.81	655.26
667.15	649.92
667.49	644.69
667.83	639.53
668.17	634.42
668.51	629.40
668.85	624.62
669.19	619.82
669.53	614.70
669.87	609.76
670.21	605.05
670.55	600.37
670.89	596.06
671.23	591.83
671.57	587.44
671.91	583.23
672.25	579.24
672.58	575.11
672.92	571.12
673.26	567.27
673.60	563.54
673.94	559.83
674.28	556.30
674.62	552.63
674.96	548.95
675.30	545.44
675.64	541.75
675.97	538.23
676.31	534.71
676.65	531.22
676.99	527.85
677.33	524.10
677.67	520.49
678.01	516.66
678.34	513.04
678.68	509.63
679.02	506.07
679.36	502.38
679.70	498.88
680.04	495.39
680.37	492.03
680.71	488.75
681.05	485.57
681.39	482.40
681.73	479.33
682.06	476.35
682.40	473.31
682.74	470.20
683.08	467.03
683.42	463.94
683.75	461.05
684.09	458.07
684.43	455.32
684.77	452.48
685.10	449.76
685.44	446.92
685.78	444.08
686.12	441.39
686.45	438.73
686.79	436.20
687.13	433.73
687.46	431.14
687.80	428.54
688.14	425.78
688.48	423.25
688.81	420.64
689.15	418.10
689.49	415.49
689.82	413.00
690.16	410.46
690.50	408.01
690.83	405.55
691.17	403.09
691.51	400.70
691.84	398.52
692.18	396.33
692.52	394.21
692.85	392.13
693.19	390.03
693.52	387.93
693.86	385.75
694.20	383.60
694.53	381.52
694.87	379.38
695.21	377.31
695.54	375.20
695.88	373.12
696.21	370.94
696.55	368.96
696.88	366.99
697.22	365.09
697.56	363.28
697.89	361.45
698.23	359.67
698.56	357.86
698.90	356.11
699.23	354.23
699.57	352.33
699.90	350.52
700.24	348.77
700.58	347.04
700.91	345.41
701.25	343.90
701.58	342.35
701.92	340.81
702.25	339.31
702.59	337.74
702.92	336.24
703.26	334.82
703.59	333.41
703.93	332.19
704.26	330.76
704.60	329.32
704.93	327.90
705.26	326.49
705.60	325.11
705.93	323.68
706.27	322.44
706.60	321.22
706.94	320.00
707.27	318.66
707.61	317.39
707.94	316.06
708.27	314.59
708.61	313.15
708.94	311.77
709.28	310.48
709.61	309.24
709.94	308.03
710.28	306.77
710.61	305.57
710.95	304.14
711.28	303.09
711.61	301.92
711.95	300.79
712.28	299.63
712.61	298.46
712.95	297.40
713.28	296.32
713.61	295.24
713.95	294.11
714.28	293.12
714.61	292.09
714.95	291.08
715.28	290.09
715.61	289.12
715.95	288.23
716.28	287.26
716.61	286.34
716.95	285.38
717.28	284.49
717.61	283.57
717.94	282.74
718.28	281.76
718.61	280.89
718.94	280.03
719.27	279.23
719.61	278.45
719.94	277.62
720.27	276.69
720.60	275.85
720.94	275.07
721.27	274.34
721.60	273.66
721.93	272.96
722.27	272.36
722.60	271.74
722.93	271.01
723.26	270.38
723.59	269.73
723.93	269.12
724.26	268.49
724.59	267.80
724.92	267.17
725.25	266.64
725.59	266.11
725.92	265.61
726.25	265.03
726.58	264.46
726.91	263.89
727.24	263.40
727.57	262.86
727.91	262.28
728.24	261.73
728.57	261.16
728.90	260.63
729.23	260.00
729.56	259.60
729.89	259.10
730.22	258.56
730.55	258.04
730.89	257.53
731.22	257.01
731.55	256.55
731.88	256.09
732.21	255.56
732.54	255.02
732.87	254.52
733.20	254.05
733.53	253.61
733.86	253.14
734.19	252.62
734.52	252.25
734.85	251.99
735.18	251.53
735.51	251.15
735.84	250.75
736.17	250.40
736.50	249.86
736.83	249.70
737.16	249.34
737.49	248.94
737.82	248.54
738.15	248.20
738.48	247.84
738.81	247.46
739.14	247.05
739.47	246.67
739.80	246.28
740.13	245.94
740.46	245.53
740.79	245.15
741.12	244.83
741.45	244.45
741.78	244.01
742.11	243.71
742.44	243.35
742.77	243.07
743.10	242.71
743.43	242.36
743.75	241.77
744.08	241.68
744.41	241.33
744.74	240.97
745.07	240.58
745.40	240.31
745.73	240.06
746.06	239.78
746.39	239.49
746.71	239.16
747.04	238.82
747.37	238.55
747.70	238.29
748.03	238.03
748.36	237.77
748.68	237.45
749.01	237.10
749.34	236.81
749.67	236.49
750.00	236.23
750.33	236.11
750.65	235.91
750.98	235.39
751.31	235.16
751.64	234.93
751.97	234.84
752.29	234.56
752.62	234.25
752.95	233.99
753.28	233.72
753.60	233.50
753.93	233.35
754.26	233.13
754.59	232.87
754.91	232.62
755.24	232.39
755.57	232.16
755.90	231.95
756.22	231.72
756.55	231.49
756.88	231.22
757.20	230.93
757.53	230.67
757.86	230.50
758.19	230.32
758.51	230.15
758.84	229.84
759.17	229.67
759.49	229.50
759.82	229.39
760.15	229.25
760.47	229.05
760.80	228.82
761.13	228.67
761.45	228.47
761.78	228.32
762.11	228.14
762.43	227.97
762.76	227.83
763.08	227.69
763.41	227.55
763.74	227.45
764.06	227.29
764.39	227.15
764.71	226.99
765.04	226.84
765.37	226.70
765.69	226.56
766.02	226.41
766.34	226.25
766.67	226.05
767.00	225.95
767.32	225.93
767.65	225.90
767.97	225.76
768.30	225.67
768.62	225.53
768.95	225.38
769.27	225.28
769.60	225.14
769.92	225.03
770.25	224.87
770.57	224.70
770.90	224.60
771.22	224.51
771.55	224.39
771.87	224.27
772.20	224.16
772.52	224.24
772.85	224.38
773.17	224.28
773.50	224.18
773.82	224.07
774.15	223.89
774.47	223.66
774.80	223.55
775.12	223.44
775.45	223.32
775.77	223.24
776.09	223.17
776.42	223.09
776.74	223.06
777.07	222.96
777.39	222.89
777.72	222.78
778.04	222.68
778.36	222.62
778.69	222.58
779.01	222.48
779.33	222.22
779.66	221.91
779.98	221.84
780.31	221.77
780.63	221.78
780.95	221.75
781.28	221.70
781.60	221.62
781.92	221.56
782.25	221.52
782.57	221.47
782.89	221.36
783.22	221.27
783.54	221.15
783.86	221.13
784.19	221.05
784.51	221.04
784.83	220.95
785.16	220.86
785.48	220.74
785.80	220.71
786.12	220.67
786.45	220.60
786.77	220.54
787.09	220.48
787.42	220.33
787.74	220.26
788.06	220.22
788.38	220.16
788.71	220.06
789.03	219.98
789.35	219.93
789.67	219.89
789.99	219.86
790.32	219.79
790.64	219.73
790.96	219.88
791.28	219.76
791.61	219.73
791.93	219.71
792.25	219.68
792.57	219.79
792.89	219.67
793.21	219.63
793.54	219.57
793.86	219.51
794.18	219.49
794.50	219.37
794.82	219.30
795.14	219.28
795.47	219.28
795.79	219.26
796.11	219.19
796.43	219.16
796.75	219.11
797.07	219.09
797.39	219.03
797.71	218.86
798.04	218.83
798.36	218.82
798.68	218.77
799.00	218.76
799.32	218.61
799.64	218.62
799.96	218.57
800.28	218.58
800.60	218.54
800.92	218.49
801.24	218.47
801.56	218.43
801.89	218.37
802.21	218.37
802.53	218.28
802.85	218.28
803.17	218.35
803.49	218.29
803.81	218.23
804.13	218.21
804.45	218.13
804.77	218.13
805.09	218.06
805.41	218.01
805.73	217.94
806.05	217.86
806.37	217.86
806.69	217.82
807.01	217.75
807.33	217.71
807.65	217.62
807.97	217.68
808.28	217.66
808.60	217.64
808.92	217.56
809.24	217.69
809.56	217.65
809.88	217.53
810.20	217.51
810.52	217.50
810.84	217.42
811.16	217.35
811.48	217.30
811.80	217.37
812.12	217.36
812.43	217.36
812.75	217.34
813.07	217.28
813.39	217.25
813.71	217.23
814.03	217.22
814.35	217.20
814.67	217.12
814.98	217.07
815.30	217.04
815.62	217.02
815.94	216.86
816.26	216.83
816.58	216.77
816.89	216.77
817.21	216.71
817.53	216.77
817.85	216.77
818.17	216.74
818.48	216.63
818.80	216.64
819.12	216.60
819.44	216.54
819.76	216.50
820.07	216.50
820.39	216.50
820.71	216.47
821.03	216.49
821.34	216.45
821.66	216.49
821.98	216.50
822.30	216.44
822.61	216.57
822.93	216.54
823.25	216.55
823.57	216.51
823.88	216.54
824.20	216.49
824.52	216.51
824.83	216.49
825.15	216.49
825.47	216.43
825.79	216.42
826.10	216.42
826.42	216.43
826.74	216.44
827.05	216.40
827.37	216.38
827.69	216.31
828.00	216.33
828.32	216.30
828.64	216.25
828.95	216.40
829.27	216.31
829.58	216.29
829.90	216.30
830.22	216.30
830.53	216.23
830.85	216.20
831.17	216.12
831.48	216.12
831.80	216.10
832.11	216.10
832.43	216.07
832.75	216.04
833.06	216.14
833.38	216.06
833.69	216.03
834.01	216.05
834.32	216.07
834.64	216.03
834.96	216.03
835.27	216.03
835.59	215.95
835.90	215.90
836.22	215.89
836.53	215.84
836.85	215.82
837.16	216.04
837.48	216.04
837.79	216.12
838.11	216.14
838.42	216.15
838.74	216.13
839.05	216.11
839.37	216.12
839.68	216.00
840.00	215.98
840.31	216.00
840.63	215.98
840.94	215.93
841.26	215.91
841.57	215.87
841.88	215.89
842.20	215.85
842.51	215.82
842.83	215.82
843.14	216.00
843.46	215.99
843.77	215.88
844.08	215.87
844.40	215.79
844.71	215.75
845.03	215.69
845.34	215.70
845.65	215.69
845.97	215.68
846.28	215.69
846.60	215.71
846.91	215.72
847.22	215.70
847.54	215.76
847.85	215.76
848.16	215.76
848.48	215.70
848.79	215.73
849.10	215.74
849.42	215.72
849.73	215.53
850.04	215.47
850.36	215.38
850.67	215.41
850.98	215.43
851.30	215.47
851.61	215.48
851.92	215.48
852.23	215.56
852.55	215.57
852.86	215.56
853.17	215.57
853.49	215.58
853.80	215.61
854.11	215.61
854.42	215.64
854.74	215.62
855.05	215.61
855.36	215.56
855.67	215.57
855.99	215.59
856.30	215.81
856.61	215.84
856.92	215.83
857.23	215.82
857.55	215.78
857.86	215.75
858.17	215.78
858.48	215.72
858.79	215.63
859.11	215.62
859.42	215.58
859.73	215.54
860.04	215.54
860.35	215.50
860.66	215.43
860.98	215.41
861.29	215.43
861.60	215.43
861.91	215.48
862.22	215.43
862.53	215.38
862.84	215.17
863.16	215.24
863.47	215.20
863.78	215.14
864.09	215.18
864.40	215.18
864.71	215.14
865.02	215.15
865.33	215.14
865.64	215.10
865.95	215.11
866.27	215.27
866.58	215.21
866.89	215.19
867.20	215.20
867.51	215.16
867.82	215.12
868.13	215.19
868.44	215.14
868.75	215.19
869.06	215.20
869.37	215.19
869.68	215.12
869.99	215.14
870.30	215.17
870.61	215.15
870.92	215.12
871.23	215.12
871.54	215.17
871.85	215.25
872.16	215.27
872.47	215.27
872.78	215.14
873.09	215.18
873.40	215.18
873.71	215.19
874.02	215.20
874.33	215.20
874.64	215.16
874.95	215.18
875.26	215.15
875.56	215.14
875.87	215.15
876.18	215.14
876.49	215.35
876.80	215.31
877.11	215.28
877.42	215.28
877.73	215.31
878.04	215.28
878.35	215.25
878.66	215.23
878.96	215.23
879.27	215.23
879.58	215.22
879.89	215.22
880.20	215.28
880.51	215.29
880.82	215.30
881.12	215.29
881.43	215.26
881.74	215.24
882.05	215.25
882.36	215.24
882.67	215.27
882.97	215.06
883.28	215.10
883.59	215.15
883.90	215.17
884.21	215.20
884.51	215.18
884.82	215.18
885.13	215.23
885.44	215.22
885.74	215.20
886.05	215.18
886.36	215.17
886.67	215.10
886.98	215.19
887.28	215.20
887.59	215.21
887.90	215.22
888.20	215.20
888.51	215.22
888.82	215.17
889.13	215.19
889.43	215.37
889.74	215.31
890.05	215.27
890.35	215.26
890.66	215.20
890.97	215.20
891.28	215.17
891.58	215.14
891.89	215.15
892.20	215.12
892.50	215.13
892.81	215.13
893.12	215.11
893.42	215.05
893.73	215.06
894.04	215.08
894.34	215.09
894.65	215.11
894.95	215.06
895.26	215.09
895.57	215.15
895.87	214.93
896.18	214.98
896.48	215.01
896.79	215.01
897.10	215.04
897.40	215.05
897.71	215.10
898.01	215.07
898.32	215.06
898.63	215.06
898.93	215.05
899.24	215.05
899.54	215.06
899.85	215.00
900.15	214.97
900.46	214.94
900.76	214.94
901.07	214.93
901.38	214.97
901.68	215.00
901.99	214.89
902.29	214.91
902.60	214.90
902.90	214.87
903.21	214.88
903.51	214.86
903.82	214.91
904.12	214.88
904.43	214.89
904.73	214.89
905.03	214.93
905.34	215.12
905.64	215.10
905.95	215.10
906.25	215.11
906.56	215.07
906.86	215.10
907.17	215.06
907.47	215.07
907.77	215.05
908.08	215.03
908.38	215.03
908.69	215.06
908.99	215.09
909.30	215.15
909.60	215.15
909.90	215.15
910.21	215.09
910.51	215.08
910.81	215.09
911.12	215.11
911.42	215.11
911.73	214.89
912.03	214.93
912.33	214.95
912.64	214.95
912.94	214.93
913.24	214.84
913.55	214.82
913.85	214.80
914.15	214.86
914.46	214.87
914.76	214.87
915.06	214.85
915.37	214.83
915.67	214.80
915.97	214.76
916.27	214.75
916.58	214.73
916.88	214.72
917.18	214.71
917.49	214.86
917.79	214.84
918.09	214.83
918.39	214.86
918.70	214.85
919.00	214.87
919.30	214.99
919.60	215.03
919.91	215.05
920.21	215.07
920.51	215.00
920.81	215.00
921.12	215.00
921.42	215.00
921.72	214.98
922.02	214.98
922.32	215.03
922.63	215.01
922.93	215.13
923.23	215.16
923.53	215.15
923.83	215.01
924.13	215.05
924.44	215.07
924.74	215.13
925.04	215.19
925.34	215.17
925.64	215.08
925.94	215.09
926.24	215.21
926.55	215.18
926.85	215.22
927.15	215.20
927.45	215.21
927.75	215.19
928.05	215.20
928.35	215.17
928.65	215.19
928.95	215.21
929.26	215.13
929.56	215.14
929.86	215.15
930.16	215.14
930.46	215.14
930.76	215.13
931.06	215.01
931.36	214.97
931.66	214.99
931.96	215.00
932.26	215.01
932.56	214.94
932.86	214.97
933.16	214.98
933.46	214.94
933.76	214.93
934.06	215.00
934.36	215.05
934.66	215.05
934.96	215.01
935.26	215.03
935.56	215.06
935.86	215.00
936.16	214.96
936.46	214.97
936.76	214.90
937.06	214.88
937.36	214.91
937.66	214.91
937.96	214.90
938.26	214.88
938.56	214.83
938.86	214.81
939.16	214.83
939.46	214.84
939.76	214.90
940.06	214.90
940.35	214.87
940.65	214.78
940.95	214.83
941.25	214.77
941.55	214.76
941.85	214.74
942.15	214.81
942.45	214.89
942.75	214.85
943.04	214.91
943.34	214.96
943.64	214.94
943.94	214.93
944.24	214.93
944.54	214.92
944.84	214.94
945.13	214.89
945.43	214.87
945.73	214.85
946.03	214.82
946.33	214.79
946.62	214.74
946.92	214.75
947.22	214.78
947.52	214.82
947.82	214.86
948.11	214.81
948.41	214.76
948.71	214.71
949.01	214.69
949.31	214.67
949.60	214.63
949.90	214.67
950.20	214.63
950.50	214.66
950.79	214.67
951.09	214.70
951.39	214.68
951.69	214.66
951.98	214.65
952.28	214.67
952.58	214.64
952.87	214.65
953.17	214.64
953.47	214.56
953.76	214.53
954.06	214.46
954.36	214.45
954.66	214.43
954.95	214.50
955.25	214.52
955.55	214.53
955.84	214.50
956.14	214.52
956.44	214.53
956.73	214.51
957.03	214.51
957.32	214.52
957.62	214.54
957.92	214.59
958.21	214.61
958.51	214.84
958.81	214.91
959.10	214.95
959.40	215.01
959.69	215.05
959.99	215.08
960.29	215.08
960.58	215.07
960.88	215.16
961.17	215.10
961.47	215.14
961.76	215.12
962.06	215.15
962.36	215.10
962.65	215.12
962.95	215.10
963.24	215.09
963.54	215.10
963.83	215.13
964.13	215.12
964.42	215.07
964.72	214.89
965.01	214.86
965.31	214.85
965.60	214.82
965.90	214.95
966.19	214.91
966.49	214.95
966.78	214.95
967.08	214.91
967.37	214.94
967.67	214.89
967.96	214.92
968.26	214.93
968.55	214.97
968.85	214.95
969.14	214.96
969.43	214.96
969.73	214.92
970.02	214.89
970.32	214.86
970.61	214.91
970.91	214.85
971.20	214.82
971.49	214.79
971.79	214.83
972.08	214.69
972.38	214.72
972.67	214.71
972.96	214.74
973.26	214.71
973.55	214.75
973.85	214.72
974.14	214.70
974.43	214.69
974.73	214.67
975.02	214.65
975.31	214.67
975.61	214.65
975.90	214.60
976.19	214.59
976.49	214.63
976.78	214.61
977.07	214.62
977.37	214.69
977.66	214.69
977.95	214.65
978.24	214.64
978.54	214.68
978.83	214.66
979.12	214.62
979.42	214.61
979.71	214.57
980.00	214.60
980.29	214.64
980.59	214.58
980.88	214.64
981.17	214.66
981.46	214.64
981.76	214.63
982.05	214.72
982.34	214.75
982.63	214.71
982.93	214.68
983.22	214.74
983.51	214.69
983.80	214.74
984.09	214.75
984.39	214.74
984.68	214.71
984.97	214.76
985.26	214.78
985.55	214.84
985.85	214.82
986.14	214.85
986.43	214.86
986.72	214.88
987.01	214.80
987.30	214.79
987.59	214.78
987.89	214.81
988.18	214.76
988.47	214.73
988.76	214.73
989.05	214.73
989.34	214.67
989.63	214.75
989.92	214.69
990.22	214.68
990.51	214.67
990.80	214.66
991.09	214.63
991.38	214.65
991.67	214.63
991.96	214.59
992.25	214.59
992.54	214.53
992.83	214.56
993.12	214.56
993.41	214.61
993.70	214.68
993.99	214.71
994.28	214.72
994.58	214.77
994.87	214.74
995.16	214.77
995.45	214.78
995.74	214.70
996.03	214.72
996.32	214.74
996.61	214.81
996.90	214.81
997.19	214.81
997.48	214.82
997.77	214.77
998.06	214.78
998.34	214.75
998.63	214.76
998.92	214.72
999.21	214.76
999.50	214.72
999.79	214.62
1000.08	214.62
1000.37	214.62
1000.66	214.58
1000.95	214.64
1001.24	214.62
1001.53	214.62
1001.82	214.62
1002.11	214.60
1002.40	214.65
1002.68	214.67
1002.97	214.80
1003.26	214.77
1003.55	214.73
1003.84	214.78
1004.13	214.85
1004.42	214.85
1004.71	214.85
1004.99	214.84
1005.28	214.89
1005.57	214.89
1005.86	214.90
1006.15	214.89
1006.44	214.86
1006.72	214.89
1007.01	214.85
1007.30	214.87
1007.59	214.85
1007.88	214.83
1008.17	214.82
1008.45	214.74
1008.74	214.67
1009.03	214.56
1009.32	214.56
1009.60	214.59
1009.89	214.54
1010.18	214.48
1010.47	214.44
1010.76	214.45
1011.04	214.46
1011.33	214.47
1011.62	214.49
1011.91	214.52
1012.19	214.52
1012.48	214.53
1012.77	214.56
1013.05	214.70
1013.34	214.70
1013.63	214.68
1013.92	214.70
1014.20	214.71
1014.49	214.74
1014.78	214.77
1015.06	214.70
1015.35	214.68
1015.64	214.69
1015.92	214.74
1016.21	214.75
1016.50	214.77
1016.78	214.77
1017.07	214.80
1017.36	214.71
1017.64	214.66
1017.93	214.63
1018.22	214.59
1018.50	214.57
1018.79	214.52
1019.08	214.39
1019.36	214.41
1019.65	214.40
1019.93	214.45
1020.22	214.46
1020.51	214.56
1020.79	214.53
1021.08	213.87
1021.36	213.76
1021.65	214.48
1021.94	214.64
1022.22	214.99
1022.51	213.99
1022.79	215.45
1023.08	214.51
1023.36	217.27
1023.65	214.10
>>>>>End Processed Spectral Data<<<<<
