SpectraSuite Data File
++++++++++++++++++++++++++++++++++++
Date: Tue Jan 29 16:17:04 EST 2013
User: group
Dark Spectrum Present: No
Reference Spectrum Present: No
Number of Sampled Component Spectra: 1
Spectrometers: USB2E7196
Integration Time (usec): 65000 (USB2E7196)
Spectra Averaged: 100 (USB2E7196)
Boxcar Smoothing: 10 (USB2E7196)
Correct for Electrical Dark: No (USB2E7196)
Strobe/Lamp Enabled: No (USB2E7196)
Correct for Detector Non-linearity: No (USB2E7196)
Correct for Stray Light: No (USB2E7196)
Number of Pixels in Processed Spectrum: 2048
>>>>>Begin Processed Spectral Data<<<<<
339.09	0.00
339.48	202.53
339.86	204.46
340.24	205.31
340.63	207.49
341.01	211.90
341.39	209.71
341.78	211.57
342.16	212.41
342.54	212.82
342.93	201.90
343.31	212.09
343.69	212.67
344.07	213.10
344.46	213.55
344.84	213.92
345.22	214.06
345.60	214.32
345.99	214.49
346.37	214.62
346.75	214.72
347.13	214.78
347.52	214.84
347.90	214.96
348.28	214.99
348.66	215.08
349.05	215.06
349.43	215.13
349.81	215.20
350.19	215.24
350.57	215.26
350.96	215.36
351.34	215.45
351.72	215.49
352.10	215.62
352.48	215.67
352.87	215.73
353.25	215.77
353.63	215.80
354.01	215.83
354.39	215.91
354.77	216.01
355.15	216.13
355.54	216.17
355.92	216.19
356.30	216.25
356.68	216.44
357.06	216.52
357.44	216.53
357.82	216.56
358.20	216.65
358.58	216.72
358.97	216.79
359.35	216.89
359.73	217.01
360.11	217.03
360.49	217.09
360.87	217.12
361.25	217.24
361.63	217.37
362.01	217.43
362.39	217.46
362.77	217.47
363.15	217.47
363.53	217.52
363.91	217.55
364.29	217.59
364.67	217.40
365.05	217.43
365.43	217.49
365.81	217.54
366.19	217.62
366.57	217.71
366.95	217.69
367.33	217.64
367.71	217.60
368.09	217.68
368.47	217.70
368.85	217.66
369.23	217.66
369.61	217.58
369.99	217.63
370.37	217.64
370.75	217.71
371.13	217.67
371.51	217.59
371.89	217.58
372.27	217.58
372.65	217.59
373.03	217.52
373.41	217.47
373.78	217.41
374.16	217.27
374.54	217.18
374.92	217.14
375.30	217.11
375.68	217.03
376.06	216.95
376.44	216.86
376.82	216.86
377.19	216.80
377.57	216.74
377.95	216.65
378.33	216.58
378.71	216.43
379.09	216.45
379.47	216.45
379.84	216.38
380.22	216.31
380.60	216.25
380.98	216.24
381.36	216.19
381.73	216.13
382.11	216.15
382.49	216.11
382.87	216.06
383.25	216.03
383.62	216.26
384.00	216.21
384.38	216.20
384.76	216.20
385.13	216.21
385.51	216.19
385.89	216.12
386.27	216.11
386.64	216.11
387.02	216.04
387.40	215.99
387.78	215.98
388.15	215.93
388.53	215.90
388.91	215.87
389.29	215.84
389.66	215.88
390.04	215.84
390.42	215.84
390.79	215.83
391.17	215.80
391.55	215.54
391.92	215.53
392.30	215.52
392.68	215.47
393.05	215.47
393.43	215.51
393.81	215.52
394.18	215.48
394.56	215.51
394.94	215.56
395.31	215.54
395.69	215.61
396.06	215.65
396.44	215.67
396.82	215.66
397.19	215.78
397.57	215.77
397.95	215.83
398.32	215.81
398.70	215.86
399.07	215.94
399.45	215.99
399.82	216.03
400.20	216.08
400.58	216.13
400.95	216.11
401.33	216.18
401.70	216.42
402.08	216.53
402.45	216.61
402.83	216.73
403.20	216.86
403.58	216.93
403.95	217.08
404.33	217.21
404.71	217.39
405.08	217.65
405.46	217.79
405.83	217.99
406.21	218.22
406.58	218.49
406.96	218.73
407.33	218.98
407.70	219.27
408.08	219.75
408.45	220.11
408.83	220.50
409.20	220.85
409.58	221.09
409.95	221.52
410.33	221.97
410.70	222.39
411.08	222.88
411.45	223.41
411.82	223.99
412.20	224.68
412.57	225.49
412.95	226.03
413.32	226.85
413.69	227.65
414.07	228.54
414.44	229.46
414.82	230.44
415.19	231.60
415.56	232.79
415.94	233.92
416.31	235.26
416.68	236.58
417.06	238.12
417.43	239.59
417.81	241.24
418.18	243.00
418.55	244.86
418.93	246.89
419.30	248.95
419.67	251.09
420.04	253.26
420.42	255.53
420.79	258.25
421.16	260.96
421.54	263.73
421.91	266.58
422.28	269.57
422.66	272.79
423.03	275.94
423.40	279.18
423.77	282.65
424.15	286.20
424.52	289.95
424.89	294.02
425.26	297.98
425.64	301.77
426.01	305.88
426.38	310.24
426.75	314.58
427.13	319.18
427.50	324.03
427.87	329.08
428.24	334.13
428.61	338.95
428.99	344.28
429.36	350.07
429.73	355.77
430.10	361.48
430.47	367.29
430.85	373.33
431.22	379.80
431.59	386.64
431.96	393.25
432.33	400.49
432.70	407.45
433.08	415.67
433.45	423.48
433.82	431.16
434.19	439.72
434.56	448.13
434.93	456.15
435.30	464.10
435.68	472.86
436.05	481.51
436.42	490.02
436.79	497.81
437.16	506.38
437.53	515.41
437.90	524.18
438.27	532.83
438.64	541.71
439.01	549.96
439.38	557.31
439.75	564.39
440.13	572.56
440.50	580.26
440.87	586.46
441.24	592.86
441.61	600.00
441.98	605.21
442.35	611.30
442.72	617.38
443.09	623.20
443.46	626.82
443.83	629.21
444.20	631.41
444.57	634.47
444.94	635.78
445.31	637.07
445.68	638.43
446.05	639.03
446.42	638.26
446.79	637.34
447.16	636.30
447.53	635.52
447.90	632.22
448.27	629.01
448.64	624.54
449.01	621.29
449.37	615.55
449.74	610.08
450.11	603.45
450.48	596.35
450.85	589.16
451.22	582.90
451.59	577.11
451.96	571.49
452.33	564.01
452.70	557.17
453.07	549.06
453.43	540.74
453.80	532.74
454.17	525.08
454.54	517.82
454.91	509.87
455.28	502.23
455.65	495.08
456.02	487.91
456.38	481.82
456.75	474.30
457.12	468.05
457.49	461.78
457.86	455.83
458.23	450.65
458.59	444.97
458.96	439.17
459.33	434.03
459.70	428.85
460.07	424.68
460.43	419.97
460.80	415.54
461.17	411.69
461.54	407.69
461.91	403.82
462.27	399.84
462.64	396.57
463.01	392.86
463.38	389.28
463.74	385.71
464.11	382.60
464.48	379.81
464.85	376.78
465.21	374.40
465.58	371.85
465.95	368.85
466.32	366.35
466.68	363.86
467.05	361.35
467.42	358.90
467.78	356.34
468.15	353.93
468.52	352.05
468.88	349.70
469.25	347.56
469.62	345.85
469.98	343.94
470.35	342.16
470.72	340.58
471.08	338.87
471.45	337.43
471.82	335.97
472.18	334.40
472.55	333.29
472.92	331.96
473.28	330.80
473.65	329.68
474.02	328.58
474.38	327.77
474.75	327.07
475.11	326.27
475.48	325.71
475.85	325.26
476.21	324.84
476.58	324.49
476.94	324.28
477.31	323.96
477.67	323.77
478.04	323.71
478.41	323.76
478.77	323.97
479.14	323.90
479.50	324.04
479.87	324.33
480.23	324.65
480.60	324.91
480.96	325.22
481.33	325.86
481.69	326.47
482.06	327.00
482.42	327.49
482.79	328.14
483.15	328.92
483.52	329.85
483.88	330.72
484.25	331.65
484.61	332.66
484.98	333.75
485.34	335.08
485.71	336.44
486.07	337.80
486.44	339.08
486.80	340.72
487.17	342.37
487.53	344.18
487.90	346.03
488.26	348.11
488.62	350.29
488.99	352.31
489.35	354.51
489.72	356.91
490.08	359.40
490.44	361.93
490.81	364.63
491.17	367.36
491.54	370.35
491.90	373.39
492.26	376.60
492.63	380.00
492.99	383.41
493.36	387.07
493.72	390.92
494.08	394.97
494.45	399.14
494.81	403.49
495.17	407.90
495.54	412.60
495.90	417.33
496.26	422.17
496.63	427.35
496.99	432.70
497.35	438.19
497.72	443.95
498.08	449.86
498.44	455.95
498.80	462.33
499.17	468.83
499.53	475.52
499.89	482.36
500.26	489.30
500.62	496.41
500.98	503.76
501.34	511.17
501.71	518.87
502.07	526.67
502.43	534.59
502.79	542.69
503.16	550.99
503.52	559.55
503.88	568.21
504.24	577.10
504.60	586.11
504.97	595.28
505.33	604.51
505.69	614.33
506.05	624.10
506.41	633.80
506.78	643.79
507.14	653.96
507.50	664.29
507.86	674.84
508.22	685.53
508.59	696.09
508.95	707.12
509.31	718.23
509.67	729.64
510.03	741.06
510.39	752.81
510.75	764.51
511.12	776.36
511.48	788.43
511.84	800.53
512.20	812.84
512.56	825.33
512.92	838.00
513.28	850.49
513.64	863.17
514.00	875.88
514.37	888.66
514.73	901.55
515.09	914.40
515.45	927.12
515.81	939.95
516.17	953.17
516.53	966.12
516.89	979.10
517.25	992.10
517.61	1005.38
517.97	1018.49
518.33	1031.46
518.69	1044.71
519.05	1058.05
519.41	1071.52
519.77	1085.03
520.13	1098.06
520.49	1110.93
520.85	1124.01
521.21	1137.02
521.57	1150.46
521.93	1163.36
522.29	1176.87
522.65	1190.28
523.01	1203.64
523.37	1216.58
523.73	1229.58
524.09	1242.58
524.45	1255.73
524.81	1268.78
525.17	1281.80
525.53	1294.70
525.89	1307.75
526.25	1320.56
526.61	1333.18
526.97	1345.99
527.33	1358.58
527.68	1371.82
528.04	1385.08
528.40	1397.88
528.76	1410.83
529.12	1423.30
529.48	1436.10
529.84	1448.05
530.20	1460.46
530.56	1472.70
530.91	1485.64
531.27	1498.16
531.63	1510.53
531.99	1522.85
532.35	1534.93
532.71	1546.99
533.07	1559.52
533.42	1571.35
533.78	1583.30
534.14	1595.07
534.50	1605.91
534.86	1617.25
535.21	1627.73
535.57	1638.87
535.93	1649.88
536.29	1660.68
536.65	1671.91
537.00	1682.72
537.36	1693.81
537.72	1704.49
538.08	1715.55
538.44	1726.07
538.79	1736.79
539.15	1747.31
539.51	1757.75
539.87	1768.77
540.22	1779.27
540.58	1789.78
540.94	1800.43
541.29	1810.23
541.65	1819.62
542.01	1829.82
542.37	1839.62
542.72	1849.51
543.08	1858.85
543.44	1868.95
543.79	1878.04
544.15	1887.17
544.51	1896.79
544.87	1906.30
545.22	1915.19
545.58	1923.84
545.94	1932.55
546.29	1940.83
546.65	1949.00
547.01	1956.97
547.36	1964.35
547.72	1971.81
548.07	1979.19
548.43	1986.62
548.79	1994.30
549.14	2002.19
549.50	2010.31
549.86	2017.81
550.21	2024.93
550.57	2032.46
550.92	2039.07
551.28	2046.28
551.64	2053.37
551.99	2060.73
552.35	2067.61
552.70	2074.23
553.06	2080.63
553.41	2086.70
553.77	2093.13
554.13	2099.32
554.48	2106.12
554.84	2112.81
555.19	2119.08
555.55	2125.39
555.90	2131.52
556.26	2138.07
556.61	2143.99
556.97	2148.75
557.32	2154.45
557.68	2160.72
558.03	2166.30
558.39	2171.54
558.74	2177.35
559.10	2182.70
559.45	2188.06
559.81	2193.54
560.16	2199.05
560.52	2205.03
560.87	2211.27
561.23	2217.13
561.58	2223.71
561.94	2228.91
562.29	2233.70
562.64	2239.93
563.00	2245.46
563.35	2251.04
563.71	2256.84
564.06	2262.52
564.42	2268.44
564.77	2273.49
565.12	2278.62
565.48	2283.84
565.83	2289.39
566.19	2294.78
566.54	2300.21
566.89	2304.72
567.25	2309.47
567.60	2315.08
567.96	2320.23
568.31	2324.75
568.66	2328.87
569.02	2332.78
569.37	2336.61
569.72	2341.00
570.08	2344.52
570.43	2347.64
570.78	2350.81
571.14	2353.48
571.49	2356.68
571.84	2360.35
572.20	2363.33
572.55	2366.62
572.90	2368.92
573.26	2371.82
573.61	2374.39
573.96	2376.61
574.31	2378.80
574.67	2380.74
575.02	2381.66
575.37	2383.03
575.72	2383.99
576.08	2385.64
576.43	2385.95
576.78	2386.64
577.13	2388.51
577.49	2389.71
577.84	2391.09
578.19	2392.56
578.54	2393.26
578.90	2394.20
579.25	2394.23
579.60	2394.36
579.95	2393.84
580.30	2394.32
580.66	2393.65
581.01	2392.11
581.36	2390.05
581.71	2388.77
582.06	2387.75
582.42	2387.07
582.77	2385.00
583.12	2383.55
583.47	2382.48
583.82	2382.06
584.17	2380.97
584.53	2378.93
584.88	2376.96
585.23	2375.11
585.58	2373.06
585.93	2371.10
586.28	2368.92
586.63	2366.57
586.98	2364.50
587.34	2362.61
587.69	2360.29
588.04	2358.52
588.39	2357.40
588.74	2355.07
589.09	2352.59
589.44	2349.75
589.79	2347.78
590.14	2346.38
590.49	2343.74
590.84	2339.96
591.19	2337.05
591.54	2333.84
591.89	2329.93
592.25	2326.97
592.60	2323.03
592.95	2318.93
593.30	2314.84
593.65	2310.58
594.00	2306.48
594.35	2303.64
594.70	2299.15
595.05	2294.69
595.40	2289.26
595.75	2283.79
596.10	2280.19
596.45	2275.53
596.80	2271.02
597.15	2265.58
597.50	2259.58
597.85	2254.84
598.19	2249.82
598.54	2244.10
598.89	2239.20
599.24	2234.91
599.59	2228.85
599.94	2223.18
600.29	2217.34
600.64	2211.78
600.99	2205.25
601.34	2199.73
601.69	2192.81
602.04	2186.50
602.39	2180.07
602.74	2174.31
603.08	2168.72
603.43	2162.44
603.78	2155.68
604.13	2148.64
604.48	2141.59
604.83	2135.53
605.18	2129.27
605.53	2122.31
605.87	2115.42
606.22	2108.70
606.57	2100.68
606.92	2092.92
607.27	2086.12
607.62	2079.53
607.96	2072.53
608.31	2066.13
608.66	2058.56
609.01	2051.07
609.36	2044.01
609.70	2036.23
610.05	2028.40
610.40	2020.31
610.75	2012.08
611.10	2004.65
611.44	1995.95
611.79	1987.32
612.14	1977.47
612.49	1967.05
612.83	1957.88
613.18	1948.70
613.53	1939.30
613.88	1930.01
614.22	1921.44
614.57	1911.52
614.92	1901.21
615.27	1891.14
615.61	1881.21
615.96	1871.62
616.31	1862.08
616.65	1852.87
617.00	1843.05
617.35	1833.52
617.70	1823.85
618.04	1813.78
618.39	1803.39
618.74	1793.89
619.08	1784.41
619.43	1775.74
619.78	1767.52
620.12	1758.95
620.47	1749.36
620.82	1739.20
621.16	1729.37
621.51	1719.57
621.85	1709.78
622.20	1699.29
622.55	1688.79
622.89	1679.01
623.24	1669.22
623.59	1659.56
623.93	1649.34
624.28	1639.87
624.62	1629.78
624.97	1619.53
625.32	1609.88
625.66	1601.18
626.01	1592.21
626.35	1582.89
626.70	1572.78
627.04	1562.74
627.39	1552.66
627.73	1543.45
628.08	1534.36
628.43	1524.85
628.77	1515.58
629.12	1506.78
629.46	1499.08
629.81	1490.64
630.15	1480.96
630.50	1471.31
630.84	1460.81
631.19	1451.04
631.53	1441.68
631.88	1431.75
632.22	1421.66
632.57	1412.29
632.91	1402.24
633.26	1392.53
633.60	1382.89
633.95	1373.68
634.29	1364.29
634.64	1355.00
634.98	1345.16
635.32	1336.02
635.67	1327.58
636.01	1318.30
636.36	1308.59
636.70	1299.07
637.05	1289.75
637.39	1280.93
637.73	1272.32
638.08	1264.84
638.42	1256.64
638.77	1247.80
639.11	1239.47
639.45	1231.74
639.80	1223.15
640.14	1214.44
640.49	1205.58
640.83	1196.82
641.17	1188.76
641.52	1180.50
641.86	1171.98
642.20	1164.04
642.55	1155.45
642.89	1146.63
643.23	1138.03
643.58	1129.96
643.92	1120.96
644.26	1112.42
644.61	1104.07
644.95	1095.29
645.29	1086.16
645.64	1077.08
645.98	1068.81
646.32	1060.85
646.66	1052.35
647.01	1044.11
647.35	1035.99
647.69	1027.71
648.04	1019.42
648.38	1010.57
648.72	1001.93
649.06	993.55
649.41	985.57
649.75	977.73
650.09	969.90
650.43	961.98
650.78	953.75
651.12	946.11
651.46	938.77
651.80	931.53
652.14	924.31
652.49	916.88
652.83	909.61
653.17	901.91
653.51	894.39
653.85	887.29
654.20	880.12
654.54	872.63
654.88	865.54
655.22	858.49
655.56	851.64
655.90	844.91
656.25	838.36
656.59	831.38
656.93	824.51
657.27	817.50
657.61	810.69
657.95	804.73
658.29	798.89
658.64	792.80
658.98	786.46
659.32	780.02
659.66	773.83
660.00	767.57
660.34	761.64
660.68	755.65
661.02	749.45
661.36	743.63
661.70	738.03
662.05	732.44
662.39	727.04
662.73	721.71
663.07	716.43
663.41	710.86
663.75	705.31
664.09	699.66
664.43	694.26
664.77	688.99
665.11	683.18
665.45	677.43
665.79	671.71
666.13	666.05
666.47	660.63
666.81	655.26
667.15	649.99
667.49	644.96
667.83	639.82
668.17	634.68
668.51	629.64
668.85	624.80
669.19	620.00
669.53	615.08
669.87	610.06
670.21	605.42
670.55	600.77
670.89	596.42
671.23	592.21
671.57	587.94
671.91	583.68
672.25	579.67
672.58	575.54
672.92	571.57
673.26	567.76
673.60	564.01
673.94	560.21
674.28	556.67
674.62	552.89
674.96	549.13
675.30	545.72
675.64	542.14
675.97	538.63
676.31	535.12
676.65	531.50
676.99	528.14
677.33	524.30
677.67	520.77
678.01	516.94
678.34	513.34
678.68	509.85
679.02	506.34
679.36	502.66
679.70	499.13
680.04	495.66
680.37	492.30
680.71	489.02
681.05	485.90
681.39	482.67
681.73	479.58
682.06	476.60
682.40	473.53
682.74	470.37
683.08	467.15
683.42	464.00
683.75	461.09
684.09	458.07
684.43	455.30
684.77	452.37
685.10	449.70
685.44	446.84
685.78	443.97
686.12	441.19
686.45	438.55
686.79	435.96
687.13	433.42
687.46	430.83
687.80	428.20
688.14	425.40
688.48	422.86
688.81	420.27
689.15	417.74
689.49	415.18
689.82	412.71
690.16	410.22
690.50	407.84
690.83	405.40
691.17	402.95
691.51	400.53
691.84	398.34
692.18	396.19
692.52	394.03
692.85	391.96
693.19	389.93
693.52	387.78
693.86	385.63
694.20	383.47
694.53	381.39
694.87	379.24
695.21	377.21
695.54	375.06
695.88	372.94
696.21	370.84
696.55	368.75
696.88	366.76
697.22	364.83
697.56	362.97
697.89	361.17
698.23	359.43
698.56	357.70
698.90	356.01
699.23	354.09
699.57	352.30
699.90	350.50
700.24	348.72
700.58	347.03
700.91	345.41
701.25	343.93
701.58	342.35
701.92	340.83
702.25	339.32
702.59	337.77
702.92	336.30
703.26	334.76
703.59	333.35
703.93	332.11
704.26	330.75
704.60	329.27
704.93	327.82
705.26	326.39
705.60	324.96
705.93	323.47
706.27	322.22
706.60	320.97
706.94	319.75
707.27	318.40
707.61	317.09
707.94	315.79
708.27	314.28
708.61	312.88
708.94	311.54
709.28	310.28
709.61	309.09
709.94	307.91
710.28	306.75
710.61	305.60
710.95	304.22
711.28	303.15
711.61	302.04
711.95	300.97
712.28	299.80
712.61	298.69
712.95	297.65
713.28	296.62
713.61	295.50
713.95	294.40
714.28	293.39
714.61	292.39
714.95	291.40
715.28	290.41
715.61	289.39
715.95	288.47
716.28	287.49
716.61	286.51
716.95	285.52
717.28	284.60
717.61	283.65
717.94	282.80
718.28	281.79
718.61	280.91
718.94	280.03
719.27	279.21
719.61	278.35
719.94	277.51
720.27	276.51
720.60	275.68
720.94	274.88
721.27	274.14
721.60	273.45
721.93	272.75
722.27	272.16
722.60	271.53
722.93	270.81
723.26	270.17
723.59	269.51
723.93	268.93
724.26	268.34
724.59	267.71
724.92	267.10
725.25	266.58
725.59	266.02
725.92	265.50
726.25	264.94
726.58	264.39
726.91	263.80
727.24	263.32
727.57	262.81
727.91	262.23
728.24	261.73
728.57	261.18
728.90	260.62
729.23	260.00
729.56	259.59
729.89	259.09
730.22	258.56
730.55	258.10
730.89	257.54
731.22	256.97
731.55	256.42
731.88	255.95
732.21	255.44
732.54	254.92
732.87	254.38
733.20	253.90
733.53	253.45
733.86	253.03
734.19	252.55
734.52	252.11
734.85	251.83
735.18	251.32
735.51	250.93
735.84	250.50
736.17	250.15
736.50	249.65
736.83	249.47
737.16	249.09
737.49	248.66
737.82	248.29
738.15	247.94
738.48	247.63
738.81	247.22
739.14	246.83
739.47	246.47
739.80	246.11
740.13	245.81
740.46	245.43
740.79	245.02
741.12	244.67
741.45	244.32
741.78	243.92
742.11	243.65
742.44	243.27
742.77	243.04
743.10	242.68
743.43	242.31
743.75	241.76
744.08	241.68
744.41	241.36
744.74	241.00
745.07	240.66
745.40	240.37
745.73	240.11
746.06	239.80
746.39	239.50
746.71	239.16
747.04	238.80
747.37	238.50
747.70	238.24
748.03	237.99
748.36	237.73
748.68	237.39
749.01	237.04
749.34	236.76
749.67	236.43
750.00	236.18
750.33	236.09
750.65	235.85
750.98	235.33
751.31	235.09
751.64	234.89
751.97	234.76
752.29	234.48
752.62	234.16
752.95	233.89
753.28	233.64
753.60	233.40
753.93	233.25
754.26	233.04
754.59	232.81
754.91	232.54
755.24	232.30
755.57	232.09
755.90	231.90
756.22	231.70
756.55	231.43
756.88	231.23
757.20	230.87
757.53	230.63
757.86	230.43
758.19	230.23
758.51	230.04
758.84	229.74
759.17	229.55
759.49	229.39
759.82	229.34
760.15	229.21
760.47	229.03
760.80	228.79
761.13	228.65
761.45	228.45
761.78	228.28
762.11	228.09
762.43	227.91
762.76	227.74
763.08	227.60
763.41	227.45
763.74	227.25
764.06	227.08
764.39	226.92
764.71	226.78
765.04	226.61
765.37	226.46
765.69	226.34
766.02	226.19
766.34	226.06
766.67	225.83
767.00	225.70
767.32	225.72
767.65	225.70
767.97	225.54
768.30	225.43
768.62	225.35
768.95	225.23
769.27	225.08
769.60	225.01
769.92	224.84
770.25	224.71
770.57	224.58
770.90	224.47
771.22	224.35
771.55	224.27
771.87	224.16
772.20	224.05
772.52	224.07
772.85	224.21
773.17	224.07
773.50	223.94
773.82	223.83
774.15	223.61
774.47	223.39
774.80	223.29
775.12	223.20
775.45	223.09
775.77	223.03
776.09	222.99
776.42	222.88
776.74	222.85
777.07	222.73
777.39	222.67
777.72	222.60
778.04	222.56
778.36	222.44
778.69	222.38
779.01	222.28
779.33	222.05
779.66	221.75
779.98	221.69
780.31	221.62
780.63	221.62
780.95	221.61
781.28	221.54
781.60	221.46
781.92	221.39
782.25	221.31
782.57	221.22
782.89	221.12
783.22	221.08
783.54	220.98
783.86	220.96
784.19	220.89
784.51	220.90
784.83	220.79
785.16	220.73
785.48	220.67
785.80	220.62
786.12	220.59
786.45	220.56
786.77	220.53
787.09	220.48
787.42	220.35
787.74	220.30
788.06	220.27
788.38	220.21
788.71	220.13
789.03	220.10
789.35	220.04
789.67	219.98
789.99	219.91
790.32	219.84
790.64	219.83
790.96	219.93
791.28	219.77
791.61	219.73
791.93	219.72
792.25	219.66
792.57	219.77
792.89	219.65
793.21	219.58
793.54	219.51
793.86	219.44
794.18	219.40
794.50	219.31
794.82	219.25
795.14	219.24
795.47	219.24
795.79	219.19
796.11	219.14
796.43	219.07
796.75	219.04
797.07	219.01
797.39	218.95
797.71	218.79
798.04	218.79
798.36	218.78
798.68	218.73
799.00	218.71
799.32	218.57
799.64	218.60
799.96	218.55
800.28	218.57
800.60	218.51
800.92	218.49
801.24	218.45
801.56	218.43
801.89	218.36
802.21	218.36
802.53	218.27
802.85	218.29
803.17	218.37
803.49	218.28
803.81	218.23
804.13	218.17
804.45	218.12
804.77	218.11
805.09	218.07
805.41	218.01
805.73	217.95
806.05	217.88
806.37	217.81
806.69	217.78
807.01	217.74
807.33	217.75
807.65	217.63
807.97	217.72
808.28	217.68
808.60	217.67
808.92	217.61
809.24	217.71
809.56	217.65
809.88	217.56
810.20	217.55
810.52	217.56
810.84	217.53
811.16	217.44
811.48	217.38
811.80	217.41
812.12	217.36
812.43	217.36
812.75	217.35
813.07	217.33
813.39	217.33
813.71	217.26
814.03	217.23
814.35	217.25
814.67	217.11
814.98	217.06
815.30	217.01
815.62	216.92
815.94	216.78
816.26	216.77
816.58	216.73
816.89	216.72
817.21	216.67
817.53	216.64
817.85	216.66
818.17	216.64
818.48	216.56
818.80	216.59
819.12	216.55
819.44	216.49
819.76	216.45
820.07	216.41
820.39	216.40
820.71	216.37
821.03	216.36
821.34	216.35
821.66	216.36
821.98	216.36
822.30	216.35
822.61	216.44
822.93	216.42
823.25	216.39
823.57	216.35
823.88	216.40
824.20	216.42
824.52	216.43
824.83	216.40
825.15	216.39
825.47	216.36
825.79	216.36
826.10	216.34
826.42	216.33
826.74	216.35
827.05	216.32
827.37	216.31
827.69	216.29
828.00	216.28
828.32	216.29
828.64	216.29
828.95	216.41
829.27	216.33
829.58	216.31
829.90	216.35
830.22	216.36
830.53	216.30
830.85	216.25
831.17	216.19
831.48	216.21
831.80	216.19
832.11	216.19
832.43	216.13
832.75	216.16
833.06	216.25
833.38	216.16
833.69	216.16
834.01	216.17
834.32	216.17
834.64	216.10
834.96	216.06
835.27	216.03
835.59	215.95
835.90	215.91
836.22	215.91
836.53	215.83
836.85	215.82
837.16	215.99
837.48	215.99
837.79	216.06
838.11	216.04
838.42	216.05
838.74	216.06
839.05	216.05
839.37	216.05
839.68	215.95
840.00	215.97
840.31	216.00
840.63	215.97
840.94	215.94
841.26	215.93
841.57	215.93
841.88	215.94
842.20	215.89
842.51	215.87
842.83	215.87
843.14	216.06
843.46	216.08
843.77	215.97
844.08	215.95
844.40	215.90
844.71	215.88
845.03	215.86
845.34	215.84
845.65	215.83
845.97	215.82
846.28	215.81
846.60	215.83
846.91	215.81
847.22	215.80
847.54	215.80
847.85	215.79
848.16	215.79
848.48	215.74
848.79	215.82
849.10	215.86
849.42	215.83
849.73	215.64
850.04	215.61
850.36	215.54
850.67	215.59
850.98	215.56
851.30	215.58
851.61	215.56
851.92	215.53
852.23	215.58
852.55	215.59
852.86	215.58
853.17	215.55
853.49	215.57
853.80	215.58
854.11	215.61
854.42	215.66
854.74	215.61
855.05	215.61
855.36	215.50
855.67	215.48
855.99	215.49
856.30	215.72
856.61	215.70
856.92	215.71
857.23	215.67
857.55	215.66
857.86	215.65
858.17	215.67
858.48	215.66
858.79	215.63
859.11	215.64
859.42	215.64
859.73	215.63
860.04	215.61
860.35	215.56
860.66	215.53
860.98	215.53
861.29	215.56
861.60	215.56
861.91	215.63
862.22	215.60
862.53	215.57
862.84	215.33
863.16	215.37
863.47	215.32
863.78	215.31
864.09	215.32
864.40	215.34
864.71	215.35
865.02	215.33
865.33	215.28
865.64	215.22
865.95	215.18
866.27	215.32
866.58	215.31
866.89	215.35
867.20	215.30
867.51	215.23
867.82	215.21
868.13	215.32
868.44	215.26
868.75	215.27
869.06	215.27
869.37	215.28
869.68	215.23
869.99	215.26
870.30	215.26
870.61	215.26
870.92	215.23
871.23	215.22
871.54	215.26
871.85	215.32
872.16	215.35
872.47	215.33
872.78	215.19
873.09	215.19
873.40	215.18
873.71	215.21
874.02	215.24
874.33	215.24
874.64	215.13
874.95	215.18
875.26	215.15
875.56	215.18
875.87	215.16
876.18	215.14
876.49	215.35
876.80	215.32
877.11	215.29
877.42	215.31
877.73	215.30
878.04	215.27
878.35	215.25
878.66	215.25
878.96	215.27
879.27	215.29
879.58	215.32
879.89	215.29
880.20	215.36
880.51	215.36
880.82	215.37
881.12	215.37
881.43	215.35
881.74	215.33
882.05	215.30
882.36	215.33
882.67	215.33
882.97	215.10
883.28	215.12
883.59	215.11
883.90	215.12
884.21	215.15
884.51	215.15
884.82	215.12
885.13	215.12
885.44	215.11
885.74	215.08
886.05	215.04
886.36	215.05
886.67	214.92
886.98	215.01
887.28	214.99
887.59	214.97
887.90	214.96
888.20	214.98
888.51	215.04
888.82	215.00
889.13	215.01
889.43	215.18
889.74	215.14
890.05	215.14
890.35	215.12
890.66	215.07
890.97	215.06
891.28	215.03
891.58	215.02
891.89	215.06
892.20	215.03
892.50	215.00
892.81	215.02
893.12	215.07
893.42	214.97
893.73	214.99
894.04	215.01
894.34	215.04
894.65	215.02
894.95	214.94
895.26	214.95
895.57	215.06
895.87	214.88
896.18	214.92
896.48	214.93
896.79	214.94
897.10	214.96
897.40	214.96
897.71	215.00
898.01	214.95
898.32	214.97
898.63	214.95
898.93	214.98
899.24	214.95
899.54	214.90
899.85	214.92
900.15	214.91
900.46	214.93
900.76	214.90
901.07	214.89
901.38	214.91
901.68	214.90
901.99	214.78
902.29	214.77
902.60	214.78
902.90	214.76
903.21	214.74
903.51	214.72
903.82	214.78
904.12	214.78
904.43	214.83
904.73	214.80
905.03	214.87
905.34	215.03
905.64	215.01
905.95	215.03
906.25	215.02
906.56	215.02
906.86	215.01
907.17	215.00
907.47	215.03
907.77	215.02
908.08	215.03
908.38	215.06
908.69	215.11
908.99	215.10
909.30	215.12
909.60	215.12
909.90	215.14
910.21	215.06
910.51	215.03
910.81	215.02
911.12	215.04
911.42	215.03
911.73	214.85
912.03	214.88
912.33	214.92
912.64	214.92
912.94	214.88
913.24	214.84
913.55	214.83
913.85	214.79
914.15	214.82
914.46	214.82
914.76	214.80
915.06	214.78
915.37	214.78
915.67	214.79
915.97	214.79
916.27	214.76
916.58	214.74
916.88	214.75
917.18	214.73
917.49	214.89
917.79	214.88
918.09	214.90
918.39	214.92
918.70	214.91
919.00	214.90
919.30	215.01
919.60	214.98
919.91	214.96
920.21	215.03
920.51	214.98
920.81	214.94
921.12	214.96
921.42	214.95
921.72	214.93
922.02	214.89
922.32	214.93
922.63	214.96
922.93	215.08
923.23	215.10
923.53	215.05
923.83	214.91
924.13	214.91
924.44	214.91
924.74	214.96
925.04	215.02
925.34	215.02
925.64	214.89
925.94	214.92
926.24	215.06
926.55	215.03
926.85	215.06
927.15	215.10
927.45	215.09
927.75	215.08
928.05	215.07
928.35	215.08
928.65	215.09
928.95	215.10
929.26	215.05
929.56	215.07
929.86	215.13
930.16	215.12
930.46	215.15
930.76	215.17
931.06	215.06
931.36	214.99
931.66	215.02
931.96	215.09
932.26	215.06
932.56	214.95
932.86	214.97
933.16	214.96
933.46	214.94
933.76	214.90
934.06	214.98
934.36	215.04
934.66	215.00
934.96	214.96
935.26	214.98
935.56	214.97
935.86	214.94
936.16	214.90
936.46	214.85
936.76	214.80
937.06	214.78
937.36	214.81
937.66	214.83
937.96	214.78
938.26	214.74
938.56	214.79
938.86	214.79
939.16	214.82
939.46	214.86
939.76	214.85
940.06	214.88
940.35	214.81
940.65	214.74
940.95	214.80
941.25	214.77
941.55	214.71
941.85	214.71
942.15	214.73
942.45	214.80
942.75	214.80
943.04	214.83
943.34	214.83
943.64	214.78
943.94	214.75
944.24	214.78
944.54	214.78
944.84	214.77
945.13	214.74
945.43	214.69
945.73	214.67
946.03	214.64
946.33	214.63
946.62	214.59
946.92	214.57
947.22	214.57
947.52	214.58
947.82	214.63
948.11	214.61
948.41	214.57
948.71	214.50
949.01	214.54
949.31	214.52
949.60	214.54
949.90	214.60
950.20	214.58
950.50	214.58
950.79	214.60
951.09	214.61
951.39	214.61
951.69	214.58
951.98	214.62
952.28	214.67
952.58	214.69
952.87	214.73
953.17	214.76
953.47	214.77
953.76	214.80
954.06	214.76
954.36	214.73
954.66	214.71
954.95	214.76
955.25	214.76
955.55	214.77
955.84	214.73
956.14	214.73
956.44	214.73
956.73	214.70
957.03	214.67
957.32	214.70
957.62	214.69
957.92	214.76
958.21	214.72
958.51	214.94
958.81	214.92
959.10	214.92
959.40	214.99
959.69	214.95
959.99	214.95
960.29	214.91
960.58	214.90
960.88	214.97
961.17	214.94
961.47	214.98
961.76	214.97
962.06	215.01
962.36	215.02
962.65	215.06
962.95	215.10
963.24	215.08
963.54	215.04
963.83	215.06
964.13	215.04
964.42	214.98
964.72	214.77
965.01	214.81
965.31	214.82
965.60	214.74
965.90	214.90
966.19	214.87
966.49	214.91
966.78	214.89
967.08	214.88
967.37	214.88
967.67	214.81
967.96	214.83
968.26	214.81
968.55	214.77
968.85	214.76
969.14	214.75
969.43	214.78
969.73	214.76
970.02	214.73
970.32	214.73
970.61	214.76
970.91	214.73
971.20	214.66
971.49	214.60
971.79	214.62
972.08	214.49
972.38	214.50
972.67	214.47
972.96	214.55
973.26	214.53
973.55	214.58
973.85	214.60
974.14	214.59
974.43	214.59
974.73	214.55
975.02	214.55
975.31	214.51
975.61	214.46
975.90	214.45
976.19	214.43
976.49	214.47
976.78	214.46
977.07	214.48
977.37	214.53
977.66	214.58
977.95	214.56
978.24	214.53
978.54	214.57
978.83	214.57
979.12	214.55
979.42	214.56
979.71	214.52
980.00	214.51
980.29	214.53
980.59	214.49
980.88	214.57
981.17	214.57
981.46	214.59
981.76	214.62
982.05	214.72
982.34	214.73
982.63	214.72
982.93	214.72
983.22	214.73
983.51	214.73
983.80	214.76
984.09	214.81
984.39	214.80
984.68	214.75
984.97	214.75
985.26	214.70
985.55	214.71
985.85	214.67
986.14	214.70
986.43	214.71
986.72	214.70
987.01	214.64
987.30	214.64
987.59	214.65
987.89	214.66
988.18	214.59
988.47	214.57
988.76	214.55
989.05	214.56
989.34	214.53
989.63	214.61
989.92	214.53
990.22	214.50
990.51	214.53
990.80	214.53
991.09	214.54
991.38	214.57
991.67	214.55
991.96	214.53
992.25	214.53
992.54	214.52
992.83	214.54
993.12	214.53
993.41	214.54
993.70	214.60
993.99	214.65
994.28	214.66
994.58	214.71
994.87	214.70
995.16	214.66
995.45	214.65
995.74	214.54
996.03	214.61
996.32	214.59
996.61	214.62
996.90	214.61
997.19	214.64
997.48	214.65
997.77	214.65
998.06	214.68
998.34	214.69
998.63	214.66
998.92	214.68
999.21	214.72
999.50	214.76
999.79	214.70
1000.08	214.64
1000.37	214.66
1000.66	214.65
1000.95	214.71
1001.24	214.74
1001.53	214.76
1001.82	214.76
1002.11	214.73
1002.40	214.77
1002.68	214.81
1002.97	214.96
1003.26	214.89
1003.55	214.86
1003.84	214.84
1004.13	214.91
1004.42	214.88
1004.71	214.89
1004.99	214.89
1005.28	214.89
1005.57	214.87
1005.86	214.85
1006.15	214.84
1006.44	214.83
1006.72	214.85
1007.01	214.81
1007.30	214.81
1007.59	214.80
1007.88	214.84
1008.17	214.80
1008.45	214.77
1008.74	214.71
1009.03	214.61
1009.32	214.62
1009.60	214.64
1009.89	214.63
1010.18	214.58
1010.47	214.55
1010.76	214.56
1011.04	214.52
1011.33	214.57
1011.62	214.59
1011.91	214.62
1012.19	214.65
1012.48	214.61
1012.77	214.60
1013.05	214.70
1013.34	214.72
1013.63	214.70
1013.92	214.71
1014.20	214.70
1014.49	214.76
1014.78	214.76
1015.06	214.69
1015.35	214.74
1015.64	214.77
1015.92	214.79
1016.21	214.75
1016.50	214.74
1016.78	214.75
1017.07	214.77
1017.36	214.67
1017.64	214.65
1017.93	214.64
1018.22	214.64
1018.50	214.68
1018.79	214.67
1019.08	214.57
1019.36	214.56
1019.65	214.53
1019.93	214.59
1020.22	214.65
1020.51	214.71
1020.79	214.68
1021.08	214.90
1021.36	214.65
1021.65	214.79
1021.94	214.52
1022.22	214.50
1022.51	213.90
1022.79	216.05
1023.08	214.94
1023.36	216.86
1023.65	214.18
>>>>>End Processed Spectral Data<<<<<
