SpectraSuite Data File
++++++++++++++++++++++++++++++++++++
Date: Tue Jan 29 16:44:45 EST 2013
User: group
Dark Spectrum Present: No
Reference Spectrum Present: No
Number of Sampled Component Spectra: 1
Spectrometers: USB2E7196
Integration Time (usec): 65000 (USB2E7196)
Spectra Averaged: 100 (USB2E7196)
Boxcar Smoothing: 10 (USB2E7196)
Correct for Electrical Dark: No (USB2E7196)
Strobe/Lamp Enabled: No (USB2E7196)
Correct for Detector Non-linearity: No (USB2E7196)
Correct for Stray Light: No (USB2E7196)
Number of Pixels in Processed Spectrum: 2048
>>>>>Begin Processed Spectral Data<<<<<
339.09	0.00
339.48	201.93
339.86	202.59
340.24	204.33
340.63	206.47
341.01	210.13
341.39	208.55
341.78	210.73
342.16	211.32
342.54	211.77
342.93	200.93
343.31	211.10
343.69	211.63
344.07	212.11
344.46	212.56
344.84	212.97
345.22	213.17
345.60	213.43
345.99	213.62
346.37	213.76
346.75	213.88
347.13	213.97
347.52	214.04
347.90	214.18
348.28	214.21
348.66	214.30
349.05	214.24
349.43	214.31
349.81	214.40
350.19	214.46
350.57	214.54
350.96	214.65
351.34	214.75
351.72	214.85
352.10	215.01
352.48	215.08
352.87	215.09
353.25	215.15
353.63	215.20
354.01	215.26
354.39	215.35
354.77	215.42
355.15	215.55
355.54	215.62
355.92	215.61
356.30	215.67
356.68	215.86
357.06	215.97
357.44	216.00
357.82	216.04
358.20	216.16
358.58	216.19
358.97	216.30
359.35	216.40
359.73	216.51
360.11	216.53
360.49	216.60
360.87	216.67
361.25	216.74
361.63	216.90
362.01	216.96
362.39	216.96
362.77	217.03
363.15	217.03
363.53	217.07
363.91	217.12
364.29	217.19
364.67	217.01
365.05	217.05
365.43	217.12
365.81	217.14
366.19	217.24
366.57	217.35
366.95	217.31
367.33	217.27
367.71	217.26
368.09	217.33
368.47	217.33
368.85	217.30
369.23	217.36
369.61	217.29
369.99	217.33
370.37	217.36
370.75	217.44
371.13	217.38
371.51	217.33
371.89	217.33
372.27	217.29
372.65	217.30
373.03	217.25
373.41	217.19
373.78	217.15
374.16	217.01
374.54	216.89
374.92	216.84
375.30	216.81
375.68	216.74
376.06	216.70
376.44	216.63
376.82	216.64
377.19	216.56
377.57	216.47
377.95	216.35
378.33	216.28
378.71	216.08
379.09	216.06
379.47	216.05
379.84	215.99
380.22	215.93
380.60	215.82
380.98	215.79
381.36	215.75
381.73	215.71
382.11	215.67
382.49	215.65
382.87	215.60
383.25	215.52
383.62	215.72
384.00	215.61
384.38	215.56
384.76	215.55
385.13	215.61
385.51	215.58
385.89	215.55
386.27	215.55
386.64	215.58
387.02	215.55
387.40	215.49
387.78	215.47
388.15	215.46
388.53	215.45
388.91	215.41
389.29	215.38
389.66	215.37
390.04	215.37
390.42	215.36
390.79	215.35
391.17	215.33
391.55	215.06
391.92	215.07
392.30	215.11
392.68	215.03
393.05	214.98
393.43	215.03
393.81	215.00
394.18	214.97
394.56	214.96
394.94	215.02
395.31	215.02
395.69	215.09
396.06	215.12
396.44	215.13
396.82	215.14
397.19	215.27
397.57	215.27
397.95	215.28
398.32	215.24
398.70	215.25
399.07	215.36
399.45	215.42
399.82	215.45
400.20	215.47
400.58	215.54
400.95	215.52
401.33	215.59
401.70	215.84
402.08	215.95
402.45	216.04
402.83	216.13
403.20	216.23
403.58	216.29
403.95	216.45
404.33	216.63
404.71	216.82
405.08	217.03
405.46	217.22
405.83	217.42
406.21	217.63
406.58	217.90
406.96	218.09
407.33	218.36
407.70	218.65
408.08	219.12
408.45	219.44
408.83	219.84
409.20	220.16
409.58	220.44
409.95	220.88
410.33	221.37
410.70	221.80
411.08	222.35
411.45	222.91
411.82	223.49
412.20	224.20
412.57	225.03
412.95	225.64
413.32	226.44
413.69	227.28
414.07	228.20
414.44	229.19
414.82	230.22
415.19	231.39
415.56	232.62
415.94	233.82
416.31	235.27
416.68	236.70
417.06	238.32
417.43	239.87
417.81	241.60
418.18	243.35
418.55	245.29
418.93	247.36
419.30	249.49
419.67	251.71
420.04	253.97
420.42	256.31
420.79	259.15
421.16	262.01
421.54	264.95
421.91	267.92
422.28	271.05
422.66	274.36
423.03	277.65
423.40	281.00
423.77	284.64
424.15	288.34
424.52	292.18
424.89	296.37
425.26	300.49
425.64	304.42
426.01	308.79
426.38	313.28
426.75	317.82
427.13	322.51
427.50	327.57
427.87	332.79
428.24	338.04
428.61	343.05
428.99	348.55
429.36	354.62
429.73	360.54
430.10	366.43
430.47	372.51
430.85	378.86
431.22	385.61
431.59	392.74
431.96	399.59
432.33	407.11
432.70	414.40
433.08	422.88
433.45	431.00
433.82	439.04
434.19	447.96
434.56	456.68
434.93	465.09
435.30	473.34
435.68	482.53
436.05	491.57
436.42	500.47
436.79	508.65
437.16	517.38
437.53	526.72
437.90	535.87
438.27	544.84
438.64	554.00
439.01	562.55
439.38	570.14
439.75	577.46
440.13	585.95
440.50	593.95
440.87	600.43
441.24	607.05
441.61	614.28
441.98	619.76
442.35	626.19
442.72	632.56
443.09	638.68
443.46	642.41
443.83	644.94
444.20	647.18
444.57	650.38
444.94	651.92
445.31	653.38
445.68	654.76
446.05	655.41
446.42	654.73
446.79	653.75
447.16	652.69
447.53	651.93
447.90	648.59
448.27	645.36
448.64	640.72
449.01	637.43
449.37	631.64
449.74	625.92
450.11	618.93
450.48	611.56
450.85	603.99
451.22	597.52
451.59	591.36
451.96	585.55
452.33	577.62
452.70	570.42
453.07	561.95
453.43	553.33
453.80	545.01
454.17	536.98
454.54	529.41
454.91	521.18
455.28	513.20
455.65	505.75
456.02	498.12
456.38	491.73
456.75	483.82
457.12	477.19
457.49	470.65
457.86	464.45
458.23	458.97
458.59	453.05
458.96	446.94
459.33	441.54
459.70	436.13
460.07	431.86
460.43	426.99
460.80	422.32
461.17	418.29
461.54	414.05
461.91	409.99
462.27	405.89
462.64	402.44
463.01	398.61
463.38	394.85
463.74	391.13
464.11	387.93
464.48	385.06
464.85	381.95
465.21	379.52
465.58	376.88
465.95	373.74
466.32	371.13
466.68	368.57
467.05	365.99
467.42	363.38
467.78	360.67
468.15	358.03
468.52	356.12
468.88	353.65
469.25	351.47
469.62	349.64
469.98	347.65
470.35	345.82
470.72	344.11
471.08	342.35
471.45	340.85
471.82	339.29
472.18	337.61
472.55	336.41
472.92	334.96
473.28	333.73
473.65	332.62
474.02	331.49
474.38	330.58
474.75	329.85
475.11	329.03
475.48	328.39
475.85	327.93
476.21	327.45
476.58	327.08
476.94	326.83
477.31	326.55
477.67	326.30
478.04	326.17
478.41	326.14
478.77	326.29
479.14	326.20
479.50	326.27
479.87	326.54
480.23	326.83
480.60	327.11
480.96	327.40
481.33	327.96
481.69	328.52
482.06	329.03
482.42	329.51
482.79	330.07
483.15	330.87
483.52	331.83
483.88	332.65
484.25	333.62
484.61	334.59
484.98	335.58
485.34	336.87
485.71	338.19
486.07	339.61
486.44	340.90
486.80	342.57
487.17	344.29
487.53	346.14
487.90	348.05
488.26	350.07
488.62	352.24
488.99	354.29
489.35	356.45
489.72	358.86
490.08	361.36
490.44	363.96
490.81	366.70
491.17	369.42
491.54	372.49
491.90	375.50
492.26	378.70
492.63	382.15
492.99	385.62
493.36	389.28
493.72	393.13
494.08	397.17
494.45	401.39
494.81	405.75
495.17	410.11
495.54	414.76
495.90	419.55
496.26	424.44
496.63	429.62
496.99	435.02
497.35	440.61
497.72	446.41
498.08	452.35
498.44	458.42
498.80	464.85
499.17	471.30
499.53	478.00
499.89	484.97
500.26	491.96
500.62	499.06
500.98	506.49
501.34	513.98
501.71	521.73
502.07	529.43
502.43	537.44
502.79	545.69
503.16	554.04
503.52	562.65
503.88	571.31
504.24	580.29
504.60	589.37
504.97	598.57
505.33	607.88
505.69	617.78
506.05	627.70
506.41	637.56
506.78	647.69
507.14	657.95
507.50	668.35
507.86	678.99
508.22	689.73
508.59	700.44
508.95	711.47
509.31	722.76
509.67	734.28
510.03	745.68
510.39	757.35
510.75	769.22
511.12	781.13
511.48	793.29
511.84	805.53
512.20	817.88
512.56	830.50
512.92	843.37
513.28	856.03
513.64	868.75
514.00	881.58
514.37	894.58
514.73	907.70
515.09	920.79
515.45	933.64
515.81	946.71
516.17	960.09
516.53	973.42
516.89	986.52
517.25	999.79
517.61	1013.33
517.97	1026.78
518.33	1039.93
518.69	1053.56
519.05	1067.27
519.41	1081.01
519.77	1095.03
520.13	1108.35
520.49	1121.53
520.85	1134.92
521.21	1148.35
521.57	1162.10
521.93	1175.03
522.29	1188.86
522.65	1202.56
523.01	1216.35
523.37	1229.61
523.73	1242.89
524.09	1256.08
524.45	1269.52
524.81	1283.10
525.17	1296.46
525.53	1309.67
525.89	1323.16
526.25	1336.27
526.61	1349.30
526.97	1362.40
527.33	1375.52
527.68	1389.11
528.04	1402.68
528.40	1415.87
528.76	1429.40
529.12	1442.31
529.48	1455.81
529.84	1468.09
530.20	1480.80
530.56	1493.44
530.91	1506.80
531.27	1519.77
531.63	1532.63
531.99	1545.55
532.35	1557.74
532.71	1570.26
533.07	1583.33
533.42	1595.72
533.78	1608.05
534.14	1620.16
534.50	1631.59
534.86	1643.09
535.21	1653.98
535.57	1665.59
535.93	1676.93
536.29	1688.06
536.65	1699.64
537.00	1710.76
537.36	1722.32
537.72	1733.36
538.08	1744.88
538.44	1755.88
538.79	1767.10
539.15	1778.14
539.51	1789.04
539.87	1800.49
540.22	1811.42
540.58	1822.49
540.94	1833.44
541.29	1843.88
541.65	1853.81
542.01	1864.33
542.37	1874.54
542.72	1884.77
543.08	1894.59
543.44	1905.18
543.79	1914.41
544.15	1923.94
544.51	1934.03
544.87	1943.92
545.22	1953.37
545.58	1962.35
545.94	1971.39
546.29	1979.97
546.65	1988.35
547.01	1996.59
547.36	2004.28
547.72	2012.16
548.07	2019.59
548.43	2027.39
548.79	2035.15
549.14	2043.28
549.50	2051.95
549.86	2059.74
550.21	2067.34
550.57	2075.14
550.92	2082.05
551.28	2089.84
551.64	2097.15
551.99	2104.70
552.35	2111.96
552.70	2118.91
553.06	2125.70
553.41	2132.00
553.77	2138.59
554.13	2145.13
554.48	2152.13
554.84	2159.39
555.19	2165.94
555.55	2172.53
555.90	2178.83
556.26	2185.77
556.61	2191.92
556.97	2196.75
557.32	2202.66
557.68	2209.11
558.03	2214.81
558.39	2220.12
558.74	2226.00
559.10	2231.63
559.45	2237.16
559.81	2242.68
560.16	2248.09
560.52	2253.78
560.87	2260.16
561.23	2265.98
561.58	2272.50
561.94	2277.74
562.29	2282.30
562.64	2288.26
563.00	2293.87
563.35	2299.52
563.71	2305.08
564.06	2310.69
564.42	2316.56
564.77	2321.59
565.12	2326.73
565.48	2331.74
565.83	2337.17
566.19	2342.35
566.54	2347.47
566.89	2351.90
567.25	2356.46
567.60	2362.20
567.96	2367.31
568.31	2371.76
568.66	2376.10
569.02	2379.94
569.37	2383.69
569.72	2388.26
570.08	2391.70
570.43	2394.69
570.78	2397.72
571.14	2400.11
571.49	2403.21
571.84	2406.68
572.20	2409.55
572.55	2412.53
572.90	2414.81
573.26	2417.50
573.61	2420.08
573.96	2422.33
574.31	2424.41
574.67	2426.15
575.02	2426.72
575.37	2428.06
575.72	2428.64
576.08	2430.05
576.43	2430.10
576.78	2430.34
577.13	2431.64
577.49	2432.69
577.84	2433.64
578.19	2434.76
578.54	2435.33
578.90	2435.77
579.25	2435.36
579.60	2435.06
579.95	2434.02
580.30	2433.97
580.66	2433.16
581.01	2431.38
581.36	2428.70
581.71	2427.02
582.06	2425.72
582.42	2424.69
582.77	2422.36
583.12	2420.64
583.47	2418.94
583.82	2418.22
584.17	2416.91
584.53	2414.72
584.88	2412.54
585.23	2410.56
585.58	2408.06
585.93	2405.90
586.28	2403.72
586.63	2401.15
586.98	2398.80
587.34	2396.72
587.69	2394.08
588.04	2391.91
588.39	2390.20
588.74	2387.65
589.09	2384.78
589.44	2381.31
589.79	2378.71
590.14	2376.71
590.49	2373.66
590.84	2369.74
591.19	2366.36
591.54	2362.99
591.89	2358.81
592.25	2355.43
592.60	2351.10
592.95	2346.78
593.30	2342.53
593.65	2337.90
594.00	2333.36
594.35	2330.23
594.70	2325.39
595.05	2320.74
595.40	2315.19
595.75	2309.20
596.10	2305.61
596.45	2300.74
596.80	2296.20
597.15	2290.97
597.50	2284.72
597.85	2279.74
598.19	2274.40
598.54	2268.56
598.89	2263.24
599.24	2258.54
599.59	2252.33
599.94	2246.46
600.29	2240.46
600.64	2234.39
600.99	2227.53
601.34	2221.95
601.69	2214.80
602.04	2208.50
602.39	2201.82
602.74	2195.60
603.08	2190.16
603.43	2183.51
603.78	2176.61
604.13	2169.55
604.48	2162.08
604.83	2156.08
605.18	2149.98
605.53	2143.03
605.87	2136.02
606.22	2129.23
606.57	2121.27
606.92	2113.33
607.27	2106.35
607.62	2099.72
607.96	2092.77
608.31	2086.44
608.66	2078.68
609.01	2071.14
609.36	2064.09
609.70	2056.40
610.05	2048.69
610.40	2040.37
610.75	2031.93
611.10	2024.23
611.44	2015.24
611.79	2006.67
612.14	1996.66
612.49	1985.87
612.83	1976.52
613.18	1967.27
613.53	1957.92
613.88	1948.41
614.22	1939.72
614.57	1929.86
614.92	1919.25
615.27	1908.99
615.61	1898.67
615.96	1888.97
616.31	1879.43
616.65	1869.86
617.00	1860.23
617.35	1850.59
617.70	1840.94
618.04	1831.08
618.39	1820.95
618.74	1811.45
619.08	1801.86
619.43	1793.29
619.78	1784.99
620.12	1776.40
620.47	1766.83
620.82	1756.55
621.16	1746.71
621.51	1736.94
621.85	1727.14
622.20	1716.95
622.55	1706.47
622.89	1696.67
623.24	1687.16
623.59	1677.41
623.93	1667.41
624.28	1657.62
624.62	1647.56
624.97	1637.31
625.32	1627.40
625.66	1618.46
626.01	1609.73
626.35	1600.41
626.70	1590.34
627.04	1580.40
627.39	1570.34
627.73	1561.14
628.08	1552.30
628.43	1542.81
628.77	1533.56
629.12	1524.71
629.46	1516.86
629.81	1508.68
630.15	1499.32
630.50	1489.33
630.84	1478.85
631.19	1469.07
631.53	1459.88
631.88	1449.84
632.22	1439.93
632.57	1430.76
632.91	1420.85
633.26	1410.99
633.60	1401.48
633.95	1392.27
634.29	1382.79
634.64	1373.59
634.98	1363.63
635.32	1354.31
635.67	1345.90
636.01	1336.71
636.36	1327.08
636.70	1317.62
637.05	1308.22
637.39	1299.29
637.73	1290.80
638.08	1283.38
638.42	1275.14
638.77	1266.36
639.11	1258.06
639.45	1250.22
639.80	1241.81
640.14	1232.98
640.49	1224.19
640.83	1215.43
641.17	1207.24
641.52	1199.22
641.86	1190.73
642.20	1183.11
642.55	1174.56
642.89	1165.72
643.23	1157.15
643.58	1149.10
643.92	1140.12
644.26	1131.45
644.61	1123.08
644.95	1114.42
645.29	1105.30
645.64	1096.26
645.98	1087.81
646.32	1080.00
646.66	1071.61
647.01	1063.26
647.35	1055.17
647.69	1046.84
648.04	1038.60
648.38	1029.91
648.72	1021.18
649.06	1012.76
649.41	1004.50
649.75	996.57
650.09	988.75
650.43	980.72
650.78	972.36
651.12	964.55
651.46	957.18
651.80	949.88
652.14	942.63
652.49	935.13
652.83	927.80
653.17	920.13
653.51	912.52
653.85	905.28
654.20	898.13
654.54	890.72
654.88	883.56
655.22	876.28
655.56	869.19
655.90	862.43
656.25	855.71
656.59	848.80
656.93	841.79
657.27	834.68
657.61	827.69
657.95	821.62
658.29	815.83
658.64	809.77
658.98	803.32
659.32	796.79
659.66	790.52
660.00	784.11
660.34	778.06
660.68	771.89
661.02	765.53
661.36	759.50
661.70	753.70
662.05	748.08
662.39	742.70
662.73	737.33
663.07	731.95
663.41	726.30
663.75	720.53
664.09	714.87
664.43	709.46
664.77	704.10
665.11	698.22
665.45	692.32
665.79	686.41
666.13	680.78
666.47	675.18
666.81	669.72
667.15	664.31
667.49	659.07
667.83	653.85
668.17	648.57
668.51	643.46
668.85	638.56
669.19	633.70
669.53	628.64
669.87	623.54
670.21	618.74
670.55	614.07
670.89	609.61
671.23	605.26
671.57	600.82
671.91	596.49
672.25	592.39
672.58	588.24
672.92	584.21
673.26	580.24
673.60	576.36
673.94	572.50
674.28	568.95
674.62	565.12
674.96	561.35
675.30	557.87
675.64	554.11
675.97	550.48
676.31	546.84
676.65	543.19
676.99	539.71
677.33	535.88
677.67	532.21
678.01	528.37
678.34	524.72
678.68	521.20
679.02	517.65
679.36	513.93
679.70	510.28
680.04	506.65
680.37	503.18
680.71	499.88
681.05	496.64
681.39	493.28
681.73	490.14
682.06	487.07
682.40	483.94
682.74	480.77
683.08	477.55
683.42	474.26
683.75	471.22
684.09	468.16
684.43	465.28
684.77	462.35
685.10	459.50
685.44	456.63
685.78	453.64
686.12	450.81
686.45	448.08
686.79	445.35
687.13	442.74
687.46	440.08
687.80	437.37
688.14	434.51
688.48	431.90
688.81	429.18
689.15	426.55
689.49	423.91
689.82	421.38
690.16	418.72
690.50	416.27
690.83	413.74
691.17	411.15
691.51	408.61
691.84	406.28
692.18	403.98
692.52	401.65
692.85	399.47
693.19	397.28
693.52	395.07
693.86	392.80
694.20	390.62
694.53	388.41
694.87	386.16
695.21	384.04
695.54	381.87
695.88	379.67
696.21	377.45
696.55	375.27
696.88	373.16
697.22	371.20
697.56	369.28
697.89	367.33
698.23	365.54
698.56	363.73
698.90	361.96
699.23	360.04
699.57	358.15
699.90	356.28
700.24	354.43
700.58	352.64
700.91	350.93
701.25	349.33
701.58	347.69
701.92	346.06
702.25	344.40
702.59	342.70
702.92	341.08
703.26	339.57
703.59	338.10
703.93	336.81
704.26	335.36
704.60	333.87
704.93	332.39
705.26	330.87
705.60	329.43
705.93	327.89
706.27	326.56
706.60	325.30
706.94	324.05
707.27	322.68
707.61	321.31
707.94	319.99
708.27	318.49
708.61	317.01
708.94	315.65
709.28	314.36
709.61	313.15
709.94	311.96
710.28	310.69
710.61	309.49
710.95	308.03
711.28	306.90
711.61	305.67
711.95	304.49
712.28	303.29
712.61	302.05
712.95	300.97
713.28	299.92
713.61	298.74
713.95	297.58
714.28	296.52
714.61	295.43
714.95	294.40
715.28	293.36
715.61	292.37
715.95	291.41
716.28	290.43
716.61	289.44
716.95	288.43
717.28	287.48
717.61	286.47
717.94	285.59
718.28	284.52
718.61	283.62
718.94	282.74
719.27	281.83
719.61	281.03
719.94	280.14
720.27	279.14
720.60	278.25
720.94	277.44
721.27	276.67
721.60	275.97
721.93	275.22
722.27	274.57
722.60	273.85
722.93	273.09
723.26	272.41
723.59	271.68
723.93	271.09
724.26	270.41
724.59	269.77
724.92	269.13
725.25	268.59
725.59	267.98
725.92	267.44
726.25	266.90
726.58	266.31
726.91	265.68
727.24	265.16
727.57	264.60
727.91	263.97
728.24	263.42
728.57	262.81
728.90	262.24
729.23	261.57
729.56	261.14
729.89	260.62
730.22	260.04
730.55	259.48
730.89	258.91
731.22	258.37
731.55	257.80
731.88	257.28
732.21	256.75
732.54	256.20
732.87	255.65
733.20	255.15
733.53	254.64
733.86	254.18
734.19	253.67
734.52	253.24
734.85	252.93
735.18	252.45
735.51	252.09
735.84	251.67
736.17	251.34
736.50	250.81
736.83	250.62
737.16	250.24
737.49	249.86
737.82	249.45
738.15	249.06
738.48	248.68
738.81	248.32
739.14	247.91
739.47	247.51
739.80	247.12
740.13	246.80
740.46	246.41
740.79	246.02
741.12	245.64
741.45	245.26
741.78	244.79
742.11	244.50
742.44	244.09
742.77	243.79
743.10	243.37
743.43	242.99
743.75	242.42
744.08	242.34
744.41	241.98
744.74	241.63
745.07	241.26
745.40	240.98
745.73	240.68
746.06	240.35
746.39	240.06
746.71	239.74
747.04	239.31
747.37	238.97
747.70	238.70
748.03	238.39
748.36	238.10
748.68	237.80
749.01	237.46
749.34	237.17
749.67	236.87
750.00	236.60
750.33	236.49
750.65	236.25
750.98	235.70
751.31	235.46
751.64	235.24
751.97	235.14
752.29	234.85
752.62	234.52
752.95	234.25
753.28	233.96
753.60	233.72
753.93	233.56
754.26	233.36
754.59	233.06
754.91	232.84
755.24	232.61
755.57	232.37
755.90	232.13
756.22	231.85
756.55	231.63
756.88	231.38
757.20	231.04
757.53	230.76
757.86	230.56
758.19	230.34
758.51	230.12
758.84	229.80
759.17	229.57
759.49	229.41
759.82	229.34
760.15	229.20
760.47	229.02
760.80	228.78
761.13	228.61
761.45	228.46
761.78	228.25
762.11	228.06
762.43	227.85
762.76	227.69
763.08	227.58
763.41	227.39
763.74	227.26
764.06	227.12
764.39	226.98
764.71	226.84
765.04	226.68
765.37	226.51
765.69	226.35
766.02	226.23
766.34	226.04
766.67	225.80
767.00	225.67
767.32	225.64
767.65	225.63
767.97	225.48
768.30	225.33
768.62	225.20
768.95	225.05
769.27	224.94
769.60	224.83
769.92	224.68
770.25	224.51
770.57	224.32
770.90	224.18
771.22	224.01
771.55	223.91
771.87	223.81
772.20	223.69
772.52	223.77
772.85	223.89
773.17	223.77
773.50	223.65
773.82	223.56
774.15	223.36
774.47	223.11
774.80	223.03
775.12	222.90
775.45	222.82
775.77	222.77
776.09	222.68
776.42	222.60
776.74	222.57
777.07	222.49
777.39	222.40
777.72	222.30
778.04	222.26
778.36	222.10
778.69	222.01
779.01	221.94
779.33	221.66
779.66	221.37
779.98	221.31
780.31	221.26
780.63	221.27
780.95	221.21
781.28	221.16
781.60	221.06
781.92	221.03
782.25	220.96
782.57	220.88
782.89	220.79
783.22	220.69
783.54	220.55
783.86	220.51
784.19	220.46
784.51	220.44
784.83	220.34
785.16	220.31
785.48	220.22
785.80	220.17
786.12	220.11
786.45	220.05
786.77	219.98
787.09	219.92
787.42	219.75
787.74	219.68
788.06	219.64
788.38	219.55
788.71	219.46
789.03	219.39
789.35	219.36
789.67	219.29
789.99	219.28
790.32	219.23
790.64	219.20
790.96	219.33
791.28	219.23
791.61	219.18
791.93	219.15
792.25	219.11
792.57	219.21
792.89	219.12
793.21	219.08
793.54	219.02
793.86	218.92
794.18	218.90
794.50	218.82
794.82	218.76
795.14	218.78
795.47	218.78
795.79	218.73
796.11	218.62
796.43	218.59
796.75	218.52
797.07	218.49
797.39	218.40
797.71	218.20
798.04	218.16
798.36	218.15
798.68	218.14
799.00	218.11
799.32	217.97
799.64	218.00
799.96	217.93
800.28	217.93
800.60	217.94
800.92	217.90
801.24	217.83
801.56	217.83
801.89	217.75
802.21	217.72
802.53	217.68
802.85	217.68
803.17	217.76
803.49	217.68
803.81	217.61
804.13	217.59
804.45	217.52
804.77	217.51
805.09	217.45
805.41	217.38
805.73	217.33
806.05	217.24
806.37	217.21
806.69	217.17
807.01	217.12
807.33	217.07
807.65	216.99
807.97	217.08
808.28	217.03
808.60	217.01
808.92	216.97
809.24	217.08
809.56	217.03
809.88	216.89
810.20	216.88
810.52	216.92
810.84	216.84
811.16	216.82
811.48	216.78
811.80	216.85
812.12	216.84
812.43	216.84
812.75	216.81
813.07	216.75
813.39	216.74
813.71	216.70
814.03	216.67
814.35	216.63
814.67	216.53
814.98	216.47
815.30	216.43
815.62	216.39
815.94	216.19
816.26	216.17
816.58	216.13
816.89	216.13
817.21	216.04
817.53	216.03
817.85	216.01
818.17	215.99
818.48	215.88
818.80	215.88
819.12	215.81
819.44	215.77
819.76	215.72
820.07	215.72
820.39	215.70
820.71	215.70
821.03	215.74
821.34	215.71
821.66	215.76
821.98	215.78
822.30	215.77
822.61	215.89
822.93	215.86
823.25	215.87
823.57	215.83
823.88	215.87
824.20	215.86
824.52	215.87
824.83	215.84
825.15	215.80
825.47	215.79
825.79	215.81
826.10	215.77
826.42	215.77
826.74	215.76
827.05	215.77
827.37	215.74
827.69	215.70
828.00	215.68
828.32	215.64
828.64	215.60
828.95	215.66
829.27	215.61
829.58	215.63
829.90	215.63
830.22	215.63
830.53	215.56
830.85	215.56
831.17	215.53
831.48	215.52
831.80	215.55
832.11	215.55
832.43	215.49
832.75	215.50
833.06	215.60
833.38	215.55
833.69	215.54
834.01	215.56
834.32	215.55
834.64	215.50
834.96	215.52
835.27	215.53
835.59	215.48
835.90	215.36
836.22	215.34
836.53	215.29
836.85	215.27
837.16	215.49
837.48	215.45
837.79	215.49
838.11	215.48
838.42	215.46
838.74	215.44
839.05	215.43
839.37	215.43
839.68	215.31
840.00	215.29
840.31	215.30
840.63	215.24
840.94	215.24
841.26	215.21
841.57	215.18
841.88	215.14
842.20	215.10
842.51	215.13
842.83	215.12
843.14	215.29
843.46	215.31
843.77	215.15
844.08	215.18
844.40	215.12
844.71	215.09
845.03	215.06
845.34	215.05
845.65	215.04
845.97	215.01
846.28	214.99
846.60	214.97
846.91	214.90
847.22	214.90
847.54	214.92
847.85	214.93
848.16	214.87
848.48	214.86
848.79	214.91
849.10	214.90
849.42	214.90
849.73	214.72
850.04	214.67
850.36	214.59
850.67	214.60
850.98	214.61
851.30	214.62
851.61	214.60
851.92	214.57
852.23	214.64
852.55	214.65
852.86	214.65
853.17	214.68
853.49	214.72
853.80	214.75
854.11	214.74
854.42	214.76
854.74	214.76
855.05	214.76
855.36	214.66
855.67	214.66
855.99	214.65
856.30	214.89
856.61	214.92
856.92	214.92
857.23	214.91
857.55	214.85
857.86	214.82
858.17	214.86
858.48	214.82
858.79	214.75
859.11	214.79
859.42	214.81
859.73	214.77
860.04	214.76
860.35	214.71
860.66	214.65
860.98	214.65
861.29	214.69
861.60	214.65
861.91	214.70
862.22	214.67
862.53	214.63
862.84	214.35
863.16	214.40
863.47	214.37
863.78	214.37
864.09	214.38
864.40	214.39
864.71	214.39
865.02	214.42
865.33	214.41
865.64	214.35
865.95	214.32
866.27	214.45
866.58	214.45
866.89	214.48
867.20	214.49
867.51	214.46
867.82	214.42
868.13	214.46
868.44	214.42
868.75	214.45
869.06	214.47
869.37	214.54
869.68	214.46
869.99	214.50
870.30	214.51
870.61	214.57
870.92	214.56
871.23	214.51
871.54	214.57
871.85	214.64
872.16	214.67
872.47	214.66
872.78	214.52
873.09	214.53
873.40	214.51
873.71	214.53
874.02	214.53
874.33	214.54
874.64	214.55
874.95	214.59
875.26	214.56
875.56	214.55
875.87	214.50
876.18	214.49
876.49	214.68
876.80	214.65
877.11	214.59
877.42	214.58
877.73	214.62
878.04	214.56
878.35	214.52
878.66	214.52
878.96	214.52
879.27	214.54
879.58	214.52
879.89	214.51
880.20	214.59
880.51	214.58
880.82	214.55
881.12	214.51
881.43	214.47
881.74	214.46
882.05	214.46
882.36	214.49
882.67	214.47
882.97	214.22
883.28	214.21
883.59	214.19
883.90	214.22
884.21	214.22
884.51	214.20
884.82	214.19
885.13	214.18
885.44	214.20
885.74	214.23
886.05	214.23
886.36	214.19
886.67	214.08
886.98	214.17
887.28	214.22
887.59	214.23
887.90	214.22
888.20	214.21
888.51	214.25
888.82	214.20
889.13	214.23
889.43	214.44
889.74	214.43
890.05	214.43
890.35	214.40
890.66	214.39
890.97	214.40
891.28	214.35
891.58	214.34
891.89	214.34
892.20	214.29
892.50	214.29
892.81	214.32
893.12	214.30
893.42	214.24
893.73	214.21
894.04	214.22
894.34	214.23
894.65	214.23
894.95	214.17
895.26	214.22
895.57	214.32
895.87	214.10
896.18	214.14
896.48	214.14
896.79	214.13
897.10	214.14
897.40	214.13
897.71	214.20
898.01	214.19
898.32	214.19
898.63	214.17
898.93	214.18
899.24	214.16
899.54	214.20
899.85	214.18
900.15	214.19
900.46	214.16
900.76	214.18
901.07	214.17
901.38	214.19
901.68	214.17
901.99	214.08
902.29	214.10
902.60	214.07
902.90	214.06
903.21	214.08
903.51	214.06
903.82	214.13
904.12	214.10
904.43	214.13
904.73	214.12
905.03	214.16
905.34	214.33
905.64	214.33
905.95	214.31
906.25	214.29
906.56	214.28
906.86	214.29
907.17	214.24
907.47	214.22
907.77	214.21
908.08	214.18
908.38	214.18
908.69	214.20
908.99	214.22
909.30	214.24
909.60	214.24
909.90	214.27
910.21	214.19
910.51	214.16
910.81	214.15
911.12	214.19
911.42	214.16
911.73	213.96
912.03	213.98
912.33	214.05
912.64	214.04
912.94	214.00
913.24	213.97
913.55	214.01
913.85	214.01
914.15	214.06
914.46	214.07
914.76	214.05
915.06	214.04
915.37	214.00
915.67	213.98
915.97	213.96
916.27	213.92
916.58	213.93
916.88	213.92
917.18	213.92
917.49	214.03
917.79	214.03
918.09	214.09
918.39	214.12
918.70	214.09
919.00	214.08
919.30	214.21
919.60	214.18
919.91	214.18
920.21	214.20
920.51	214.13
920.81	214.13
921.12	214.17
921.42	214.16
921.72	214.19
922.02	214.20
922.32	214.21
922.63	214.21
922.93	214.32
923.23	214.34
923.53	214.30
923.83	214.17
924.13	214.18
924.44	214.14
924.74	214.18
925.04	214.22
925.34	214.25
925.64	214.13
925.94	214.17
926.24	214.27
926.55	214.28
926.85	214.31
927.15	214.34
927.45	214.33
927.75	214.34
928.05	214.35
928.35	214.35
928.65	214.39
928.95	214.42
929.26	214.30
929.56	214.32
929.86	214.36
930.16	214.38
930.46	214.37
930.76	214.37
931.06	214.26
931.36	214.19
931.66	214.20
931.96	214.22
932.26	214.21
932.56	214.06
932.86	214.06
933.16	214.08
933.46	214.02
933.76	213.98
934.06	214.05
934.36	214.12
934.66	214.13
934.96	214.11
935.26	214.09
935.56	214.15
935.86	214.14
936.16	214.10
936.46	214.07
936.76	214.04
937.06	214.03
937.36	214.02
937.66	214.04
937.96	214.04
938.26	213.99
938.56	214.00
938.86	214.05
939.16	214.10
939.46	214.12
939.76	214.15
940.06	214.15
940.35	214.11
940.65	214.00
940.95	214.01
941.25	213.97
941.55	213.95
941.85	213.92
942.15	213.94
942.45	214.04
942.75	214.01
943.04	214.04
943.34	214.06
943.64	214.07
943.94	214.01
944.24	214.01
944.54	214.04
944.84	214.02
945.13	214.03
945.43	214.00
945.73	213.97
946.03	213.95
946.33	213.93
946.62	213.88
946.92	213.88
947.22	213.87
947.52	213.87
947.82	213.90
948.11	213.89
948.41	213.82
948.71	213.71
949.01	213.73
949.31	213.72
949.60	213.72
949.90	213.73
950.20	213.72
950.50	213.75
950.79	213.76
951.09	213.79
951.39	213.78
951.69	213.75
951.98	213.80
952.28	213.81
952.58	213.82
952.87	213.80
953.17	213.81
953.47	213.77
953.76	213.78
954.06	213.73
954.36	213.69
954.66	213.72
954.95	213.77
955.25	213.79
955.55	213.79
955.84	213.75
956.14	213.80
956.44	213.82
956.73	213.77
957.03	213.76
957.32	213.77
957.62	213.76
957.92	213.79
958.21	213.73
958.51	213.97
958.81	213.96
959.10	214.01
959.40	214.04
959.69	214.09
959.99	214.11
960.29	214.13
960.58	214.10
960.88	214.22
961.17	214.21
961.47	214.22
961.76	214.21
962.06	214.25
962.36	214.20
962.65	214.24
962.95	214.26
963.24	214.22
963.54	214.23
963.83	214.22
964.13	214.22
964.42	214.17
964.72	213.98
965.01	214.03
965.31	214.03
965.60	214.01
965.90	214.10
966.19	214.06
966.49	214.11
966.78	214.14
967.08	214.09
967.37	214.09
967.67	214.05
967.96	214.07
968.26	214.09
968.55	214.11
968.85	214.08
969.14	214.07
969.43	214.10
969.73	214.06
970.02	214.08
970.32	214.06
970.61	214.08
970.91	214.05
971.20	214.01
971.49	213.99
971.79	214.02
972.08	213.91
972.38	213.92
972.67	213.90
972.96	213.95
973.26	213.90
973.55	213.94
973.85	213.95
974.14	213.95
974.43	213.94
974.73	213.94
975.02	213.94
975.31	213.95
975.61	213.95
975.90	213.94
976.19	213.94
976.49	213.95
976.78	214.00
977.07	213.98
977.37	214.00
977.66	214.01
977.95	213.98
978.24	214.01
978.54	214.07
978.83	214.03
979.12	214.00
979.42	214.00
979.71	213.97
980.00	213.97
980.29	213.98
980.59	213.95
980.88	213.96
981.17	213.96
981.46	213.97
981.76	213.92
982.05	213.98
982.34	213.97
982.63	213.95
982.93	213.91
983.22	213.99
983.51	213.99
983.80	214.01
984.09	214.03
984.39	213.98
984.68	213.93
984.97	213.95
985.26	213.96
985.55	213.97
985.85	213.91
986.14	213.91
986.43	213.97
986.72	213.94
987.01	213.88
987.30	213.89
987.59	213.88
987.89	213.92
988.18	213.86
988.47	213.85
988.76	213.86
989.05	213.86
989.34	213.81
989.63	213.85
989.92	213.81
990.22	213.79
990.51	213.82
990.80	213.81
991.09	213.83
991.38	213.87
991.67	213.85
991.96	213.84
992.25	213.85
992.54	213.81
992.83	213.85
993.12	213.86
993.41	213.87
993.70	213.95
993.99	213.98
994.28	214.03
994.58	214.04
994.87	214.03
995.16	214.03
995.45	214.04
995.74	213.98
996.03	214.01
996.32	214.04
996.61	214.07
996.90	214.05
997.19	214.04
997.48	214.01
997.77	213.99
998.06	214.04
998.34	214.04
998.63	214.01
998.92	214.02
999.21	214.06
999.50	214.07
999.79	214.00
1000.08	214.00
1000.37	214.01
1000.66	213.99
1000.95	214.02
1001.24	214.03
1001.53	214.05
1001.82	214.01
1002.11	213.99
1002.40	214.02
1002.68	214.07
1002.97	214.22
1003.26	214.20
1003.55	214.16
1003.84	214.19
1004.13	214.27
1004.42	214.28
1004.71	214.29
1004.99	214.26
1005.28	214.29
1005.57	214.30
1005.86	214.28
1006.15	214.26
1006.44	214.23
1006.72	214.26
1007.01	214.20
1007.30	214.20
1007.59	214.17
1007.88	214.17
1008.17	214.16
1008.45	214.11
1008.74	214.03
1009.03	213.94
1009.32	213.93
1009.60	213.93
1009.89	213.91
1010.18	213.79
1010.47	213.79
1010.76	213.80
1011.04	213.81
1011.33	213.83
1011.62	213.85
1011.91	213.88
1012.19	213.88
1012.48	213.89
1012.77	213.86
1013.05	214.01
1013.34	213.98
1013.63	213.97
1013.92	214.01
1014.20	214.00
1014.49	214.01
1014.78	214.00
1015.06	213.92
1015.35	213.91
1015.64	213.94
1015.92	213.97
1016.21	213.97
1016.50	213.96
1016.78	213.95
1017.07	213.97
1017.36	213.88
1017.64	213.80
1017.93	213.80
1018.22	213.79
1018.50	213.76
1018.79	213.76
1019.08	213.64
1019.36	213.68
1019.65	213.68
1019.93	213.71
1020.22	213.75
1020.51	213.86
1020.79	213.83
1021.08	213.65
1021.36	213.13
1021.65	213.79
1021.94	213.59
1022.22	214.25
1022.51	213.56
1022.79	214.57
1023.08	214.16
1023.36	216.32
1023.65	213.17
>>>>>End Processed Spectral Data<<<<<
