SpectraSuite Data File
++++++++++++++++++++++++++++++++++++
Date: Tue Jan 29 15:58:31 EST 2013
User: group
Dark Spectrum Present: No
Reference Spectrum Present: No
Number of Sampled Component Spectra: 1
Spectrometers: USB2E7196
Integration Time (usec): 65000 (USB2E7196)
Spectra Averaged: 100 (USB2E7196)
Boxcar Smoothing: 10 (USB2E7196)
Correct for Electrical Dark: No (USB2E7196)
Strobe/Lamp Enabled: No (USB2E7196)
Correct for Detector Non-linearity: No (USB2E7196)
Correct for Stray Light: No (USB2E7196)
Number of Pixels in Processed Spectrum: 2048
>>>>>Begin Processed Spectral Data<<<<<
339.09	0.00
339.48	202.85
339.86	204.25
340.24	205.40
340.63	206.75
341.01	211.55
341.39	209.80
341.78	211.88
342.16	212.65
342.54	213.12
342.93	202.09
343.31	212.32
343.69	212.86
344.07	213.34
344.46	213.81
344.84	214.24
345.22	214.43
345.60	214.71
345.99	214.88
346.37	215.00
346.75	215.10
347.13	215.17
347.52	215.26
347.90	215.38
348.28	215.41
348.66	215.48
349.05	215.48
349.43	215.60
349.81	215.62
350.19	215.67
350.57	215.73
350.96	215.86
351.34	215.96
351.72	216.06
352.10	216.17
352.48	216.23
352.87	216.27
353.25	216.33
353.63	216.38
354.01	216.43
354.39	216.53
354.77	216.59
355.15	216.71
355.54	216.70
355.92	216.68
356.30	216.74
356.68	216.90
357.06	216.98
357.44	216.96
357.82	217.04
358.20	217.13
358.58	217.18
358.97	217.21
359.35	217.28
359.73	217.38
360.11	217.42
360.49	217.50
360.87	217.55
361.25	217.60
361.63	217.69
362.01	217.75
362.39	217.78
362.77	217.83
363.15	217.85
363.53	217.90
363.91	217.94
364.29	217.96
364.67	217.79
365.05	217.82
365.43	217.90
365.81	217.96
366.19	218.02
366.57	218.10
366.95	218.07
367.33	218.04
367.71	218.03
368.09	218.06
368.47	218.06
368.85	218.01
369.23	218.04
369.61	217.96
369.99	218.01
370.37	218.02
370.75	218.12
371.13	218.06
371.51	218.04
371.89	218.02
372.27	218.01
372.65	218.03
373.03	217.96
373.41	217.89
373.78	217.83
374.16	217.71
374.54	217.60
374.92	217.54
375.30	217.52
375.68	217.41
376.06	217.37
376.44	217.32
376.82	217.31
377.19	217.25
377.57	217.23
377.95	217.10
378.33	217.02
378.71	216.84
379.09	216.84
379.47	216.84
379.84	216.81
380.22	216.77
380.60	216.68
380.98	216.66
381.36	216.60
381.73	216.54
382.11	216.53
382.49	216.50
382.87	216.44
383.25	216.40
383.62	216.63
384.00	216.54
384.38	216.48
384.76	216.49
385.13	216.55
385.51	216.49
385.89	216.44
386.27	216.43
386.64	216.42
387.02	216.37
387.40	216.33
387.78	216.30
388.15	216.28
388.53	216.25
388.91	216.20
389.29	216.19
389.66	216.20
390.04	216.17
390.42	216.22
390.79	216.22
391.17	216.19
391.55	215.92
391.92	215.94
392.30	215.98
392.68	215.95
393.05	215.93
393.43	215.93
393.81	215.97
394.18	215.92
394.56	215.93
394.94	215.96
395.31	215.94
395.69	216.01
396.06	216.02
396.44	216.04
396.82	216.08
397.19	216.18
397.57	216.18
397.95	216.22
398.32	216.18
398.70	216.22
399.07	216.31
399.45	216.36
399.82	216.37
400.20	216.37
400.58	216.45
400.95	216.43
401.33	216.53
401.70	216.73
402.08	216.83
402.45	216.93
402.83	217.06
403.20	217.15
403.58	217.24
403.95	217.42
404.33	217.60
404.71	217.73
405.08	217.99
405.46	218.17
405.83	218.36
406.21	218.57
406.58	218.83
406.96	219.06
407.33	219.32
407.70	219.66
408.08	220.14
408.45	220.47
408.83	220.86
409.20	221.20
409.58	221.48
409.95	221.93
410.33	222.40
410.70	222.79
411.08	223.35
411.45	223.91
411.82	224.42
412.20	225.09
412.57	225.90
412.95	226.41
413.32	227.21
413.69	228.02
414.07	228.87
414.44	229.79
414.82	230.73
415.19	231.85
415.56	232.97
415.94	234.08
416.31	235.42
416.68	236.75
417.06	238.31
417.43	239.80
417.81	241.50
418.18	243.20
418.55	245.07
418.93	247.02
419.30	249.05
419.67	251.20
420.04	253.38
420.42	255.66
420.79	258.40
421.16	261.05
421.54	263.86
421.91	266.75
422.28	269.79
422.66	272.97
423.03	276.12
423.40	279.38
423.77	282.86
424.15	286.35
424.52	290.08
424.89	294.08
425.26	297.96
425.64	301.69
426.01	305.80
426.38	310.13
426.75	314.50
427.13	319.03
427.50	323.86
427.87	328.86
428.24	333.87
428.61	338.67
428.99	343.98
429.36	349.76
429.73	355.44
430.10	361.08
430.47	366.90
430.85	372.90
431.22	379.36
431.59	386.18
431.96	392.77
432.33	399.97
432.70	406.94
433.08	415.17
433.45	422.92
433.82	430.66
434.19	439.18
434.56	447.50
434.93	455.47
435.30	463.41
435.68	472.17
436.05	480.78
436.42	489.32
436.79	497.14
437.16	505.59
437.53	514.52
437.90	523.32
438.27	531.95
438.64	540.84
439.01	549.02
439.38	556.37
439.75	563.35
440.13	571.46
440.50	579.08
440.87	585.21
441.24	591.54
441.61	598.55
441.98	603.70
442.35	609.85
442.72	615.93
443.09	621.66
443.46	625.21
443.83	627.64
444.20	629.73
444.57	632.78
444.94	634.14
445.31	635.42
445.68	636.71
446.05	637.23
446.42	636.44
446.79	635.46
447.16	634.31
447.53	633.59
447.90	630.28
448.27	627.11
448.64	622.67
449.01	619.50
449.37	613.79
449.74	608.28
450.11	601.61
450.48	594.52
450.85	587.37
451.22	581.19
451.59	575.21
451.96	569.68
452.33	562.10
452.70	555.20
453.07	547.13
453.43	538.84
453.80	530.97
454.17	523.34
454.54	516.12
454.91	508.34
455.28	500.76
455.65	493.70
456.02	486.53
456.38	480.56
456.75	473.03
457.12	466.79
457.49	460.65
457.86	454.77
458.23	449.64
458.59	444.00
458.96	438.27
459.33	433.26
459.70	428.11
460.07	424.05
460.43	419.42
460.80	415.05
461.17	411.19
461.54	407.18
461.91	403.35
462.27	399.37
462.64	396.03
463.01	392.34
463.38	388.83
463.74	385.27
464.11	382.06
464.48	379.34
464.85	376.40
465.21	374.06
465.58	371.46
465.95	368.45
466.32	365.94
466.68	363.42
467.05	360.95
467.42	358.51
467.78	355.92
468.15	353.50
468.52	351.67
468.88	349.32
469.25	347.19
469.62	345.46
469.98	343.63
470.35	341.95
470.72	340.35
471.08	338.60
471.45	337.22
471.82	335.79
472.18	334.21
472.55	333.03
472.92	331.68
473.28	330.58
473.65	329.49
474.02	328.45
474.38	327.65
474.75	326.92
475.11	326.12
475.48	325.60
475.85	325.14
476.21	324.66
476.58	324.33
476.94	324.14
477.31	323.88
477.67	323.66
478.04	323.52
478.41	323.50
478.77	323.73
479.14	323.70
479.50	323.88
479.87	324.19
480.23	324.56
480.60	324.82
480.96	325.13
481.33	325.74
481.69	326.34
482.06	326.89
482.42	327.42
482.79	328.05
483.15	328.88
483.52	329.87
483.88	330.83
484.25	331.81
484.61	332.83
484.98	333.87
485.34	335.16
485.71	336.54
486.07	338.04
486.44	339.33
486.80	340.89
487.17	342.56
487.53	344.37
487.90	346.20
488.26	348.22
488.62	350.37
488.99	352.45
489.35	354.61
489.72	356.96
490.08	359.49
490.44	362.07
490.81	364.79
491.17	367.48
491.54	370.46
491.90	373.46
492.26	376.68
492.63	380.12
492.99	383.66
493.36	387.36
493.72	391.17
494.08	395.18
494.45	399.42
494.81	403.76
495.17	408.22
495.54	412.94
495.90	417.75
496.26	422.68
496.63	427.84
496.99	433.20
497.35	438.72
497.72	444.45
498.08	450.33
498.44	456.35
498.80	462.72
499.17	469.14
499.53	475.88
499.89	482.78
500.26	489.63
500.62	496.68
500.98	504.07
501.34	511.49
501.71	519.25
502.07	527.02
502.43	535.02
502.79	543.12
503.16	551.42
503.52	560.01
503.88	568.67
504.24	577.59
504.60	586.64
504.97	595.86
505.33	605.13
505.69	614.97
506.05	624.88
506.41	634.78
506.78	644.71
507.14	654.91
507.50	665.32
507.86	675.96
508.22	686.72
508.59	697.37
508.95	708.42
509.31	719.58
509.67	730.98
510.03	742.37
510.39	754.07
510.75	765.93
511.12	777.82
511.48	789.84
511.84	802.01
512.20	814.29
512.56	826.83
512.92	839.50
513.28	852.01
513.64	864.69
514.00	877.36
514.37	890.33
514.73	903.32
515.09	916.24
515.45	928.93
515.81	941.81
516.17	954.99
516.53	967.96
516.89	980.90
517.25	993.89
517.61	1007.15
517.97	1020.29
518.33	1033.21
518.69	1046.54
519.05	1060.05
519.41	1073.48
519.77	1087.06
520.13	1100.16
520.49	1113.19
520.85	1126.38
521.21	1139.44
521.57	1152.91
521.93	1165.87
522.29	1179.37
522.65	1192.73
523.01	1206.18
523.37	1219.19
523.73	1232.17
524.09	1245.19
524.45	1258.45
524.81	1271.60
525.17	1284.74
525.53	1297.71
525.89	1310.78
526.25	1323.59
526.61	1336.17
526.97	1349.01
527.33	1361.62
527.68	1374.89
528.04	1388.12
528.40	1400.86
528.76	1413.86
529.12	1426.41
529.48	1439.36
529.84	1451.33
530.20	1463.79
530.56	1476.12
530.91	1489.03
531.27	1501.61
531.63	1514.09
531.99	1526.46
532.35	1538.54
532.71	1550.61
533.07	1563.08
533.42	1574.88
533.78	1586.64
534.14	1598.48
534.50	1609.32
534.86	1620.72
535.21	1631.17
535.57	1642.23
535.93	1653.33
536.29	1664.23
536.65	1675.32
537.00	1685.95
537.36	1696.94
537.72	1707.59
538.08	1718.56
538.44	1729.11
538.79	1739.80
539.15	1750.25
539.51	1760.52
539.87	1771.50
540.22	1781.93
540.58	1792.50
540.94	1803.18
541.29	1813.11
541.65	1822.45
542.01	1832.80
542.37	1842.53
542.72	1852.43
543.08	1861.87
543.44	1871.90
543.79	1880.89
544.15	1890.06
544.51	1899.72
544.87	1909.29
545.22	1918.08
545.58	1926.70
545.94	1935.35
546.29	1943.61
546.65	1951.60
547.01	1959.76
547.36	1967.02
547.72	1974.48
548.07	1982.05
548.43	1989.46
548.79	1997.13
549.14	2005.11
549.50	2013.19
549.86	2020.65
550.21	2027.80
550.57	2035.26
550.92	2041.79
551.28	2049.03
551.64	2056.07
551.99	2063.30
552.35	2070.32
552.70	2076.99
553.06	2083.38
553.41	2089.34
553.77	2095.65
554.13	2102.02
554.48	2108.75
554.84	2115.58
555.19	2121.90
555.55	2128.10
555.90	2134.30
556.26	2141.05
556.61	2146.71
556.97	2151.47
557.32	2157.25
557.68	2163.62
558.03	2169.27
558.39	2174.45
558.74	2180.08
559.10	2185.60
559.45	2191.15
559.81	2196.53
560.16	2202.12
560.52	2208.08
560.87	2214.58
561.23	2220.66
561.58	2227.26
561.94	2232.48
562.29	2237.38
562.64	2243.68
563.00	2249.17
563.35	2254.87
563.71	2260.70
564.06	2266.37
564.42	2272.32
564.77	2277.50
565.12	2282.62
565.48	2287.90
565.83	2293.64
566.19	2299.41
566.54	2304.87
566.89	2309.57
567.25	2314.26
567.60	2320.03
567.96	2325.34
568.31	2329.90
568.66	2334.19
569.02	2338.08
569.37	2341.93
569.72	2346.53
570.08	2350.08
570.43	2353.43
570.78	2356.34
571.14	2358.88
571.49	2362.06
571.84	2365.59
572.20	2368.54
572.55	2371.71
572.90	2374.10
573.26	2377.06
573.61	2379.50
573.96	2381.80
574.31	2383.97
574.67	2386.13
575.02	2387.10
575.37	2388.58
575.72	2389.54
576.08	2390.99
576.43	2391.47
576.78	2392.41
577.13	2394.27
577.49	2395.53
577.84	2396.97
578.19	2398.77
578.54	2399.72
578.90	2401.13
579.25	2401.37
579.60	2401.70
579.95	2401.46
580.30	2402.03
580.66	2401.42
581.01	2400.04
581.36	2398.17
581.71	2396.97
582.06	2396.11
582.42	2395.53
582.77	2393.57
583.12	2392.33
583.47	2391.42
583.82	2390.99
584.17	2389.89
584.53	2387.88
584.88	2386.05
585.23	2384.29
585.58	2382.07
585.93	2379.90
586.28	2377.71
586.63	2375.68
586.98	2373.64
587.34	2371.83
587.69	2369.58
588.04	2367.94
588.39	2366.76
588.74	2364.36
589.09	2362.13
589.44	2359.18
589.79	2356.98
590.14	2355.35
590.49	2352.52
590.84	2349.01
591.19	2346.38
591.54	2343.35
591.89	2339.52
592.25	2336.47
592.60	2332.45
592.95	2328.56
593.30	2324.71
593.65	2320.62
594.00	2316.33
594.35	2313.47
594.70	2308.90
595.05	2304.37
595.40	2299.02
595.75	2293.67
596.10	2290.24
596.45	2285.20
596.80	2280.77
597.15	2275.63
597.50	2269.76
597.85	2265.06
598.19	2259.78
598.54	2254.16
598.89	2249.06
599.24	2244.65
599.59	2238.71
599.94	2233.18
600.29	2227.54
600.64	2221.91
600.99	2215.41
601.34	2210.04
601.69	2203.12
602.04	2196.85
602.39	2190.49
602.74	2184.61
603.08	2179.08
603.43	2172.69
603.78	2166.18
604.13	2159.21
604.48	2152.14
604.83	2146.41
605.18	2140.00
605.53	2133.20
605.87	2126.01
606.22	2119.33
606.57	2111.57
606.92	2103.77
607.27	2096.74
607.62	2090.08
607.96	2083.08
608.31	2076.51
608.66	2068.79
609.01	2061.34
609.36	2054.25
609.70	2046.47
610.05	2038.71
610.40	2030.52
610.75	2022.34
611.10	2014.74
611.44	2006.08
611.79	1997.28
612.14	1987.16
612.49	1977.00
612.83	1967.87
613.18	1958.78
613.53	1949.55
613.88	1940.03
614.22	1931.54
614.57	1921.72
614.92	1911.30
615.27	1901.22
615.61	1891.24
615.96	1881.59
616.31	1871.93
616.65	1862.62
617.00	1852.72
617.35	1843.27
617.70	1833.44
618.04	1823.27
618.39	1812.87
618.74	1803.18
619.08	1793.66
619.43	1785.09
619.78	1776.77
620.12	1768.11
620.47	1758.34
620.82	1748.01
621.16	1738.12
621.51	1728.11
621.85	1718.16
622.20	1707.62
622.55	1696.99
622.89	1687.19
623.24	1677.51
623.59	1667.84
623.93	1657.76
624.28	1648.21
624.62	1637.94
624.97	1627.70
625.32	1618.07
625.66	1609.27
626.01	1600.39
626.35	1591.03
626.70	1580.83
627.04	1570.72
627.39	1560.59
627.73	1551.39
628.08	1542.40
628.43	1532.89
628.77	1523.69
629.12	1514.93
629.46	1507.14
629.81	1498.80
630.15	1489.14
630.50	1479.19
630.84	1468.74
631.19	1458.78
631.53	1449.16
631.88	1438.99
632.22	1428.98
632.57	1419.56
632.91	1409.42
633.26	1399.50
633.60	1389.79
633.95	1380.41
634.29	1371.00
634.64	1361.51
634.98	1351.47
635.32	1342.07
635.67	1333.47
636.01	1324.18
636.36	1314.23
636.70	1304.61
637.05	1295.13
637.39	1286.08
637.73	1277.47
638.08	1269.78
638.42	1261.44
638.77	1252.80
639.11	1244.61
639.45	1236.72
639.80	1227.91
640.14	1219.19
640.49	1210.25
640.83	1201.48
641.17	1193.35
641.52	1185.01
641.86	1176.50
642.20	1168.67
642.55	1160.10
642.89	1151.13
643.23	1142.33
643.58	1134.32
643.92	1125.26
644.26	1116.62
644.61	1108.27
644.95	1099.44
645.29	1090.18
645.64	1081.03
645.98	1072.67
646.32	1064.61
646.66	1056.05
647.01	1047.73
647.35	1039.58
647.69	1031.15
648.04	1022.77
648.38	1013.89
648.72	1005.13
649.06	996.58
649.41	988.43
649.75	980.37
650.09	972.53
650.43	964.43
650.78	956.18
651.12	948.53
651.46	941.09
651.80	933.81
652.14	926.51
652.49	919.02
652.83	911.78
653.17	904.02
653.51	896.39
653.85	889.18
654.20	881.91
654.54	874.30
654.88	867.24
655.22	860.13
655.56	853.14
655.90	846.36
656.25	839.78
656.59	832.80
656.93	825.82
657.27	818.76
657.61	812.00
657.95	805.96
658.29	800.10
658.64	794.04
658.98	787.54
659.32	781.03
659.66	774.79
660.00	768.42
660.34	762.40
660.68	756.36
661.02	750.10
661.36	744.27
661.70	738.56
662.05	732.95
662.39	727.53
662.73	722.17
663.07	716.89
663.41	711.33
663.75	705.76
664.09	700.17
664.43	694.83
664.77	689.49
665.11	683.72
665.45	677.86
665.79	672.08
666.13	666.45
666.47	661.07
666.81	655.77
667.15	650.45
667.49	645.35
667.83	640.16
668.17	635.01
668.51	629.94
668.85	625.15
669.19	620.29
669.53	615.28
669.87	610.34
670.21	605.62
670.55	600.94
670.89	596.57
671.23	592.42
671.57	588.15
671.91	583.91
672.25	579.80
672.58	575.71
672.92	571.70
673.26	567.83
673.60	564.00
673.94	560.16
674.28	556.64
674.62	552.89
674.96	549.22
675.30	545.70
675.64	542.13
675.97	538.57
676.31	535.02
676.65	531.45
676.99	527.98
677.33	524.17
677.67	520.52
678.01	516.69
678.34	513.01
678.68	509.43
679.02	505.83
679.36	502.22
679.70	498.63
680.04	495.16
680.37	491.77
680.71	488.49
681.05	485.41
681.39	482.20
681.73	479.15
682.06	476.19
682.40	473.18
682.74	470.03
683.08	466.87
683.42	463.75
683.75	460.87
684.09	457.92
684.43	455.17
684.77	452.38
685.10	449.62
685.44	446.82
685.78	443.99
686.12	441.29
686.45	438.56
686.79	435.93
687.13	433.43
687.46	430.90
687.80	428.30
688.14	425.50
688.48	422.93
688.81	420.27
689.15	417.69
689.49	415.12
689.82	412.68
690.16	410.14
690.50	407.73
690.83	405.24
691.17	402.78
691.51	400.39
691.84	398.20
692.18	396.05
692.52	393.87
692.85	391.84
693.19	389.79
693.52	387.69
693.86	385.58
694.20	383.47
694.53	381.36
694.87	379.23
695.21	377.16
695.54	375.02
695.88	372.92
696.21	370.75
696.55	368.68
696.88	366.68
697.22	364.77
697.56	362.93
697.89	361.11
698.23	359.41
698.56	357.67
698.90	355.92
699.23	353.99
699.57	352.17
699.90	350.35
700.24	348.57
700.58	346.87
700.91	345.31
701.25	343.76
701.58	342.22
701.92	340.66
702.25	339.10
702.59	337.55
702.92	336.06
703.26	334.58
703.59	333.18
703.93	331.93
704.26	330.52
704.60	329.02
704.93	327.57
705.26	326.07
705.60	324.65
705.93	323.19
706.27	321.93
706.60	320.69
706.94	319.40
707.27	318.03
707.61	316.73
707.94	315.38
708.27	313.91
708.61	312.46
708.94	311.14
709.28	309.90
709.61	308.68
709.94	307.48
710.28	306.29
710.61	305.11
710.95	303.68
711.28	302.67
711.61	301.57
711.95	300.47
712.28	299.33
712.61	298.18
712.95	297.17
713.28	296.17
713.61	295.03
713.95	293.93
714.28	292.95
714.61	291.95
714.95	290.96
715.28	289.98
715.61	289.02
715.95	288.10
716.28	287.16
716.61	286.26
716.95	285.32
717.28	284.43
717.61	283.50
717.94	282.67
718.28	281.62
718.61	280.76
718.94	279.91
719.27	279.06
719.61	278.24
719.94	277.34
720.27	276.43
720.60	275.65
720.94	274.91
721.27	274.19
721.60	273.53
721.93	272.85
722.27	272.22
722.60	271.57
722.93	270.84
723.26	270.21
723.59	269.52
723.93	268.93
724.26	268.30
724.59	267.66
724.92	267.10
725.25	266.60
725.59	266.04
725.92	265.50
726.25	265.00
726.58	264.46
726.91	263.89
727.24	263.38
727.57	262.82
727.91	262.22
728.24	261.71
728.57	261.11
728.90	260.59
729.23	259.97
729.56	259.57
729.89	259.06
730.22	258.49
730.55	258.02
730.89	257.51
731.22	257.00
731.55	256.49
731.88	255.99
732.21	255.47
732.54	254.96
732.87	254.46
733.20	253.99
733.53	253.52
733.86	253.12
734.19	252.61
734.52	252.22
734.85	251.94
735.18	251.47
735.51	251.05
735.84	250.62
736.17	250.30
736.50	249.76
736.83	249.61
737.16	249.27
737.49	248.83
737.82	248.44
738.15	248.11
738.48	247.77
738.81	247.37
739.14	246.97
739.47	246.58
739.80	246.20
740.13	245.85
740.46	245.48
740.79	245.10
741.12	244.77
741.45	244.43
741.78	244.02
742.11	243.75
742.44	243.43
742.77	243.11
743.10	242.75
743.43	242.40
743.75	241.88
744.08	241.78
744.41	241.46
744.74	241.09
745.07	240.72
745.40	240.42
745.73	240.22
746.06	239.97
746.39	239.72
746.71	239.41
747.04	239.07
747.37	238.79
747.70	238.52
748.03	238.26
748.36	237.97
748.68	237.66
749.01	237.30
749.34	237.04
749.67	236.77
750.00	236.56
750.33	236.48
750.65	236.20
750.98	235.69
751.31	235.47
751.64	235.24
751.97	235.11
752.29	234.89
752.62	234.52
752.95	234.21
753.28	233.92
753.60	233.69
753.93	233.55
754.26	233.32
754.59	233.07
754.91	232.82
755.24	232.58
755.57	232.36
755.90	232.14
756.22	231.86
756.55	231.65
756.88	231.40
757.20	231.07
757.53	230.85
757.86	230.66
758.19	230.48
758.51	230.34
758.84	230.04
759.17	229.80
759.49	229.66
759.82	229.59
760.15	229.46
760.47	229.27
760.80	229.03
761.13	228.90
761.45	228.71
761.78	228.55
762.11	228.39
762.43	228.20
762.76	228.03
763.08	227.92
763.41	227.76
763.74	227.62
764.06	227.45
764.39	227.31
764.71	227.16
765.04	227.00
765.37	226.81
765.69	226.67
766.02	226.60
766.34	226.42
766.67	226.20
767.00	226.10
767.32	226.05
767.65	226.02
767.97	225.87
768.30	225.76
768.62	225.65
768.95	225.51
769.27	225.38
769.60	225.30
769.92	225.14
770.25	224.95
770.57	224.77
770.90	224.62
771.22	224.48
771.55	224.39
771.87	224.30
772.20	224.16
772.52	224.22
772.85	224.32
773.17	224.21
773.50	224.13
773.82	223.98
774.15	223.82
774.47	223.61
774.80	223.50
775.12	223.42
775.45	223.34
775.77	223.26
776.09	223.18
776.42	223.08
776.74	223.05
777.07	222.98
777.39	222.93
777.72	222.86
778.04	222.81
778.36	222.71
778.69	222.66
779.01	222.66
779.33	222.39
779.66	222.08
779.98	222.01
780.31	221.95
780.63	222.01
780.95	221.98
781.28	221.90
781.60	221.81
781.92	221.71
782.25	221.64
782.57	221.58
782.89	221.54
783.22	221.49
783.54	221.40
783.86	221.39
784.19	221.33
784.51	221.33
784.83	221.25
785.16	221.19
785.48	221.09
785.80	220.98
786.12	220.95
786.45	220.89
786.77	220.87
787.09	220.81
787.42	220.63
787.74	220.53
788.06	220.49
788.38	220.49
788.71	220.40
789.03	220.37
789.35	220.35
789.67	220.26
789.99	220.20
790.32	220.14
790.64	220.10
790.96	220.22
791.28	220.11
791.61	220.05
791.93	220.01
792.25	220.01
792.57	220.10
792.89	219.99
793.21	219.93
793.54	219.88
793.86	219.77
794.18	219.78
794.50	219.74
794.82	219.71
795.14	219.66
795.47	219.66
795.79	219.60
796.11	219.47
796.43	219.47
796.75	219.44
797.07	219.40
797.39	219.34
797.71	219.16
798.04	219.14
798.36	219.11
798.68	219.10
799.00	219.03
799.32	218.92
799.64	218.96
799.96	218.98
800.28	218.96
800.60	218.95
800.92	218.91
801.24	218.84
801.56	218.80
801.89	218.73
802.21	218.72
802.53	218.67
802.85	218.71
803.17	218.72
803.49	218.62
803.81	218.61
804.13	218.56
804.45	218.47
804.77	218.48
805.09	218.45
805.41	218.38
805.73	218.32
806.05	218.21
806.37	218.17
806.69	218.12
807.01	218.06
807.33	218.05
807.65	217.95
807.97	218.07
808.28	218.02
808.60	218.00
808.92	217.93
809.24	218.01
809.56	217.95
809.88	217.86
810.20	217.90
810.52	217.85
810.84	217.81
811.16	217.75
811.48	217.67
811.80	217.72
812.12	217.68
812.43	217.67
812.75	217.67
813.07	217.60
813.39	217.56
813.71	217.52
814.03	217.46
814.35	217.44
814.67	217.32
814.98	217.26
815.30	217.20
815.62	217.15
815.94	217.01
816.26	216.99
816.58	216.91
816.89	216.89
817.21	216.84
817.53	216.85
817.85	216.88
818.17	216.87
818.48	216.74
818.80	216.76
819.12	216.70
819.44	216.63
819.76	216.59
820.07	216.61
820.39	216.62
820.71	216.64
821.03	216.63
821.34	216.59
821.66	216.64
821.98	216.66
822.30	216.64
822.61	216.75
822.93	216.74
823.25	216.75
823.57	216.71
823.88	216.76
824.20	216.74
824.52	216.78
824.83	216.76
825.15	216.73
825.47	216.74
825.79	216.73
826.10	216.75
826.42	216.75
826.74	216.72
827.05	216.67
827.37	216.64
827.69	216.60
828.00	216.59
828.32	216.56
828.64	216.49
828.95	216.59
829.27	216.52
829.58	216.50
829.90	216.56
830.22	216.57
830.53	216.48
830.85	216.44
831.17	216.31
831.48	216.31
831.80	216.33
832.11	216.30
832.43	216.29
832.75	216.25
833.06	216.36
833.38	216.31
833.69	216.28
834.01	216.30
834.32	216.29
834.64	216.29
834.96	216.30
835.27	216.31
835.59	216.25
835.90	216.18
836.22	216.14
836.53	216.08
836.85	216.09
837.16	216.30
837.48	216.30
837.79	216.39
838.11	216.38
838.42	216.36
838.74	216.34
839.05	216.32
839.37	216.34
839.68	216.20
840.00	216.19
840.31	216.21
840.63	216.18
840.94	216.17
841.26	216.13
841.57	216.09
841.88	216.11
842.20	216.06
842.51	216.02
842.83	216.05
843.14	216.20
843.46	216.14
843.77	216.00
844.08	216.01
844.40	215.95
844.71	215.94
845.03	215.89
845.34	215.90
845.65	215.88
845.97	215.87
846.28	215.90
846.60	215.88
846.91	215.84
847.22	215.83
847.54	215.87
847.85	215.86
848.16	215.86
848.48	215.80
848.79	215.87
849.10	215.91
849.42	215.93
849.73	215.74
850.04	215.74
850.36	215.66
850.67	215.66
850.98	215.65
851.30	215.63
851.61	215.64
851.92	215.60
852.23	215.70
852.55	215.70
852.86	215.68
853.17	215.71
853.49	215.76
853.80	215.78
854.11	215.80
854.42	215.80
854.74	215.79
855.05	215.81
855.36	215.70
855.67	215.71
855.99	215.66
856.30	215.90
856.61	215.87
856.92	215.89
857.23	215.88
857.55	215.87
857.86	215.85
858.17	215.88
858.48	215.87
858.79	215.80
859.11	215.81
859.42	215.80
859.73	215.75
860.04	215.72
860.35	215.65
860.66	215.56
860.98	215.56
861.29	215.58
861.60	215.55
861.91	215.59
862.22	215.52
862.53	215.52
862.84	215.26
863.16	215.36
863.47	215.30
863.78	215.30
864.09	215.33
864.40	215.38
864.71	215.38
865.02	215.40
865.33	215.36
865.64	215.34
865.95	215.31
866.27	215.45
866.58	215.44
866.89	215.47
867.20	215.45
867.51	215.44
867.82	215.41
868.13	215.47
868.44	215.43
868.75	215.49
869.06	215.47
869.37	215.52
869.68	215.41
869.99	215.47
870.30	215.44
870.61	215.43
870.92	215.39
871.23	215.36
871.54	215.39
871.85	215.47
872.16	215.44
872.47	215.42
872.78	215.30
873.09	215.34
873.40	215.34
873.71	215.40
874.02	215.42
874.33	215.38
874.64	215.36
874.95	215.38
875.26	215.33
875.56	215.33
875.87	215.34
876.18	215.34
876.49	215.50
876.80	215.50
877.11	215.48
877.42	215.50
877.73	215.52
878.04	215.48
878.35	215.49
878.66	215.53
878.96	215.55
879.27	215.52
879.58	215.49
879.89	215.49
880.20	215.51
880.51	215.48
880.82	215.52
881.12	215.51
881.43	215.49
881.74	215.46
882.05	215.47
882.36	215.47
882.67	215.50
882.97	215.30
883.28	215.29
883.59	215.29
883.90	215.28
884.21	215.30
884.51	215.28
884.82	215.21
885.13	215.22
885.44	215.21
885.74	215.23
886.05	215.23
886.36	215.21
886.67	215.13
886.98	215.26
887.28	215.27
887.59	215.28
887.90	215.32
888.20	215.31
888.51	215.33
888.82	215.30
889.13	215.31
889.43	215.49
889.74	215.48
890.05	215.46
890.35	215.47
890.66	215.42
890.97	215.42
891.28	215.39
891.58	215.36
891.89	215.38
892.20	215.41
892.50	215.40
892.81	215.41
893.12	215.42
893.42	215.32
893.73	215.29
894.04	215.29
894.34	215.28
894.65	215.29
894.95	215.25
895.26	215.28
895.57	215.37
895.87	215.20
896.18	215.25
896.48	215.27
896.79	215.26
897.10	215.28
897.40	215.28
897.71	215.33
898.01	215.29
898.32	215.32
898.63	215.27
898.93	215.29
899.24	215.27
899.54	215.26
899.85	215.22
900.15	215.24
900.46	215.23
900.76	215.23
901.07	215.25
901.38	215.27
901.68	215.27
901.99	215.20
902.29	215.19
902.60	215.15
902.90	215.12
903.21	215.11
903.51	215.12
903.82	215.16
904.12	215.14
904.43	215.19
904.73	215.16
905.03	215.18
905.34	215.37
905.64	215.36
905.95	215.38
906.25	215.42
906.56	215.42
906.86	215.41
907.17	215.42
907.47	215.42
907.77	215.38
908.08	215.36
908.38	215.32
908.69	215.32
908.99	215.37
909.30	215.39
909.60	215.43
909.90	215.46
910.21	215.40
910.51	215.38
910.81	215.37
911.12	215.40
911.42	215.39
911.73	215.17
912.03	215.18
912.33	215.23
912.64	215.23
912.94	215.21
913.24	215.18
913.55	215.13
913.85	215.13
914.15	215.21
914.46	215.21
914.76	215.22
915.06	215.23
915.37	215.19
915.67	215.18
915.97	215.14
916.27	215.07
916.58	215.10
916.88	215.10
917.18	215.08
917.49	215.24
917.79	215.26
918.09	215.30
918.39	215.35
918.70	215.30
919.00	215.31
919.30	215.40
919.60	215.42
919.91	215.42
920.21	215.40
920.51	215.32
920.81	215.28
921.12	215.31
921.42	215.31
921.72	215.33
922.02	215.33
922.32	215.38
922.63	215.40
922.93	215.50
923.23	215.53
923.53	215.54
923.83	215.35
924.13	215.38
924.44	215.37
924.74	215.40
925.04	215.45
925.34	215.45
925.64	215.38
925.94	215.35
926.24	215.48
926.55	215.46
926.85	215.51
927.15	215.52
927.45	215.51
927.75	215.48
928.05	215.50
928.35	215.50
928.65	215.52
928.95	215.54
929.26	215.45
929.56	215.48
929.86	215.48
930.16	215.47
930.46	215.45
930.76	215.45
931.06	215.35
931.36	215.32
931.66	215.35
931.96	215.36
932.26	215.39
932.56	215.28
932.86	215.27
933.16	215.27
933.46	215.28
933.76	215.25
934.06	215.35
934.36	215.40
934.66	215.37
934.96	215.35
935.26	215.31
935.56	215.35
935.86	215.29
936.16	215.26
936.46	215.26
936.76	215.24
937.06	215.18
937.36	215.23
937.66	215.21
937.96	215.18
938.26	215.14
938.56	215.11
938.86	215.13
939.16	215.20
939.46	215.21
939.76	215.19
940.06	215.18
940.35	215.10
940.65	214.96
940.95	214.99
941.25	214.94
941.55	214.95
941.85	214.91
942.15	214.97
942.45	215.04
942.75	215.00
943.04	215.02
943.34	215.09
943.64	215.04
943.94	214.98
944.24	214.99
944.54	215.01
944.84	215.01
945.13	214.97
945.43	214.92
945.73	214.91
946.03	214.90
946.33	214.89
946.62	214.85
946.92	214.88
947.22	214.88
947.52	214.92
947.82	214.94
948.11	214.91
948.41	214.87
948.71	214.79
949.01	214.80
949.31	214.80
949.60	214.79
949.90	214.85
950.20	214.85
950.50	214.85
950.79	214.83
951.09	214.85
951.39	214.88
951.69	214.86
951.98	214.92
952.28	214.96
952.58	214.94
952.87	214.95
953.17	214.96
953.47	214.94
953.76	214.92
954.06	214.86
954.36	214.84
954.66	214.81
954.95	214.88
955.25	214.91
955.55	214.89
955.84	214.84
956.14	214.82
956.44	214.84
956.73	214.80
957.03	214.83
957.32	214.86
957.62	214.83
957.92	214.88
958.21	214.84
958.51	215.08
958.81	215.12
959.10	215.13
959.40	215.17
959.69	215.19
959.99	215.21
960.29	215.25
960.58	215.26
960.88	215.36
961.17	215.33
961.47	215.33
961.76	215.32
962.06	215.39
962.36	215.37
962.65	215.41
962.95	215.44
963.24	215.38
963.54	215.39
963.83	215.43
964.13	215.42
964.42	215.37
964.72	215.18
965.01	215.18
965.31	215.19
965.60	215.17
965.90	215.26
966.19	215.23
966.49	215.26
966.78	215.24
967.08	215.21
967.37	215.22
967.67	215.21
967.96	215.24
968.26	215.23
968.55	215.24
968.85	215.22
969.14	215.20
969.43	215.19
969.73	215.13
970.02	215.09
970.32	215.05
970.61	215.02
970.91	214.96
971.20	214.93
971.49	214.91
971.79	214.92
972.08	214.82
972.38	214.83
972.67	214.79
972.96	214.85
973.26	214.80
973.55	214.87
973.85	214.87
974.14	214.85
974.43	214.82
974.73	214.80
975.02	214.79
975.31	214.81
975.61	214.83
975.90	214.84
976.19	214.80
976.49	214.86
976.78	214.92
977.07	214.91
977.37	214.91
977.66	214.96
977.95	214.95
978.24	214.94
978.54	214.97
978.83	214.96
979.12	214.93
979.42	214.94
979.71	214.88
980.00	214.87
980.29	214.89
980.59	214.88
980.88	214.91
981.17	214.90
981.46	214.87
981.76	214.87
982.05	214.94
982.34	214.98
982.63	214.98
982.93	214.95
983.22	214.99
983.51	215.01
983.80	215.01
984.09	215.03
984.39	215.02
984.68	214.98
984.97	215.01
985.26	215.00
985.55	215.00
985.85	214.98
986.14	215.00
986.43	215.01
986.72	215.00
987.01	214.94
987.30	214.96
987.59	214.97
987.89	214.98
988.18	214.91
988.47	214.90
988.76	214.88
989.05	214.84
989.34	214.82
989.63	214.86
989.92	214.82
990.22	214.77
990.51	214.78
990.80	214.77
991.09	214.79
991.38	214.81
991.67	214.78
991.96	214.74
992.25	214.76
992.54	214.72
992.83	214.73
993.12	214.71
993.41	214.71
993.70	214.77
993.99	214.81
994.28	214.82
994.58	214.81
994.87	214.77
995.16	214.81
995.45	214.79
995.74	214.72
996.03	214.77
996.32	214.80
996.61	214.86
996.90	214.87
997.19	214.85
997.48	214.88
997.77	214.89
998.06	214.92
998.34	214.87
998.63	214.86
998.92	214.88
999.21	214.93
999.50	214.94
999.79	214.87
1000.08	214.87
1000.37	214.87
1000.66	214.86
1000.95	214.93
1001.24	214.95
1001.53	214.96
1001.82	214.97
1002.11	214.92
1002.40	214.94
1002.68	214.94
1002.97	215.09
1003.26	215.07
1003.55	215.02
1003.84	215.02
1004.13	215.11
1004.42	215.13
1004.71	215.13
1004.99	215.13
1005.28	215.17
1005.57	215.15
1005.86	215.12
1006.15	215.11
1006.44	215.07
1006.72	215.12
1007.01	215.09
1007.30	215.05
1007.59	215.04
1007.88	215.03
1008.17	215.05
1008.45	215.02
1008.74	214.96
1009.03	214.86
1009.32	214.84
1009.60	214.82
1009.89	214.81
1010.18	214.71
1010.47	214.68
1010.76	214.69
1011.04	214.67
1011.33	214.68
1011.62	214.71
1011.91	214.75
1012.19	214.73
1012.48	214.77
1012.77	214.75
1013.05	214.86
1013.34	214.87
1013.63	214.88
1013.92	214.88
1014.20	214.87
1014.49	214.87
1014.78	214.89
1015.06	214.84
1015.35	214.82
1015.64	214.85
1015.92	214.87
1016.21	214.86
1016.50	214.88
1016.78	214.87
1017.07	214.90
1017.36	214.84
1017.64	214.80
1017.93	214.82
1018.22	214.82
1018.50	214.77
1018.79	214.77
1019.08	214.66
1019.36	214.68
1019.65	214.64
1019.93	214.72
1020.22	214.72
1020.51	214.81
1020.79	214.78
1021.08	214.70
1021.36	213.94
1021.65	215.03
1021.94	214.74
1022.22	214.81
1022.51	214.32
1022.79	216.27
1023.08	214.58
1023.36	217.04
1023.65	214.29
>>>>>End Processed Spectral Data<<<<<
