SpectraSuite Data File
++++++++++++++++++++++++++++++++++++
Date: Tue Jan 29 16:12:57 EST 2013
User: group
Dark Spectrum Present: No
Reference Spectrum Present: No
Number of Sampled Component Spectra: 1
Spectrometers: USB2E7196
Integration Time (usec): 65000 (USB2E7196)
Spectra Averaged: 100 (USB2E7196)
Boxcar Smoothing: 10 (USB2E7196)
Correct for Electrical Dark: No (USB2E7196)
Strobe/Lamp Enabled: No (USB2E7196)
Correct for Detector Non-linearity: No (USB2E7196)
Correct for Stray Light: No (USB2E7196)
Number of Pixels in Processed Spectrum: 2048
>>>>>Begin Processed Spectral Data<<<<<
339.09	0.00
339.48	202.41
339.86	204.01
340.24	205.44
340.63	206.77
341.01	211.78
341.39	209.69
341.78	210.97
342.16	212.92
342.54	212.70
342.93	201.77
343.31	211.98
343.69	212.54
344.07	213.01
344.46	213.46
344.84	213.86
345.22	214.00
345.60	214.24
345.99	214.45
346.37	214.57
346.75	214.66
347.13	214.76
347.52	214.82
347.90	214.97
348.28	214.99
348.66	215.06
349.05	215.00
349.43	215.03
349.81	215.09
350.19	215.12
350.57	215.19
350.96	215.29
351.34	215.39
351.72	215.46
352.10	215.55
352.48	215.59
352.87	215.64
353.25	215.71
353.63	215.77
354.01	215.83
354.39	215.91
354.77	216.01
355.15	216.13
355.54	216.17
355.92	216.15
356.30	216.21
356.68	216.41
357.06	216.53
357.44	216.58
357.82	216.63
358.20	216.73
358.58	216.80
358.97	216.87
359.35	216.95
359.73	217.04
360.11	217.11
360.49	217.18
360.87	217.23
361.25	217.29
361.63	217.41
362.01	217.47
362.39	217.48
362.77	217.53
363.15	217.56
363.53	217.60
363.91	217.64
364.29	217.67
364.67	217.52
365.05	217.50
365.43	217.58
365.81	217.63
366.19	217.73
366.57	217.82
366.95	217.84
367.33	217.78
367.71	217.77
368.09	217.79
368.47	217.79
368.85	217.79
369.23	217.85
369.61	217.74
369.99	217.78
370.37	217.78
370.75	217.86
371.13	217.80
371.51	217.75
371.89	217.75
372.27	217.74
372.65	217.73
373.03	217.71
373.41	217.63
373.78	217.57
374.16	217.43
374.54	217.33
374.92	217.27
375.30	217.25
375.68	217.21
376.06	217.19
376.44	217.16
376.82	217.12
377.19	217.05
377.57	217.03
377.95	216.93
378.33	216.90
378.71	216.75
379.09	216.72
379.47	216.72
379.84	216.66
380.22	216.59
380.60	216.50
380.98	216.45
381.36	216.41
381.73	216.35
382.11	216.34
382.49	216.28
382.87	216.21
383.25	216.18
383.62	216.36
384.00	216.29
384.38	216.25
384.76	216.25
385.13	216.27
385.51	216.21
385.89	216.15
386.27	216.10
386.64	216.06
387.02	216.02
387.40	215.96
387.78	215.94
388.15	215.91
388.53	215.88
388.91	215.86
389.29	215.83
389.66	215.86
390.04	215.80
390.42	215.83
390.79	215.80
391.17	215.77
391.55	215.51
391.92	215.49
392.30	215.51
392.68	215.47
393.05	215.47
393.43	215.49
393.81	215.50
394.18	215.46
394.56	215.48
394.94	215.51
395.31	215.52
395.69	215.58
396.06	215.64
396.44	215.69
396.82	215.68
397.19	215.81
397.57	215.79
397.95	215.85
398.32	215.81
398.70	215.88
399.07	215.95
399.45	216.01
399.82	216.06
400.20	216.06
400.58	216.13
400.95	216.11
401.33	216.26
401.70	216.46
402.08	216.57
402.45	216.67
402.83	216.79
403.20	216.89
403.58	216.98
403.95	217.13
404.33	217.27
404.71	217.43
405.08	217.64
405.46	217.81
405.83	218.02
406.21	218.20
406.58	218.42
406.96	218.61
407.33	218.89
407.70	219.18
408.08	219.63
408.45	219.95
408.83	220.30
409.20	220.59
409.58	220.85
409.95	221.28
410.33	221.75
410.70	222.17
411.08	222.74
411.45	223.30
411.82	223.84
412.20	224.53
412.57	225.34
412.95	225.93
413.32	226.76
413.69	227.54
414.07	228.43
414.44	229.38
414.82	230.40
415.19	231.51
415.56	232.68
415.94	233.80
416.31	235.20
416.68	236.57
417.06	238.09
417.43	239.58
417.81	241.25
418.18	242.97
418.55	244.81
418.93	246.76
419.30	248.82
419.67	250.98
420.04	253.17
420.42	255.47
420.79	258.15
421.16	260.84
421.54	263.63
421.91	266.54
422.28	269.55
422.66	272.72
423.03	275.85
423.40	279.07
423.77	282.52
424.15	286.04
424.52	289.79
424.89	293.84
425.26	297.76
425.64	301.55
426.01	305.63
426.38	309.96
426.75	314.30
427.13	318.84
427.50	323.67
427.87	328.71
428.24	333.70
428.61	338.61
428.99	343.92
429.36	349.69
429.73	355.34
430.10	361.00
430.47	366.85
430.85	372.99
431.22	379.49
431.59	386.38
431.96	392.97
432.33	400.17
432.70	407.18
433.08	415.45
433.45	423.24
433.82	431.01
434.19	439.61
434.56	448.10
434.93	456.12
435.30	464.07
435.68	472.85
436.05	481.51
436.42	490.10
436.79	497.98
437.16	506.50
437.53	515.44
437.90	524.29
438.27	532.98
438.64	541.84
439.01	549.98
439.38	557.34
439.75	564.39
440.13	572.54
440.50	580.23
440.87	586.41
441.24	592.80
441.61	599.88
441.98	605.07
442.35	611.11
442.72	617.23
443.09	623.07
443.46	626.65
443.83	629.11
444.20	631.11
444.57	634.11
444.94	635.51
445.31	636.91
445.68	638.24
446.05	638.84
446.42	638.10
446.79	637.25
447.16	636.27
447.53	635.48
447.90	632.22
448.27	629.03
448.64	624.56
449.01	621.31
449.37	615.62
449.74	610.12
450.11	603.50
450.48	596.35
450.85	589.16
451.22	582.95
451.59	577.06
451.96	571.54
452.33	564.00
452.70	557.09
453.07	548.90
453.43	540.60
453.80	532.54
454.17	524.83
454.54	517.53
454.91	509.56
455.28	501.94
455.65	494.87
456.02	487.65
456.38	481.55
456.75	474.03
457.12	467.72
457.49	461.48
457.86	455.50
458.23	450.35
458.59	444.65
458.96	438.84
459.33	433.71
459.70	428.48
460.07	424.42
460.43	419.73
460.80	415.37
461.17	411.59
461.54	407.59
461.91	403.71
462.27	399.77
462.64	396.46
463.01	392.80
463.38	389.17
463.74	385.60
464.11	382.49
464.48	379.78
464.85	376.82
465.21	374.48
465.58	371.94
465.95	368.89
466.32	366.37
466.68	363.89
467.05	361.41
467.42	358.93
467.78	356.30
468.15	353.91
468.52	352.09
468.88	349.64
469.25	347.54
469.62	345.83
469.98	343.95
470.35	342.22
470.72	340.65
471.08	338.95
471.45	337.57
471.82	336.10
472.18	334.47
472.55	333.32
472.92	332.02
473.28	330.85
473.65	329.79
474.02	328.72
474.38	327.89
474.75	327.22
475.11	326.48
475.48	325.91
475.85	325.44
476.21	325.00
476.58	324.67
476.94	324.44
477.31	324.17
477.67	323.97
478.04	323.85
478.41	323.80
478.77	323.98
479.14	323.90
479.50	324.08
479.87	324.39
480.23	324.75
480.60	324.99
480.96	325.34
481.33	325.96
481.69	326.53
482.06	327.06
482.42	327.45
482.79	328.08
483.15	328.94
483.52	329.90
483.88	330.74
484.25	331.69
484.61	332.68
484.98	333.73
485.34	335.02
485.71	336.38
486.07	337.79
486.44	339.12
486.80	340.73
487.17	342.37
487.53	344.19
487.90	346.04
488.26	348.08
488.62	350.19
488.99	352.25
489.35	354.46
489.72	356.86
490.08	359.39
490.44	361.88
490.81	364.56
491.17	367.30
491.54	370.25
491.90	373.32
492.26	376.60
492.63	379.97
492.99	383.40
493.36	387.04
493.72	390.92
494.08	394.93
494.45	399.11
494.81	403.44
495.17	407.94
495.54	412.56
495.90	417.34
496.26	422.23
496.63	427.38
496.99	432.70
497.35	438.24
497.72	444.08
498.08	450.08
498.44	456.11
498.80	462.39
499.17	468.85
499.53	475.42
499.89	482.26
500.26	489.26
500.62	496.34
500.98	503.76
501.34	511.16
501.71	518.83
502.07	526.63
502.43	534.61
502.79	542.65
503.16	551.03
503.52	559.56
503.88	568.22
504.24	577.11
504.60	586.12
504.97	595.24
505.33	604.43
505.69	614.17
506.05	624.00
506.41	633.83
506.78	643.81
507.14	654.09
507.50	664.47
507.86	675.09
508.22	685.76
508.59	696.29
508.95	707.34
509.31	718.55
509.67	729.93
510.03	741.32
510.39	753.02
510.75	764.81
511.12	776.66
511.48	788.69
511.84	800.85
512.20	813.06
512.56	825.59
512.92	838.25
513.28	850.82
513.64	863.42
514.00	876.13
514.37	889.08
514.73	902.03
515.09	914.79
515.45	927.54
515.81	940.45
516.17	953.71
516.53	966.79
516.89	979.68
517.25	992.72
517.61	1005.98
517.97	1019.17
518.33	1032.06
518.69	1045.37
519.05	1058.84
519.41	1072.28
519.77	1086.03
520.13	1099.06
520.49	1112.06
520.85	1125.27
521.21	1138.42
521.57	1151.84
521.93	1164.63
522.29	1178.20
522.65	1191.70
523.01	1205.05
523.37	1217.97
523.73	1230.96
524.09	1243.83
524.45	1257.03
524.81	1270.19
525.17	1283.32
525.53	1296.11
525.89	1309.18
526.25	1321.92
526.61	1334.43
526.97	1347.26
527.33	1359.85
527.68	1373.10
528.04	1386.26
528.40	1398.96
528.76	1412.06
529.12	1424.73
529.48	1437.74
529.84	1449.61
530.20	1461.95
530.56	1474.34
530.91	1487.38
531.27	1499.98
531.63	1512.44
531.99	1524.88
532.35	1536.88
532.71	1548.99
533.07	1561.56
533.42	1573.44
533.78	1585.36
534.14	1597.23
534.50	1608.08
534.86	1619.36
535.21	1629.88
535.57	1640.98
535.93	1652.06
536.29	1662.81
536.65	1673.96
537.00	1684.68
537.36	1695.83
537.72	1706.54
538.08	1717.45
538.44	1728.02
538.79	1738.67
539.15	1749.11
539.51	1759.47
539.87	1770.38
540.22	1780.73
540.58	1791.29
540.94	1801.84
541.29	1811.82
541.65	1821.14
542.01	1831.38
542.37	1841.19
542.72	1851.22
543.08	1860.86
543.44	1870.88
543.79	1879.94
544.15	1889.00
544.51	1898.66
544.87	1908.12
545.22	1916.98
545.58	1925.76
545.94	1934.36
546.29	1942.79
546.65	1950.95
547.01	1958.97
547.36	1966.45
547.72	1974.05
548.07	1981.55
548.43	1988.95
548.79	1996.51
549.14	2004.51
549.50	2012.63
549.86	2020.16
550.21	2027.19
550.57	2034.61
550.92	2041.16
551.28	2048.48
551.64	2055.59
551.99	2062.87
552.35	2069.92
552.70	2076.70
553.06	2083.07
553.41	2089.15
553.77	2095.40
554.13	2101.71
554.48	2108.71
554.84	2115.46
555.19	2121.79
555.55	2128.09
555.90	2134.37
556.26	2141.12
556.61	2146.91
556.97	2151.60
557.32	2157.35
557.68	2163.66
558.03	2169.17
558.39	2174.34
558.74	2180.09
559.10	2185.55
559.45	2191.02
559.81	2196.45
560.16	2202.00
560.52	2207.75
560.87	2214.10
561.23	2220.02
561.58	2226.65
561.94	2231.53
562.29	2236.47
562.64	2242.54
563.00	2248.17
563.35	2253.73
563.71	2259.54
564.06	2265.15
564.42	2271.33
564.77	2276.45
565.12	2281.71
565.48	2287.06
565.83	2292.78
566.19	2298.21
566.54	2303.68
566.89	2308.22
567.25	2312.90
567.60	2318.53
567.96	2323.85
568.31	2328.43
568.66	2332.63
569.02	2336.35
569.37	2340.26
569.72	2344.59
570.08	2348.10
570.43	2351.06
570.78	2354.09
571.14	2356.70
571.49	2360.04
571.84	2363.49
572.20	2366.43
572.55	2369.57
572.90	2371.63
573.26	2374.50
573.61	2377.09
573.96	2379.22
574.31	2381.27
574.67	2383.28
575.02	2384.14
575.37	2385.63
575.72	2386.71
576.08	2388.35
576.43	2388.85
576.78	2389.70
577.13	2391.57
577.49	2392.90
577.84	2394.24
578.19	2395.89
578.54	2396.60
578.90	2397.65
579.25	2397.73
579.60	2397.93
579.95	2397.41
580.30	2397.87
580.66	2397.29
581.01	2395.87
581.36	2393.87
581.71	2392.66
582.06	2391.73
582.42	2391.18
582.77	2389.26
583.12	2387.68
583.47	2386.66
583.82	2386.13
584.17	2384.92
584.53	2382.82
584.88	2380.90
585.23	2379.21
585.58	2377.14
585.93	2375.23
586.28	2373.19
586.63	2370.92
586.98	2368.84
587.34	2367.11
587.69	2364.94
588.04	2363.15
588.39	2361.81
588.74	2359.52
589.09	2357.25
589.44	2354.23
589.79	2351.92
590.14	2350.03
590.49	2347.35
590.84	2343.63
591.19	2340.95
591.54	2337.78
591.89	2333.96
592.25	2330.98
592.60	2326.93
592.95	2322.98
593.30	2318.92
593.65	2314.60
594.00	2310.48
594.35	2307.56
594.70	2302.91
595.05	2298.45
595.40	2293.17
595.75	2287.67
596.10	2284.21
596.45	2279.36
596.80	2274.86
597.15	2269.72
597.50	2263.96
597.85	2259.04
598.19	2253.90
598.54	2248.12
598.89	2243.20
599.24	2238.77
599.59	2232.62
599.94	2227.05
600.29	2221.23
600.64	2215.41
600.99	2208.88
601.34	2203.55
601.69	2196.81
602.04	2190.56
602.39	2184.16
602.74	2178.20
603.08	2172.79
603.43	2166.27
603.78	2159.54
604.13	2152.63
604.48	2145.50
604.83	2139.51
605.18	2133.36
605.53	2126.45
605.87	2119.49
606.22	2112.73
606.57	2105.01
606.92	2097.34
607.27	2090.48
607.62	2083.81
607.96	2077.00
608.31	2070.38
608.66	2062.58
609.01	2054.95
609.36	2047.87
609.70	2040.23
610.05	2032.55
610.40	2024.29
610.75	2016.08
611.10	2008.55
611.44	1999.86
611.79	1991.20
612.14	1981.29
612.49	1970.85
612.83	1961.66
613.18	1952.59
613.53	1943.21
613.88	1933.51
614.22	1925.04
614.57	1915.12
614.92	1904.80
615.27	1894.61
615.61	1884.79
615.96	1875.10
616.31	1865.55
616.65	1856.36
617.00	1846.49
617.35	1836.89
617.70	1827.22
618.04	1817.07
618.39	1806.88
618.74	1797.22
619.08	1787.65
619.43	1779.00
619.78	1770.82
620.12	1762.18
620.47	1752.28
620.82	1742.13
621.16	1732.54
621.51	1722.55
621.85	1712.75
622.20	1702.23
622.55	1691.74
622.89	1681.88
623.24	1672.38
623.59	1662.66
623.93	1652.39
624.28	1642.76
624.62	1632.71
624.97	1622.35
625.32	1612.73
625.66	1603.90
626.01	1595.04
626.35	1585.62
626.70	1575.53
627.04	1565.40
627.39	1555.38
627.73	1546.25
628.08	1537.19
628.43	1527.56
628.77	1518.33
629.12	1509.46
629.46	1501.62
629.81	1493.17
630.15	1483.50
630.50	1473.64
630.84	1463.26
631.19	1453.44
631.53	1443.96
631.88	1433.70
632.22	1423.79
632.57	1414.50
632.91	1404.30
633.26	1394.56
633.60	1385.03
633.95	1375.67
634.29	1366.30
634.64	1356.96
634.98	1347.13
635.32	1337.88
635.67	1329.39
636.01	1320.14
636.36	1310.36
636.70	1300.86
637.05	1291.57
637.39	1282.74
637.73	1274.10
638.08	1266.45
638.42	1258.23
638.77	1249.55
639.11	1241.43
639.45	1233.60
639.80	1224.99
640.14	1216.33
640.49	1207.39
640.83	1198.60
641.17	1190.50
641.52	1182.28
641.86	1173.70
642.20	1165.80
642.55	1157.31
642.89	1148.39
643.23	1139.70
643.58	1131.62
643.92	1122.66
644.26	1114.04
644.61	1105.64
644.95	1097.01
645.29	1087.81
645.64	1078.67
645.98	1070.32
646.32	1062.39
646.66	1053.89
647.01	1045.53
647.35	1037.47
647.69	1029.21
648.04	1020.88
648.38	1012.09
648.72	1003.31
649.06	994.94
649.41	986.86
649.75	978.95
650.09	971.23
650.43	963.29
650.78	955.11
651.12	947.46
651.46	940.13
651.80	932.89
652.14	925.43
652.49	918.00
652.83	910.73
653.17	903.02
653.51	895.41
653.85	888.28
654.20	881.06
654.54	873.58
654.88	866.46
655.22	859.39
655.56	852.44
655.90	845.79
656.25	839.20
656.59	832.25
656.93	825.21
657.27	818.12
657.61	811.32
657.95	805.26
658.29	799.42
658.64	793.27
658.98	786.87
659.32	780.47
659.66	774.30
660.00	768.00
660.34	762.02
660.68	755.96
661.02	749.72
661.36	743.88
661.70	738.17
662.05	732.58
662.39	727.16
662.73	721.87
663.07	716.60
663.41	711.03
663.75	705.45
664.09	699.90
664.43	694.53
664.77	689.18
665.11	683.41
665.45	677.54
665.79	671.85
666.13	666.29
666.47	660.86
666.81	655.59
667.15	650.36
667.49	645.28
667.83	640.09
668.17	634.99
668.51	629.93
668.85	625.13
669.19	620.27
669.53	615.36
669.87	610.30
670.21	605.57
670.55	600.87
670.89	596.56
671.23	592.40
671.57	588.10
671.91	583.87
672.25	579.85
672.58	575.86
672.92	571.86
673.26	567.96
673.60	564.15
673.94	560.34
674.28	556.79
674.62	553.08
674.96	549.43
675.30	545.96
675.64	542.35
675.97	538.82
676.31	535.26
676.65	531.71
676.99	528.34
677.33	524.60
677.67	521.01
678.01	517.13
678.34	513.47
678.68	510.06
679.02	506.49
679.36	502.88
679.70	499.27
680.04	495.78
680.37	492.39
680.71	489.15
681.05	486.00
681.39	482.74
681.73	479.63
682.06	476.64
682.40	473.57
682.74	470.45
683.08	467.28
683.42	464.16
683.75	461.24
684.09	458.25
684.43	455.49
684.77	452.64
685.10	449.89
685.44	447.00
685.78	444.10
686.12	441.40
686.45	438.72
686.79	436.13
687.13	433.68
687.46	431.08
687.80	428.44
688.14	425.66
688.48	423.11
688.81	420.51
689.15	417.96
689.49	415.39
689.82	412.93
690.16	410.40
690.50	407.99
690.83	405.49
691.17	403.01
691.51	400.59
691.84	398.41
692.18	396.24
692.52	394.13
692.85	392.07
693.19	389.98
693.52	387.85
693.86	385.67
694.20	383.53
694.53	381.42
694.87	379.27
695.21	377.20
695.54	375.11
695.88	372.99
696.21	370.86
696.55	368.76
696.88	366.79
697.22	364.85
697.56	363.03
697.89	361.21
698.23	359.55
698.56	357.84
698.90	356.07
699.23	354.19
699.57	352.32
699.90	350.47
700.24	348.68
700.58	346.98
700.91	345.35
701.25	343.90
701.58	342.38
701.92	340.82
702.25	339.24
702.59	337.64
702.92	336.16
703.26	334.65
703.59	333.26
703.93	332.02
704.26	330.63
704.60	329.18
704.93	327.77
705.26	326.26
705.60	324.79
705.93	323.37
706.27	322.08
706.60	320.90
706.94	319.70
707.27	318.37
707.61	317.04
707.94	315.74
708.27	314.17
708.61	312.76
708.94	311.45
709.28	310.21
709.61	309.01
709.94	307.80
710.28	306.64
710.61	305.46
710.95	304.04
711.28	302.98
711.61	301.80
711.95	300.66
712.28	299.49
712.61	298.36
712.95	297.30
713.28	296.31
713.61	295.17
713.95	294.06
714.28	293.06
714.61	292.01
714.95	291.03
715.28	290.06
715.61	289.05
715.95	288.12
716.28	287.17
716.61	286.26
716.95	285.30
717.28	284.38
717.61	283.43
717.94	282.59
718.28	281.61
718.61	280.76
718.94	279.89
719.27	279.12
719.61	278.27
719.94	277.42
720.27	276.50
720.60	275.71
720.94	274.97
721.27	274.26
721.60	273.66
721.93	272.96
722.27	272.38
722.60	271.76
722.93	271.03
723.26	270.46
723.59	269.77
723.93	269.14
724.26	268.52
724.59	267.90
724.92	267.31
725.25	266.80
725.59	266.25
725.92	265.73
726.25	265.17
726.58	264.65
726.91	264.10
727.24	263.57
727.57	263.02
727.91	262.39
728.24	261.84
728.57	261.23
728.90	260.71
729.23	260.09
729.56	259.63
729.89	259.13
730.22	258.57
730.55	258.04
730.89	257.54
731.22	257.04
731.55	256.58
731.88	256.07
732.21	255.51
732.54	254.99
732.87	254.52
733.20	254.03
733.53	253.56
733.86	253.11
734.19	252.62
734.52	252.26
734.85	251.96
735.18	251.51
735.51	251.10
735.84	250.67
736.17	250.29
736.50	249.78
736.83	249.65
737.16	249.25
737.49	248.88
737.82	248.51
738.15	248.17
738.48	247.79
738.81	247.40
739.14	247.02
739.47	246.64
739.80	246.25
740.13	245.92
740.46	245.54
740.79	245.17
741.12	244.83
741.45	244.44
741.78	244.01
742.11	243.75
742.44	243.41
742.77	243.14
743.10	242.81
743.43	242.48
743.75	241.91
744.08	241.87
744.41	241.55
744.74	241.21
745.07	240.83
745.40	240.55
745.73	240.29
746.06	239.94
746.39	239.67
746.71	239.33
747.04	238.97
747.37	238.64
747.70	238.36
748.03	238.05
748.36	237.80
748.68	237.53
749.01	237.11
749.34	236.86
749.67	236.55
750.00	236.30
750.33	236.18
750.65	235.92
750.98	235.39
751.31	235.14
751.64	234.90
751.97	234.77
752.29	234.46
752.62	234.14
752.95	233.91
753.28	233.65
753.60	233.45
753.93	233.29
754.26	233.10
754.59	232.87
754.91	232.61
755.24	232.37
755.57	232.16
755.90	232.01
756.22	231.76
756.55	231.51
756.88	231.27
757.20	230.94
757.53	230.71
757.86	230.48
758.19	230.31
758.51	230.09
758.84	229.79
759.17	229.64
759.49	229.50
759.82	229.46
760.15	229.30
760.47	229.13
760.80	228.88
761.13	228.74
761.45	228.52
761.78	228.39
762.11	228.20
762.43	228.00
762.76	227.81
763.08	227.70
763.41	227.58
763.74	227.46
764.06	227.31
764.39	227.16
764.71	227.00
765.04	226.83
765.37	226.69
765.69	226.53
766.02	226.38
766.34	226.22
766.67	225.96
767.00	225.86
767.32	225.81
767.65	225.83
767.97	225.68
768.30	225.58
768.62	225.46
768.95	225.30
769.27	225.18
769.60	225.09
769.92	224.89
770.25	224.72
770.57	224.54
770.90	224.45
771.22	224.31
771.55	224.24
771.87	224.14
772.20	224.01
772.52	224.09
772.85	224.24
773.17	224.14
773.50	224.06
773.82	223.95
774.15	223.75
774.47	223.52
774.80	223.42
775.12	223.33
775.45	223.22
775.77	223.16
776.09	223.08
776.42	223.00
776.74	223.00
777.07	222.88
777.39	222.79
777.72	222.67
778.04	222.65
778.36	222.50
778.69	222.42
779.01	222.36
779.33	222.09
779.66	221.76
779.98	221.67
780.31	221.59
780.63	221.59
780.95	221.57
781.28	221.52
781.60	221.41
781.92	221.36
782.25	221.32
782.57	221.25
782.89	221.17
783.22	221.07
783.54	220.96
783.86	220.92
784.19	220.85
784.51	220.86
784.83	220.73
785.16	220.69
785.48	220.63
785.80	220.59
786.12	220.56
786.45	220.50
786.77	220.45
787.09	220.40
787.42	220.26
787.74	220.19
788.06	220.11
788.38	220.06
788.71	220.00
789.03	219.94
789.35	219.92
789.67	219.87
789.99	219.84
790.32	219.76
790.64	219.77
790.96	219.94
791.28	219.80
791.61	219.76
791.93	219.76
792.25	219.69
792.57	219.79
792.89	219.71
793.21	219.65
793.54	219.62
793.86	219.53
794.18	219.49
794.50	219.42
794.82	219.41
795.14	219.39
795.47	219.36
795.79	219.31
796.11	219.22
796.43	219.15
796.75	219.13
797.07	219.12
797.39	219.05
797.71	218.84
798.04	218.84
798.36	218.81
798.68	218.75
799.00	218.73
799.32	218.61
799.64	218.57
799.96	218.56
800.28	218.54
800.60	218.50
800.92	218.48
801.24	218.44
801.56	218.39
801.89	218.38
802.21	218.35
802.53	218.29
802.85	218.32
803.17	218.38
803.49	218.28
803.81	218.22
804.13	218.15
804.45	218.11
804.77	218.09
805.09	218.06
805.41	218.04
805.73	217.98
806.05	217.87
806.37	217.86
806.69	217.79
807.01	217.77
807.33	217.77
807.65	217.67
807.97	217.73
808.28	217.67
808.60	217.61
808.92	217.57
809.24	217.66
809.56	217.58
809.88	217.49
810.20	217.49
810.52	217.50
810.84	217.49
811.16	217.44
811.48	217.35
811.80	217.43
812.12	217.38
812.43	217.40
812.75	217.39
813.07	217.37
813.39	217.37
813.71	217.29
814.03	217.24
814.35	217.25
814.67	217.14
814.98	217.10
815.30	217.07
815.62	217.03
815.94	216.91
816.26	216.91
816.58	216.88
816.89	216.88
817.21	216.81
817.53	216.80
817.85	216.81
818.17	216.80
818.48	216.69
818.80	216.74
819.12	216.69
819.44	216.67
819.76	216.61
820.07	216.60
820.39	216.59
820.71	216.59
821.03	216.56
821.34	216.54
821.66	216.56
821.98	216.57
822.30	216.56
822.61	216.65
822.93	216.63
823.25	216.61
823.57	216.56
823.88	216.62
824.20	216.59
824.52	216.58
824.83	216.59
825.15	216.53
825.47	216.47
825.79	216.47
826.10	216.43
826.42	216.43
826.74	216.45
827.05	216.45
827.37	216.46
827.69	216.46
828.00	216.46
828.32	216.42
828.64	216.38
828.95	216.46
829.27	216.41
829.58	216.37
829.90	216.39
830.22	216.41
830.53	216.32
830.85	216.29
831.17	216.24
831.48	216.22
831.80	216.24
832.11	216.25
832.43	216.21
832.75	216.21
833.06	216.29
833.38	216.20
833.69	216.17
834.01	216.15
834.32	216.13
834.64	216.12
834.96	216.17
835.27	216.16
835.59	216.06
835.90	215.97
836.22	215.98
836.53	215.90
836.85	215.87
837.16	216.10
837.48	216.11
837.79	216.16
838.11	216.15
838.42	216.11
838.74	216.08
839.05	216.07
839.37	216.08
839.68	215.94
840.00	215.95
840.31	215.99
840.63	215.96
840.94	215.93
841.26	215.88
841.57	215.81
841.88	215.80
842.20	215.79
842.51	215.78
842.83	215.77
843.14	216.00
843.46	215.99
843.77	215.82
844.08	215.79
844.40	215.70
844.71	215.69
845.03	215.66
845.34	215.64
845.65	215.63
845.97	215.60
846.28	215.62
846.60	215.59
846.91	215.53
847.22	215.52
847.54	215.54
847.85	215.58
848.16	215.57
848.48	215.54
848.79	215.63
849.10	215.63
849.42	215.62
849.73	215.38
850.04	215.36
850.36	215.30
850.67	215.33
850.98	215.35
851.30	215.35
851.61	215.35
851.92	215.36
852.23	215.40
852.55	215.41
852.86	215.41
853.17	215.44
853.49	215.46
853.80	215.48
854.11	215.48
854.42	215.50
854.74	215.46
855.05	215.45
855.36	215.29
855.67	215.31
855.99	215.33
856.30	215.61
856.61	215.58
856.92	215.61
857.23	215.58
857.55	215.56
857.86	215.54
858.17	215.59
858.48	215.54
858.79	215.50
859.11	215.53
859.42	215.52
859.73	215.48
860.04	215.47
860.35	215.42
860.66	215.37
860.98	215.33
861.29	215.39
861.60	215.40
861.91	215.45
862.22	215.41
862.53	215.36
862.84	215.11
863.16	215.15
863.47	215.12
863.78	215.12
864.09	215.17
864.40	215.16
864.71	215.15
865.02	215.18
865.33	215.18
865.64	215.11
865.95	215.13
866.27	215.30
866.58	215.29
866.89	215.31
867.20	215.32
867.51	215.31
867.82	215.32
868.13	215.36
868.44	215.31
868.75	215.36
869.06	215.37
869.37	215.37
869.68	215.34
869.99	215.37
870.30	215.38
870.61	215.35
870.92	215.35
871.23	215.34
871.54	215.36
871.85	215.39
872.16	215.44
872.47	215.43
872.78	215.29
873.09	215.30
873.40	215.30
873.71	215.30
874.02	215.28
874.33	215.22
874.64	215.16
874.95	215.22
875.26	215.18
875.56	215.17
875.87	215.18
876.18	215.16
876.49	215.36
876.80	215.34
877.11	215.29
877.42	215.29
877.73	215.29
878.04	215.29
878.35	215.27
878.66	215.26
878.96	215.24
879.27	215.19
879.58	215.19
879.89	215.17
880.20	215.22
880.51	215.22
880.82	215.24
881.12	215.28
881.43	215.24
881.74	215.21
882.05	215.20
882.36	215.19
882.67	215.21
882.97	214.96
883.28	214.94
883.59	214.94
883.90	214.97
884.21	214.95
884.51	214.89
884.82	214.87
885.13	214.86
885.44	214.88
885.74	214.88
886.05	214.89
886.36	214.92
886.67	214.83
886.98	214.94
887.28	214.98
887.59	214.93
887.90	214.93
888.20	214.92
888.51	214.94
888.82	214.89
889.13	214.89
889.43	215.06
889.74	215.06
890.05	215.08
890.35	215.06
890.66	215.04
890.97	215.07
891.28	215.05
891.58	215.06
891.89	215.03
892.20	215.00
892.50	214.94
892.81	214.93
893.12	214.95
893.42	214.85
893.73	214.83
894.04	214.86
894.34	214.88
894.65	214.87
894.95	214.83
895.26	214.88
895.57	214.99
895.87	214.80
896.18	214.83
896.48	214.83
896.79	214.82
897.10	214.86
897.40	214.86
897.71	214.90
898.01	214.87
898.32	214.89
898.63	214.92
898.93	214.94
899.24	214.93
899.54	214.89
899.85	214.86
900.15	214.87
900.46	214.87
900.76	214.89
901.07	214.89
901.38	214.91
901.68	214.93
901.99	214.81
902.29	214.84
902.60	214.80
902.90	214.74
903.21	214.76
903.51	214.74
903.82	214.77
904.12	214.79
904.43	214.80
904.73	214.80
905.03	214.79
905.34	215.00
905.64	214.99
905.95	214.98
906.25	215.00
906.56	214.97
906.86	214.96
907.17	214.95
907.47	214.96
907.77	214.94
908.08	214.89
908.38	214.88
908.69	214.91
908.99	214.96
909.30	215.02
909.60	214.97
909.90	214.98
910.21	214.92
910.51	214.87
910.81	214.89
911.12	214.87
911.42	214.91
911.73	214.67
912.03	214.71
912.33	214.77
912.64	214.78
912.94	214.78
913.24	214.74
913.55	214.75
913.85	214.75
914.15	214.78
914.46	214.82
914.76	214.78
915.06	214.73
915.37	214.70
915.67	214.66
915.97	214.70
916.27	214.66
916.58	214.67
916.88	214.66
917.18	214.62
917.49	214.77
917.79	214.78
918.09	214.83
918.39	214.87
918.70	214.86
919.00	214.87
919.30	214.97
919.60	214.95
919.91	214.92
920.21	214.90
920.51	214.84
920.81	214.84
921.12	214.94
921.42	214.94
921.72	214.99
922.02	215.02
922.32	215.07
922.63	215.10
922.93	215.21
923.23	215.23
923.53	215.19
923.83	215.06
924.13	215.05
924.44	215.03
924.74	215.09
925.04	215.10
925.34	215.06
925.64	214.94
925.94	214.94
926.24	215.03
926.55	215.03
926.85	215.06
927.15	215.05
927.45	215.01
927.75	215.00
928.05	214.96
928.35	214.93
928.65	214.96
928.95	214.96
929.26	214.87
929.56	214.89
929.86	214.95
930.16	214.95
930.46	214.95
930.76	214.95
931.06	214.85
931.36	214.81
931.66	214.86
931.96	214.90
932.26	214.94
932.56	214.85
932.86	214.82
933.16	214.83
933.46	214.81
933.76	214.80
934.06	214.87
934.36	214.93
934.66	214.97
934.96	214.93
935.26	214.94
935.56	214.98
935.86	214.95
936.16	214.89
936.46	214.85
936.76	214.83
937.06	214.81
937.36	214.78
937.66	214.79
937.96	214.78
938.26	214.74
938.56	214.70
938.86	214.74
939.16	214.81
939.46	214.82
939.76	214.86
940.06	214.87
940.35	214.81
940.65	214.72
940.95	214.71
941.25	214.62
941.55	214.58
941.85	214.54
942.15	214.58
942.45	214.66
942.75	214.70
943.04	214.67
943.34	214.71
943.64	214.70
943.94	214.69
944.24	214.67
944.54	214.70
944.84	214.70
945.13	214.68
945.43	214.64
945.73	214.62
946.03	214.61
946.33	214.54
946.62	214.53
946.92	214.51
947.22	214.52
947.52	214.54
947.82	214.59
948.11	214.56
948.41	214.51
948.71	214.47
949.01	214.44
949.31	214.47
949.60	214.44
949.90	214.51
950.20	214.45
950.50	214.49
950.79	214.46
951.09	214.51
951.39	214.49
951.69	214.47
951.98	214.52
952.28	214.53
952.58	214.55
952.87	214.55
953.17	214.59
953.47	214.59
953.76	214.61
954.06	214.56
954.36	214.54
954.66	214.58
954.95	214.61
955.25	214.62
955.55	214.62
955.84	214.59
956.14	214.60
956.44	214.67
956.73	214.62
957.03	214.66
957.32	214.63
957.62	214.66
957.92	214.70
958.21	214.65
958.51	214.87
958.81	214.88
959.10	214.89
959.40	214.92
959.69	214.93
959.99	214.95
960.29	214.96
960.58	214.98
960.88	215.02
961.17	214.99
961.47	215.04
961.76	215.03
962.06	215.06
962.36	215.05
962.65	215.07
962.95	215.07
963.24	215.04
963.54	215.09
963.83	215.07
964.13	215.05
964.42	215.00
964.72	214.85
965.01	214.88
965.31	214.89
965.60	214.89
965.90	215.01
966.19	214.97
966.49	215.00
966.78	214.98
967.08	214.95
967.37	214.95
967.67	214.88
967.96	214.94
968.26	214.93
968.55	214.93
968.85	214.92
969.14	214.91
969.43	214.90
969.73	214.84
970.02	214.84
970.32	214.85
970.61	214.87
970.91	214.82
971.20	214.78
971.49	214.74
971.79	214.73
972.08	214.59
972.38	214.62
972.67	214.60
972.96	214.63
973.26	214.62
973.55	214.70
973.85	214.73
974.14	214.69
974.43	214.72
974.73	214.66
975.02	214.64
975.31	214.67
975.61	214.65
975.90	214.65
976.19	214.66
976.49	214.65
976.78	214.65
977.07	214.65
977.37	214.67
977.66	214.70
977.95	214.66
978.24	214.66
978.54	214.68
978.83	214.66
979.12	214.64
979.42	214.63
979.71	214.60
980.00	214.59
980.29	214.59
980.59	214.54
980.88	214.59
981.17	214.58
981.46	214.60
981.76	214.61
982.05	214.67
982.34	214.65
982.63	214.67
982.93	214.69
983.22	214.74
983.51	214.77
983.80	214.79
984.09	214.82
984.39	214.83
984.68	214.81
984.97	214.84
985.26	214.83
985.55	214.84
985.85	214.79
986.14	214.81
986.43	214.84
986.72	214.85
987.01	214.82
987.30	214.83
987.59	214.81
987.89	214.84
988.18	214.76
988.47	214.75
988.76	214.72
989.05	214.71
989.34	214.68
989.63	214.73
989.92	214.70
990.22	214.70
990.51	214.71
990.80	214.70
991.09	214.70
991.38	214.74
991.67	214.72
991.96	214.69
992.25	214.70
992.54	214.66
992.83	214.65
993.12	214.63
993.41	214.68
993.70	214.77
993.99	214.80
994.28	214.82
994.58	214.84
994.87	214.81
995.16	214.80
995.45	214.76
995.74	214.68
996.03	214.67
996.32	214.67
996.61	214.68
996.90	214.65
997.19	214.63
997.48	214.62
997.77	214.61
998.06	214.63
998.34	214.62
998.63	214.60
998.92	214.63
999.21	214.66
999.50	214.65
999.79	214.57
1000.08	214.53
1000.37	214.55
1000.66	214.53
1000.95	214.59
1001.24	214.60
1001.53	214.63
1001.82	214.63
1002.11	214.60
1002.40	214.65
1002.68	214.71
1002.97	214.85
1003.26	214.85
1003.55	214.83
1003.84	214.82
1004.13	214.89
1004.42	214.88
1004.71	214.91
1004.99	214.91
1005.28	214.95
1005.57	214.94
1005.86	214.88
1006.15	214.88
1006.44	214.85
1006.72	214.86
1007.01	214.81
1007.30	214.82
1007.59	214.79
1007.88	214.76
1008.17	214.79
1008.45	214.73
1008.74	214.67
1009.03	214.59
1009.32	214.59
1009.60	214.58
1009.89	214.57
1010.18	214.50
1010.47	214.49
1010.76	214.49
1011.04	214.44
1011.33	214.42
1011.62	214.40
1011.91	214.45
1012.19	214.48
1012.48	214.50
1012.77	214.51
1013.05	214.66
1013.34	214.63
1013.63	214.63
1013.92	214.67
1014.20	214.65
1014.49	214.67
1014.78	214.68
1015.06	214.58
1015.35	214.58
1015.64	214.59
1015.92	214.61
1016.21	214.60
1016.50	214.61
1016.78	214.61
1017.07	214.65
1017.36	214.60
1017.64	214.60
1017.93	214.59
1018.22	214.57
1018.50	214.53
1018.79	214.52
1019.08	214.38
1019.36	214.37
1019.65	214.40
1019.93	214.46
1020.22	214.47
1020.51	214.58
1020.79	214.57
1021.08	214.46
1021.36	214.07
1021.65	214.40
1021.94	214.19
1022.22	214.01
1022.51	215.15
1022.79	215.60
1023.08	214.74
1023.36	217.09
1023.65	214.59
>>>>>End Processed Spectral Data<<<<<
