SpectraSuite Data File
++++++++++++++++++++++++++++++++++++
Date: Tue Jan 29 16:50:06 EST 2013
User: group
Dark Spectrum Present: No
Reference Spectrum Present: No
Number of Sampled Component Spectra: 1
Spectrometers: USB2E7196
Integration Time (usec): 65000 (USB2E7196)
Spectra Averaged: 100 (USB2E7196)
Boxcar Smoothing: 10 (USB2E7196)
Correct for Electrical Dark: No (USB2E7196)
Strobe/Lamp Enabled: No (USB2E7196)
Correct for Detector Non-linearity: No (USB2E7196)
Correct for Stray Light: No (USB2E7196)
Number of Pixels in Processed Spectrum: 2048
>>>>>Begin Processed Spectral Data<<<<<
339.09	0.00
339.48	201.50
339.86	202.91
340.24	204.44
340.63	205.59
341.01	210.21
341.39	208.27
341.78	210.63
342.16	211.25
342.54	211.49
342.93	200.74
343.31	210.88
343.69	211.45
344.07	211.93
344.46	212.40
344.84	212.82
345.22	213.00
345.60	213.28
345.99	213.47
346.37	213.62
346.75	213.74
347.13	213.82
347.52	213.89
347.90	214.00
348.28	214.03
348.66	214.14
349.05	214.12
349.43	214.23
349.81	214.32
350.19	214.37
350.57	214.45
350.96	214.54
351.34	214.66
351.72	214.75
352.10	214.85
352.48	214.90
352.87	214.93
353.25	215.01
353.63	215.06
354.01	215.11
354.39	215.17
354.77	215.23
355.15	215.36
355.54	215.41
355.92	215.42
356.30	215.52
356.68	215.74
357.06	215.80
357.44	215.79
357.82	215.85
358.20	215.95
358.58	216.00
358.97	216.10
359.35	216.18
359.73	216.28
360.11	216.31
360.49	216.35
360.87	216.44
361.25	216.51
361.63	216.63
362.01	216.69
362.39	216.74
362.77	216.79
363.15	216.83
363.53	216.88
363.91	216.92
364.29	216.93
364.67	216.74
365.05	216.79
365.43	216.84
365.81	216.85
366.19	216.92
366.57	217.02
366.95	216.97
367.33	216.92
367.71	216.91
368.09	216.96
368.47	216.99
368.85	217.00
369.23	217.05
369.61	216.95
369.99	216.99
370.37	217.00
370.75	217.11
371.13	217.01
371.51	216.97
371.89	216.97
372.27	216.96
372.65	216.94
373.03	216.92
373.41	216.87
373.78	216.82
374.16	216.68
374.54	216.58
374.92	216.55
375.30	216.50
375.68	216.43
376.06	216.41
376.44	216.35
376.82	216.26
377.19	216.19
377.57	216.14
377.95	216.05
378.33	215.97
378.71	215.78
379.09	215.77
379.47	215.76
379.84	215.67
380.22	215.56
380.60	215.52
380.98	215.45
381.36	215.40
381.73	215.34
382.11	215.35
382.49	215.30
382.87	215.24
383.25	215.23
383.62	215.43
384.00	215.32
384.38	215.30
384.76	215.32
385.13	215.37
385.51	215.33
385.89	215.24
386.27	215.24
386.64	215.27
387.02	215.23
387.40	215.18
387.78	215.18
388.15	215.20
388.53	215.15
388.91	215.14
389.29	215.11
389.66	215.14
390.04	215.09
390.42	215.10
390.79	215.07
391.17	215.04
391.55	214.76
391.92	214.80
392.30	214.82
392.68	214.75
393.05	214.71
393.43	214.71
393.81	214.74
394.18	214.71
394.56	214.70
394.94	214.79
395.31	214.76
395.69	214.82
396.06	214.84
396.44	214.90
396.82	214.87
397.19	215.04
397.57	215.08
397.95	215.13
398.32	215.08
398.70	215.17
399.07	215.28
399.45	215.34
399.82	215.39
400.20	215.40
400.58	215.48
400.95	215.47
401.33	215.57
401.70	215.79
402.08	215.88
402.45	215.97
402.83	216.09
403.20	216.23
403.58	216.29
403.95	216.46
404.33	216.59
404.71	216.78
405.08	217.01
405.46	217.18
405.83	217.35
406.21	217.56
406.58	217.81
406.96	218.06
407.33	218.33
407.70	218.62
408.08	219.07
408.45	219.42
408.83	219.80
409.20	220.16
409.58	220.44
409.95	220.90
410.33	221.40
410.70	221.82
411.08	222.38
411.45	222.99
411.82	223.58
412.20	224.28
412.57	225.12
412.95	225.69
413.32	226.51
413.69	227.36
414.07	228.26
414.44	229.26
414.82	230.27
415.19	231.44
415.56	232.66
415.94	233.86
416.31	235.27
416.68	236.69
417.06	238.33
417.43	239.88
417.81	241.63
418.18	243.41
418.55	245.36
418.93	247.38
419.30	249.49
419.67	251.72
420.04	254.00
420.42	256.38
420.79	259.22
421.16	262.01
421.54	264.97
421.91	268.02
422.28	271.15
422.66	274.46
423.03	277.72
423.40	281.09
423.77	284.73
424.15	288.44
424.52	292.27
424.89	296.46
425.26	300.57
425.64	304.47
426.01	308.78
426.38	313.26
426.75	317.87
427.13	322.63
427.50	327.59
427.87	332.82
428.24	338.03
428.61	343.05
428.99	348.57
429.36	354.56
429.73	360.49
430.10	366.35
430.47	372.46
430.85	378.80
431.22	385.51
431.59	392.60
431.96	399.43
432.33	406.97
432.70	414.21
433.08	422.79
433.45	430.90
433.82	438.96
434.19	447.91
434.56	456.58
434.93	464.94
435.30	473.27
435.68	482.39
436.05	491.42
436.42	500.35
436.79	508.52
437.16	517.35
437.53	526.63
437.90	535.77
438.27	544.73
438.64	553.99
439.01	562.60
439.38	570.23
439.75	577.57
440.13	585.99
440.50	593.99
440.87	600.43
441.24	607.07
441.61	614.41
441.98	619.73
442.35	626.15
442.72	632.46
443.09	638.56
443.46	642.38
443.83	645.00
444.20	647.20
444.57	650.46
444.94	651.97
445.31	653.44
445.68	654.95
446.05	655.58
446.42	654.82
446.79	653.84
447.16	652.78
447.53	652.05
447.90	648.83
448.27	645.58
448.64	640.99
449.01	637.73
449.37	631.86
449.74	626.23
450.11	619.28
450.48	611.90
450.85	604.48
451.22	597.95
451.59	591.72
451.96	585.84
452.33	577.92
452.70	570.78
453.07	562.26
453.43	553.56
453.80	545.23
454.17	537.24
454.54	529.62
454.91	521.39
455.28	513.35
455.65	505.85
456.02	498.31
456.38	491.88
456.75	483.93
457.12	477.29
457.49	470.76
457.86	464.52
458.23	459.12
458.59	453.09
458.96	447.07
459.33	441.71
459.70	436.31
460.07	432.03
460.43	427.06
460.80	422.47
461.17	418.45
461.54	414.18
461.91	410.14
462.27	406.02
462.64	402.62
463.01	398.84
463.38	395.12
463.74	391.36
464.11	388.12
464.48	385.24
464.85	382.14
465.21	379.69
465.58	377.07
465.95	373.92
466.32	371.29
466.68	368.68
467.05	366.10
467.42	363.52
467.78	360.82
468.15	358.24
468.52	356.28
468.88	353.79
469.25	351.63
469.62	349.75
469.98	347.81
470.35	345.96
470.72	344.23
471.08	342.40
471.45	340.90
471.82	339.31
472.18	337.66
472.55	336.44
472.92	335.00
473.28	333.72
473.65	332.55
474.02	331.43
474.38	330.54
474.75	329.74
475.11	328.95
475.48	328.34
475.85	327.90
476.21	327.41
476.58	327.05
476.94	326.78
477.31	326.49
477.67	326.21
478.04	326.04
478.41	325.98
478.77	326.13
479.14	326.08
479.50	326.16
479.87	326.43
480.23	326.74
480.60	326.98
480.96	327.25
481.33	327.85
481.69	328.41
482.06	328.92
482.42	329.40
482.79	329.96
483.15	330.77
483.52	331.72
483.88	332.60
484.25	333.54
484.61	334.55
484.98	335.63
485.34	336.96
485.71	338.27
486.07	339.67
486.44	341.03
486.80	342.60
487.17	344.31
487.53	346.11
487.90	347.97
488.26	350.01
488.62	352.21
488.99	354.23
489.35	356.38
489.72	358.76
490.08	361.31
490.44	363.85
490.81	366.56
491.17	369.23
491.54	372.19
491.90	375.19
492.26	378.45
492.63	381.79
492.99	385.22
493.36	388.92
493.72	392.79
494.08	396.76
494.45	401.00
494.81	405.40
495.17	409.83
495.54	414.52
495.90	419.37
496.26	424.30
496.63	429.51
496.99	434.93
497.35	440.49
497.72	446.25
498.08	452.21
498.44	458.22
498.80	464.65
499.17	471.19
499.53	477.88
499.89	484.79
500.26	491.78
500.62	498.86
500.98	506.28
501.34	513.79
501.71	521.56
502.07	529.33
502.43	537.32
502.79	545.47
503.16	553.87
503.52	562.45
503.88	571.13
504.24	580.08
504.60	589.11
504.97	598.33
505.33	607.54
505.69	617.42
506.05	627.36
506.41	637.19
506.78	647.24
507.14	657.50
507.50	667.85
507.86	678.57
508.22	689.31
508.59	699.95
508.95	710.92
509.31	722.10
509.67	733.58
510.03	744.87
510.39	756.53
510.75	768.27
511.12	780.10
511.48	792.15
511.84	804.27
512.20	816.61
512.56	829.25
512.92	842.18
513.28	854.65
513.64	867.37
514.00	880.18
514.37	893.13
514.73	906.17
515.09	919.23
515.45	932.09
515.81	945.17
516.17	958.56
516.53	971.89
516.89	985.03
517.25	998.11
517.61	1011.75
517.97	1025.22
518.33	1038.49
518.69	1052.13
519.05	1065.87
519.41	1079.66
519.77	1093.63
520.13	1106.96
520.49	1120.18
520.85	1133.69
521.21	1147.00
521.57	1160.75
521.93	1173.82
522.29	1187.68
522.65	1201.18
523.01	1214.80
523.37	1228.03
523.73	1241.46
524.09	1254.63
524.45	1268.14
524.81	1281.75
525.17	1295.15
525.53	1308.33
525.89	1321.59
526.25	1334.62
526.61	1347.55
526.97	1360.73
527.33	1373.62
527.68	1386.99
528.04	1400.44
528.40	1413.62
528.76	1427.10
529.12	1439.80
529.48	1453.21
529.84	1465.48
530.20	1478.34
530.56	1490.82
530.91	1504.16
531.27	1517.00
531.63	1529.76
531.99	1542.53
532.35	1554.81
532.71	1567.29
533.07	1580.32
533.42	1592.57
533.78	1604.94
534.14	1617.05
534.50	1628.29
534.86	1639.97
535.21	1650.99
535.57	1662.62
535.93	1673.96
536.29	1685.02
536.65	1696.81
537.00	1707.77
537.36	1719.24
537.72	1730.36
538.08	1742.05
538.44	1753.11
538.79	1764.22
539.15	1775.42
539.51	1786.31
539.87	1797.74
540.22	1808.61
540.58	1819.57
540.94	1830.76
541.29	1841.03
541.65	1850.94
542.01	1861.51
542.37	1871.62
542.72	1881.83
543.08	1891.62
543.44	1902.16
543.79	1911.58
544.15	1920.98
544.51	1930.97
544.87	1940.92
545.22	1950.21
545.58	1959.13
545.94	1967.98
546.29	1976.44
546.65	1984.65
547.01	1992.80
547.36	2000.49
547.72	2008.35
548.07	2015.95
548.43	2023.61
548.79	2031.57
549.14	2039.69
549.50	2048.27
549.86	2056.13
550.21	2063.60
550.57	2071.35
550.92	2078.20
551.28	2085.86
551.64	2093.23
551.99	2100.80
552.35	2108.06
552.70	2114.88
553.06	2121.57
553.41	2128.04
553.77	2134.70
554.13	2141.15
554.48	2148.28
554.84	2155.50
555.19	2162.01
555.55	2168.54
555.90	2174.88
556.26	2181.59
556.61	2187.83
556.97	2192.60
557.32	2198.33
557.68	2204.81
558.03	2210.48
558.39	2215.81
558.74	2221.71
559.10	2227.20
559.45	2232.79
559.81	2238.27
560.16	2243.91
560.52	2249.81
560.87	2256.10
561.23	2261.88
561.58	2268.60
561.94	2273.94
562.29	2278.55
562.64	2284.49
563.00	2290.08
563.35	2295.57
563.71	2301.13
564.06	2306.73
564.42	2312.66
564.77	2317.75
565.12	2322.99
565.48	2328.07
565.83	2333.37
566.19	2338.62
566.54	2343.80
566.89	2348.25
567.25	2352.72
567.60	2358.37
567.96	2363.24
568.31	2367.63
568.66	2371.90
569.02	2375.69
569.37	2379.13
569.72	2383.45
570.08	2386.84
570.43	2389.84
570.78	2392.84
571.14	2395.32
571.49	2398.18
571.84	2401.49
572.20	2404.38
572.55	2407.14
572.90	2409.33
573.26	2412.14
573.61	2414.55
573.96	2416.75
574.31	2418.70
574.67	2420.42
575.02	2421.01
575.37	2422.48
575.72	2423.05
576.08	2424.29
576.43	2424.08
576.78	2424.46
577.13	2425.71
577.49	2426.79
577.84	2427.70
578.19	2428.84
578.54	2429.28
578.90	2429.92
579.25	2429.75
579.60	2429.38
579.95	2428.51
580.30	2428.36
580.66	2427.47
581.01	2425.67
581.36	2423.00
581.71	2421.46
582.06	2420.24
582.42	2419.28
582.77	2416.85
583.12	2415.12
583.47	2413.51
583.82	2412.73
584.17	2411.21
584.53	2408.99
584.88	2406.70
585.23	2404.55
585.58	2402.04
585.93	2399.95
586.28	2397.50
586.63	2394.89
586.98	2392.53
587.34	2390.34
587.69	2387.72
588.04	2385.38
588.39	2383.70
588.74	2381.04
589.09	2378.06
589.44	2374.51
589.79	2371.67
590.14	2369.27
590.49	2366.20
590.84	2362.23
591.19	2359.03
591.54	2355.65
591.89	2351.59
592.25	2348.21
592.60	2343.86
592.95	2339.58
593.30	2335.27
593.65	2330.87
594.00	2326.30
594.35	2323.17
594.70	2318.49
595.05	2314.02
595.40	2308.47
595.75	2302.61
596.10	2299.04
596.45	2294.11
596.80	2289.63
597.15	2284.44
597.50	2278.69
597.85	2273.71
598.19	2268.51
598.54	2262.71
598.89	2257.37
599.24	2252.58
599.59	2246.33
599.94	2240.49
600.29	2234.49
600.64	2228.48
600.99	2221.49
601.34	2215.96
601.69	2209.15
602.04	2202.68
602.39	2195.82
602.74	2189.88
603.08	2184.35
603.43	2177.74
603.78	2170.90
604.13	2163.75
604.48	2156.40
604.83	2150.26
605.18	2144.08
605.53	2137.27
605.87	2130.26
606.22	2123.63
606.57	2115.62
606.92	2107.62
607.27	2100.68
607.62	2094.13
607.96	2087.21
608.31	2080.90
608.66	2073.12
609.01	2065.33
609.36	2058.26
609.70	2050.69
610.05	2042.67
610.40	2034.27
610.75	2025.90
611.10	2018.14
611.44	2009.30
611.79	2000.66
612.14	1990.70
612.49	1980.00
612.83	1970.58
613.18	1961.17
613.53	1951.77
613.88	1942.36
614.22	1933.84
614.57	1923.99
614.92	1913.34
615.27	1903.04
615.61	1892.84
615.96	1883.22
616.31	1873.63
616.65	1864.03
617.00	1854.39
617.35	1844.85
617.70	1835.22
618.04	1825.22
618.39	1815.32
618.74	1805.81
619.08	1796.08
619.43	1787.36
619.78	1779.13
620.12	1770.68
620.47	1761.37
620.82	1751.18
621.16	1741.51
621.51	1731.71
621.85	1721.98
622.20	1711.80
622.55	1701.45
622.89	1691.60
623.24	1682.01
623.59	1672.34
623.93	1662.50
624.28	1652.79
624.62	1642.77
624.97	1632.65
625.32	1623.16
625.66	1614.22
626.01	1605.39
626.35	1596.42
626.70	1586.53
627.04	1576.57
627.39	1566.35
627.73	1557.15
628.08	1548.32
628.43	1538.81
628.77	1529.68
629.12	1520.86
629.46	1513.12
629.81	1504.95
630.15	1495.63
630.50	1485.86
630.84	1475.48
631.19	1465.53
631.53	1456.30
631.88	1446.37
632.22	1436.53
632.57	1427.15
632.91	1417.16
633.26	1407.39
633.60	1397.77
633.95	1388.61
634.29	1379.20
634.64	1370.08
634.98	1360.15
635.32	1350.86
635.67	1342.60
636.01	1333.35
636.36	1323.76
636.70	1314.33
637.05	1304.92
637.39	1296.11
637.73	1287.59
638.08	1280.15
638.42	1272.21
638.77	1263.47
639.11	1255.22
639.45	1247.47
639.80	1238.97
640.14	1230.32
640.49	1221.55
640.83	1212.72
641.17	1204.55
641.52	1196.57
641.86	1188.14
642.20	1180.42
642.55	1171.96
642.89	1163.08
643.23	1154.56
643.58	1146.58
643.92	1137.64
644.26	1129.05
644.61	1120.65
644.95	1111.90
645.29	1102.79
645.64	1093.67
645.98	1085.18
646.32	1077.41
646.66	1068.97
647.01	1060.75
647.35	1052.69
647.69	1044.50
648.04	1036.39
648.38	1027.67
648.72	1019.07
649.06	1010.65
649.41	1002.41
649.75	994.57
650.09	986.81
650.43	978.81
650.78	970.45
651.12	962.71
651.46	955.34
651.80	948.22
652.14	940.99
652.49	933.41
652.83	926.15
653.17	918.62
653.51	910.98
653.85	903.73
654.20	896.65
654.54	889.29
654.88	882.08
655.22	874.87
655.56	867.88
655.90	861.06
656.25	854.34
656.59	847.54
656.93	840.49
657.27	833.43
657.61	826.49
657.95	820.46
658.29	814.63
658.64	808.59
658.98	802.00
659.32	795.50
659.66	789.37
660.00	783.01
660.34	776.98
660.68	771.00
661.02	764.69
661.36	758.55
661.70	752.70
662.05	747.13
662.39	741.72
662.73	736.31
663.07	730.83
663.41	725.27
663.75	719.56
664.09	713.94
664.43	708.47
664.77	703.14
665.11	697.30
665.45	691.38
665.79	685.56
666.13	679.88
666.47	674.38
666.81	668.91
667.15	663.52
667.49	658.25
667.83	652.94
668.17	647.72
668.51	642.63
668.85	637.67
669.19	632.76
669.53	627.62
669.87	622.53
670.21	617.80
670.55	613.10
670.89	608.59
671.23	604.24
671.57	599.80
671.91	595.47
672.25	591.29
672.58	587.15
672.92	583.09
673.26	579.16
673.60	575.29
673.94	571.47
674.28	567.85
674.62	564.16
674.96	560.38
675.30	556.83
675.64	553.22
675.97	549.65
676.31	546.01
676.65	542.49
676.99	539.09
677.33	535.29
677.67	531.64
678.01	527.82
678.34	524.16
678.68	520.58
679.02	517.04
679.36	513.38
679.70	509.75
680.04	506.14
680.37	502.71
680.71	499.34
681.05	496.14
681.39	492.87
681.73	489.69
682.06	486.65
682.40	483.55
682.74	480.38
683.08	477.14
683.42	473.95
683.75	470.90
684.09	467.80
684.43	464.97
684.77	461.97
685.10	459.12
685.44	456.17
685.78	453.31
686.12	450.48
686.45	447.68
686.79	444.98
687.13	442.42
687.46	439.71
687.80	437.04
688.14	434.15
688.48	431.52
688.81	428.79
689.15	426.15
689.49	423.53
689.82	420.92
690.16	418.26
690.50	415.78
690.83	413.34
691.17	410.79
691.51	408.22
691.84	405.92
692.18	403.65
692.52	401.40
692.85	399.20
693.19	397.04
693.52	394.89
693.86	392.66
694.20	390.47
694.53	388.32
694.87	386.09
695.21	383.93
695.54	381.69
695.88	379.45
696.21	377.24
696.55	375.08
696.88	373.02
697.22	371.05
697.56	369.16
697.89	367.15
698.23	365.35
698.56	363.57
698.90	361.83
699.23	359.93
699.57	358.05
699.90	356.18
700.24	354.32
700.58	352.52
700.91	350.79
701.25	349.20
701.58	347.62
701.92	345.98
702.25	344.41
702.59	342.80
702.92	341.26
703.26	339.70
703.59	338.17
703.93	336.89
704.26	335.43
704.60	333.88
704.93	332.39
705.26	330.87
705.60	329.36
705.93	327.79
706.27	326.44
706.60	325.17
706.94	323.93
707.27	322.57
707.61	321.19
707.94	319.83
708.27	318.27
708.61	316.75
708.94	315.36
709.28	314.00
709.61	312.73
709.94	311.52
710.28	310.30
710.61	309.11
710.95	307.67
711.28	306.59
711.61	305.39
711.95	304.22
712.28	303.02
712.61	301.80
712.95	300.72
713.28	299.66
713.61	298.46
713.95	297.26
714.28	296.19
714.61	295.14
714.95	294.13
715.28	293.11
715.61	292.12
715.95	291.15
716.28	290.17
716.61	289.21
716.95	288.15
717.28	287.24
717.61	286.27
717.94	285.35
718.28	284.30
718.61	283.37
718.94	282.48
719.27	281.61
719.61	280.81
719.94	279.95
720.27	278.91
720.60	278.03
720.94	277.25
721.27	276.47
721.60	275.76
721.93	274.97
722.27	274.30
722.60	273.60
722.93	272.87
723.26	272.19
723.59	271.47
723.93	270.84
724.26	270.13
724.59	269.47
724.92	268.86
725.25	268.32
725.59	267.78
725.92	267.25
726.25	266.69
726.58	266.09
726.91	265.46
727.24	264.96
727.57	264.43
727.91	263.81
728.24	263.27
728.57	262.68
728.90	262.16
729.23	261.53
729.56	261.07
729.89	260.53
730.22	259.95
730.55	259.39
730.89	258.87
731.22	258.33
731.55	257.82
731.88	257.25
732.21	256.65
732.54	256.09
732.87	255.52
733.20	255.03
733.53	254.54
733.86	254.09
734.19	253.57
734.52	253.14
734.85	252.85
735.18	252.35
735.51	251.98
735.84	251.51
736.17	251.13
736.50	250.59
736.83	250.45
737.16	250.07
737.49	249.68
737.82	249.24
738.15	248.88
738.48	248.48
738.81	248.11
739.14	247.74
739.47	247.34
739.80	246.97
740.13	246.62
740.46	246.23
740.79	245.81
741.12	245.44
741.45	245.05
741.78	244.58
742.11	244.31
742.44	243.90
742.77	243.59
743.10	243.23
743.43	242.88
743.75	242.30
744.08	242.22
744.41	241.87
744.74	241.53
745.07	241.11
745.40	240.84
745.73	240.56
746.06	240.21
746.39	239.92
746.71	239.55
747.04	239.18
747.37	238.82
747.70	238.55
748.03	238.24
748.36	237.96
748.68	237.67
749.01	237.29
749.34	236.97
749.67	236.67
750.00	236.41
750.33	236.29
750.65	236.03
750.98	235.48
751.31	235.23
751.64	235.00
751.97	234.88
752.29	234.58
752.62	234.27
752.95	233.99
753.28	233.68
753.60	233.48
753.93	233.29
754.26	233.08
754.59	232.84
754.91	232.60
755.24	232.36
755.57	232.09
755.90	231.86
756.22	231.65
756.55	231.44
756.88	231.15
757.20	230.80
757.53	230.54
757.86	230.34
758.19	230.15
758.51	229.95
758.84	229.62
759.17	229.41
759.49	229.22
759.82	229.16
760.15	228.98
760.47	228.77
760.80	228.56
761.13	228.43
761.45	228.20
761.78	228.04
762.11	227.85
762.43	227.67
762.76	227.48
763.08	227.32
763.41	227.15
763.74	227.04
764.06	226.87
764.39	226.71
764.71	226.54
765.04	226.35
765.37	226.16
765.69	226.05
766.02	225.89
766.34	225.74
766.67	225.51
767.00	225.41
767.32	225.39
767.65	225.34
767.97	225.19
768.30	225.09
768.62	224.98
768.95	224.84
769.27	224.71
769.60	224.63
769.92	224.46
770.25	224.32
770.57	224.15
770.90	224.07
771.22	223.93
771.55	223.82
771.87	223.72
772.20	223.63
772.52	223.67
772.85	223.82
773.17	223.71
773.50	223.60
773.82	223.49
774.15	223.26
774.47	223.06
774.80	222.92
775.12	222.80
775.45	222.67
775.77	222.59
776.09	222.52
776.42	222.45
776.74	222.45
777.07	222.31
777.39	222.23
777.72	222.08
778.04	222.04
778.36	221.91
778.69	221.86
779.01	221.77
779.33	221.48
779.66	221.18
779.98	221.08
780.31	221.03
780.63	221.03
780.95	221.00
781.28	220.89
781.60	220.81
781.92	220.74
782.25	220.69
782.57	220.62
782.89	220.55
783.22	220.43
783.54	220.30
783.86	220.31
784.19	220.23
784.51	220.26
784.83	220.17
785.16	220.14
785.48	220.08
785.80	220.04
786.12	220.01
786.45	219.93
786.77	219.88
787.09	219.79
787.42	219.65
787.74	219.60
788.06	219.58
788.38	219.52
788.71	219.47
789.03	219.41
789.35	219.39
789.67	219.28
789.99	219.26
790.32	219.20
790.64	219.16
790.96	219.28
791.28	219.14
791.61	219.08
791.93	219.04
792.25	218.97
792.57	219.06
792.89	218.98
793.21	218.93
793.54	218.86
793.86	218.80
794.18	218.79
794.50	218.66
794.82	218.61
795.14	218.61
795.47	218.61
795.79	218.56
796.11	218.45
796.43	218.40
796.75	218.34
797.07	218.30
797.39	218.23
797.71	218.05
798.04	218.04
798.36	218.00
798.68	217.96
799.00	217.94
799.32	217.79
799.64	217.76
799.96	217.74
800.28	217.76
800.60	217.70
800.92	217.67
801.24	217.67
801.56	217.66
801.89	217.59
802.21	217.53
802.53	217.47
802.85	217.51
803.17	217.57
803.49	217.50
803.81	217.41
804.13	217.40
804.45	217.35
804.77	217.32
805.09	217.28
805.41	217.18
805.73	217.10
806.05	217.03
806.37	217.02
806.69	216.94
807.01	216.87
807.33	216.88
807.65	216.76
807.97	216.82
808.28	216.77
808.60	216.71
808.92	216.68
809.24	216.78
809.56	216.72
809.88	216.66
810.20	216.64
810.52	216.67
810.84	216.61
811.16	216.56
811.48	216.53
811.80	216.60
812.12	216.59
812.43	216.60
812.75	216.58
813.07	216.54
813.39	216.55
813.71	216.53
814.03	216.49
814.35	216.48
814.67	216.39
814.98	216.36
815.30	216.36
815.62	216.29
815.94	216.12
816.26	216.10
816.58	216.03
816.89	216.05
817.21	216.02
817.53	216.01
817.85	215.99
818.17	215.98
818.48	215.88
818.80	215.91
819.12	215.87
819.44	215.82
819.76	215.76
820.07	215.73
820.39	215.71
820.71	215.70
821.03	215.69
821.34	215.65
821.66	215.62
821.98	215.60
822.30	215.61
822.61	215.72
822.93	215.71
823.25	215.68
823.57	215.61
823.88	215.61
824.20	215.57
824.52	215.60
824.83	215.59
825.15	215.54
825.47	215.53
825.79	215.53
826.10	215.52
826.42	215.49
826.74	215.51
827.05	215.51
827.37	215.50
827.69	215.49
828.00	215.48
828.32	215.48
828.64	215.44
828.95	215.51
829.27	215.44
829.58	215.41
829.90	215.43
830.22	215.43
830.53	215.41
830.85	215.42
831.17	215.34
831.48	215.30
831.80	215.31
832.11	215.26
832.43	215.22
832.75	215.20
833.06	215.36
833.38	215.30
833.69	215.25
834.01	215.26
834.32	215.24
834.64	215.22
834.96	215.20
835.27	215.21
835.59	215.17
835.90	215.13
836.22	215.12
836.53	215.09
836.85	215.09
837.16	215.26
837.48	215.22
837.79	215.27
838.11	215.25
838.42	215.23
838.74	215.26
839.05	215.25
839.37	215.27
839.68	215.11
840.00	215.07
840.31	215.13
840.63	215.06
840.94	215.08
841.26	215.02
841.57	215.03
841.88	215.03
842.20	214.99
842.51	214.94
842.83	214.91
843.14	215.09
843.46	215.06
843.77	214.95
844.08	214.96
844.40	214.89
844.71	214.86
845.03	214.84
845.34	214.81
845.65	214.80
845.97	214.79
846.28	214.79
846.60	214.80
846.91	214.73
847.22	214.73
847.54	214.75
847.85	214.79
848.16	214.75
848.48	214.74
848.79	214.81
849.10	214.86
849.42	214.88
849.73	214.68
850.04	214.69
850.36	214.61
850.67	214.64
850.98	214.67
851.30	214.71
851.61	214.72
851.92	214.73
852.23	214.80
852.55	214.79
852.86	214.80
853.17	214.81
853.49	214.85
853.80	214.90
854.11	214.85
854.42	214.89
854.74	214.86
855.05	214.86
855.36	214.74
855.67	214.70
855.99	214.71
856.30	214.95
856.61	214.93
856.92	214.93
857.23	214.91
857.55	214.88
857.86	214.85
858.17	214.86
858.48	214.80
858.79	214.75
859.11	214.77
859.42	214.78
859.73	214.75
860.04	214.76
860.35	214.71
860.66	214.70
860.98	214.68
861.29	214.71
861.60	214.66
861.91	214.71
862.22	214.70
862.53	214.66
862.84	214.40
863.16	214.48
863.47	214.44
863.78	214.42
864.09	214.41
864.40	214.44
864.71	214.42
865.02	214.47
865.33	214.44
865.64	214.40
865.95	214.37
866.27	214.54
866.58	214.48
866.89	214.51
867.20	214.51
867.51	214.45
867.82	214.43
868.13	214.50
868.44	214.43
868.75	214.45
869.06	214.45
869.37	214.48
869.68	214.39
869.99	214.43
870.30	214.45
870.61	214.47
870.92	214.41
871.23	214.37
871.54	214.36
871.85	214.42
872.16	214.43
872.47	214.40
872.78	214.26
873.09	214.28
873.40	214.24
873.71	214.24
874.02	214.27
874.33	214.26
874.64	214.21
874.95	214.25
875.26	214.21
875.56	214.21
875.87	214.19
876.18	214.18
876.49	214.39
876.80	214.37
877.11	214.33
877.42	214.34
877.73	214.35
878.04	214.36
878.35	214.34
878.66	214.32
878.96	214.31
879.27	214.27
879.58	214.25
879.89	214.24
880.20	214.29
880.51	214.24
880.82	214.23
881.12	214.26
881.43	214.21
881.74	214.19
882.05	214.18
882.36	214.21
882.67	214.21
882.97	213.95
883.28	213.89
883.59	213.89
883.90	213.93
884.21	213.96
884.51	213.93
884.82	213.88
885.13	213.87
885.44	213.91
885.74	213.94
886.05	213.95
886.36	213.94
886.67	213.84
886.98	213.98
887.28	214.01
887.59	213.99
887.90	214.01
888.20	214.01
888.51	214.05
888.82	214.01
889.13	214.04
889.43	214.23
889.74	214.27
890.05	214.27
890.35	214.25
890.66	214.20
890.97	214.17
891.28	214.15
891.58	214.20
891.89	214.19
892.20	214.16
892.50	214.13
892.81	214.13
893.12	214.14
893.42	214.04
893.73	214.05
894.04	214.04
894.34	214.03
894.65	214.03
894.95	213.98
895.26	213.99
895.57	214.07
895.87	213.88
896.18	213.90
896.48	213.91
896.79	213.91
897.10	213.95
897.40	213.99
897.71	214.02
898.01	213.99
898.32	214.01
898.63	213.97
898.93	214.00
899.24	214.00
899.54	214.01
899.85	214.01
900.15	213.95
900.46	214.00
900.76	214.03
901.07	214.03
901.38	214.06
901.68	214.08
901.99	213.98
902.29	214.00
902.60	213.98
902.90	213.95
903.21	213.94
903.51	213.93
903.82	213.96
904.12	213.97
904.43	214.01
904.73	214.00
905.03	214.06
905.34	214.24
905.64	214.25
905.95	214.24
906.25	214.25
906.56	214.28
906.86	214.24
907.17	214.22
907.47	214.22
907.77	214.18
908.08	214.14
908.38	214.15
908.69	214.19
908.99	214.25
909.30	214.24
909.60	214.22
909.90	214.22
910.21	214.18
910.51	214.15
910.81	214.14
911.12	214.14
911.42	214.14
911.73	213.97
912.03	213.94
912.33	213.99
912.64	213.97
912.94	213.97
913.24	213.94
913.55	213.94
913.85	213.93
914.15	213.98
914.46	214.02
914.76	214.03
915.06	213.97
915.37	213.90
915.67	213.92
915.97	213.93
916.27	213.90
916.58	213.88
916.88	213.88
917.18	213.86
917.49	214.00
917.79	213.98
918.09	214.00
918.39	214.10
918.70	214.10
919.00	214.09
919.30	214.18
919.60	214.19
919.91	214.15
920.21	214.18
920.51	214.11
920.81	214.09
921.12	214.09
921.42	214.12
921.72	214.14
922.02	214.16
922.32	214.24
922.63	214.24
922.93	214.38
923.23	214.39
923.53	214.37
923.83	214.21
924.13	214.22
924.44	214.21
924.74	214.21
925.04	214.30
925.34	214.33
925.64	214.24
925.94	214.24
926.24	214.38
926.55	214.32
926.85	214.37
927.15	214.40
927.45	214.40
927.75	214.40
928.05	214.41
928.35	214.37
928.65	214.38
928.95	214.42
929.26	214.32
929.56	214.38
929.86	214.43
930.16	214.43
930.46	214.43
930.76	214.44
931.06	214.33
931.36	214.23
931.66	214.24
931.96	214.26
932.26	214.26
932.56	214.14
932.86	214.18
933.16	214.19
933.46	214.14
933.76	214.08
934.06	214.10
934.36	214.14
934.66	214.14
934.96	214.09
935.26	214.08
935.56	214.12
935.86	214.05
936.16	213.99
936.46	213.99
936.76	213.96
937.06	213.92
937.36	213.95
937.66	213.95
937.96	213.92
938.26	213.87
938.56	213.88
938.86	213.89
939.16	213.91
939.46	213.91
939.76	213.94
940.06	213.95
940.35	213.90
940.65	213.81
940.95	213.81
941.25	213.72
941.55	213.68
941.85	213.62
942.15	213.65
942.45	213.72
942.75	213.73
943.04	213.74
943.34	213.75
943.64	213.74
943.94	213.68
944.24	213.69
944.54	213.70
944.84	213.69
945.13	213.68
945.43	213.67
945.73	213.64
946.03	213.62
946.33	213.63
946.62	213.61
946.92	213.61
947.22	213.65
947.52	213.69
947.82	213.72
948.11	213.69
948.41	213.64
948.71	213.57
949.01	213.57
949.31	213.57
949.60	213.59
949.90	213.62
950.20	213.64
950.50	213.64
950.79	213.64
951.09	213.69
951.39	213.65
951.69	213.62
951.98	213.69
952.28	213.70
952.58	213.69
952.87	213.73
953.17	213.75
953.47	213.73
953.76	213.71
954.06	213.69
954.36	213.67
954.66	213.67
954.95	213.71
955.25	213.70
955.55	213.72
955.84	213.65
956.14	213.65
956.44	213.67
956.73	213.64
957.03	213.65
957.32	213.63
957.62	213.64
957.92	213.69
958.21	213.64
958.51	213.89
958.81	213.92
959.10	213.94
959.40	213.97
959.69	213.98
959.99	214.06
960.29	214.08
960.58	214.10
960.88	214.17
961.17	214.16
961.47	214.19
961.76	214.17
962.06	214.22
962.36	214.19
962.65	214.21
962.95	214.20
963.24	214.15
963.54	214.16
963.83	214.17
964.13	214.19
964.42	214.15
964.72	213.97
965.01	213.98
965.31	213.97
965.60	213.93
965.90	214.05
966.19	214.01
966.49	213.99
966.78	213.98
967.08	213.95
967.37	213.94
967.67	213.92
967.96	213.94
968.26	213.93
968.55	213.97
968.85	213.97
969.14	213.98
969.43	214.02
969.73	213.99
970.02	213.97
970.32	213.95
970.61	213.93
970.91	213.84
971.20	213.79
971.49	213.77
971.79	213.80
972.08	213.68
972.38	213.65
972.67	213.65
972.96	213.68
973.26	213.67
973.55	213.74
973.85	213.73
974.14	213.72
974.43	213.73
974.73	213.69
975.02	213.63
975.31	213.64
975.61	213.63
975.90	213.60
976.19	213.57
976.49	213.56
976.78	213.58
977.07	213.59
977.37	213.61
977.66	213.61
977.95	213.54
978.24	213.53
978.54	213.60
978.83	213.57
979.12	213.56
979.42	213.54
979.71	213.48
980.00	213.45
980.29	213.48
980.59	213.45
980.88	213.53
981.17	213.56
981.46	213.55
981.76	213.55
982.05	213.63
982.34	213.65
982.63	213.65
982.93	213.69
983.22	213.73
983.51	213.73
983.80	213.78
984.09	213.82
984.39	213.85
984.68	213.81
984.97	213.82
985.26	213.77
985.55	213.77
985.85	213.74
986.14	213.78
986.43	213.82
986.72	213.80
987.01	213.74
987.30	213.72
987.59	213.69
987.89	213.71
988.18	213.65
988.47	213.66
988.76	213.65
989.05	213.61
989.34	213.57
989.63	213.61
989.92	213.58
990.22	213.53
990.51	213.51
990.80	213.46
991.09	213.48
991.38	213.55
991.67	213.59
991.96	213.58
992.25	213.61
992.54	213.55
992.83	213.55
993.12	213.51
993.41	213.51
993.70	213.62
993.99	213.66
994.28	213.67
994.58	213.71
994.87	213.68
995.16	213.70
995.45	213.71
995.74	213.65
996.03	213.67
996.32	213.73
996.61	213.75
996.90	213.77
997.19	213.77
997.48	213.75
997.77	213.72
998.06	213.70
998.34	213.65
998.63	213.63
998.92	213.63
999.21	213.65
999.50	213.68
999.79	213.60
1000.08	213.56
1000.37	213.57
1000.66	213.51
1000.95	213.59
1001.24	213.56
1001.53	213.59
1001.82	213.62
1002.11	213.57
1002.40	213.58
1002.68	213.62
1002.97	213.78
1003.26	213.73
1003.55	213.73
1003.84	213.71
1004.13	213.78
1004.42	213.79
1004.71	213.80
1004.99	213.79
1005.28	213.85
1005.57	213.82
1005.86	213.78
1006.15	213.78
1006.44	213.76
1006.72	213.78
1007.01	213.75
1007.30	213.75
1007.59	213.75
1007.88	213.73
1008.17	213.72
1008.45	213.69
1008.74	213.61
1009.03	213.52
1009.32	213.52
1009.60	213.51
1009.89	213.51
1010.18	213.43
1010.47	213.44
1010.76	213.46
1011.04	213.47
1011.33	213.48
1011.62	213.51
1011.91	213.53
1012.19	213.51
1012.48	213.50
1012.77	213.50
1013.05	213.60
1013.34	213.62
1013.63	213.59
1013.92	213.64
1014.20	213.63
1014.49	213.63
1014.78	213.65
1015.06	213.56
1015.35	213.56
1015.64	213.59
1015.92	213.61
1016.21	213.64
1016.50	213.64
1016.78	213.64
1017.07	213.66
1017.36	213.60
1017.64	213.59
1017.93	213.60
1018.22	213.62
1018.50	213.61
1018.79	213.61
1019.08	213.50
1019.36	213.49
1019.65	213.47
1019.93	213.49
1020.22	213.53
1020.51	213.65
1020.79	213.65
1021.08	213.09
1021.36	213.05
1021.65	213.36
1021.94	213.50
1022.22	213.60
1022.51	213.39
1022.79	214.53
1023.08	214.02
1023.36	215.91
1023.65	213.59
>>>>>End Processed Spectral Data<<<<<
