SpectraSuite Data File
++++++++++++++++++++++++++++++++++++
Date: Tue Jan 29 16:36:36 EST 2013
User: group
Dark Spectrum Present: No
Reference Spectrum Present: No
Number of Sampled Component Spectra: 1
Spectrometers: USB2E7196
Integration Time (usec): 65000 (USB2E7196)
Spectra Averaged: 100 (USB2E7196)
Boxcar Smoothing: 10 (USB2E7196)
Correct for Electrical Dark: No (USB2E7196)
Strobe/Lamp Enabled: No (USB2E7196)
Correct for Detector Non-linearity: No (USB2E7196)
Correct for Stray Light: No (USB2E7196)
Number of Pixels in Processed Spectrum: 2048
>>>>>Begin Processed Spectral Data<<<<<
339.09	0.00
339.48	201.82
339.86	203.21
340.24	204.37
340.63	206.18
341.01	211.14
341.39	208.73
341.78	210.56
342.16	212.08
342.54	211.67
342.93	201.08
343.31	211.22
343.69	211.75
344.07	212.20
344.46	212.66
344.84	213.06
345.22	213.21
345.60	213.47
345.99	213.64
346.37	213.75
346.75	213.88
347.13	213.94
347.52	214.02
347.90	214.16
348.28	214.21
348.66	214.28
349.05	214.26
349.43	214.29
349.81	214.33
350.19	214.35
350.57	214.40
350.96	214.50
351.34	214.63
351.72	214.73
352.10	214.84
352.48	214.92
352.87	214.96
353.25	215.02
353.63	215.09
354.01	215.16
354.39	215.27
354.77	215.36
355.15	215.51
355.54	215.59
355.92	215.58
356.30	215.67
356.68	215.87
357.06	215.93
357.44	215.98
357.82	216.06
358.20	216.15
358.58	216.24
358.97	216.32
359.35	216.42
359.73	216.53
360.11	216.59
360.49	216.66
360.87	216.74
361.25	216.84
361.63	216.94
362.01	217.03
362.39	217.04
362.77	217.08
363.15	217.11
363.53	217.11
363.91	217.17
364.29	217.21
364.67	217.06
365.05	217.07
365.43	217.14
365.81	217.21
366.19	217.30
366.57	217.37
366.95	217.36
367.33	217.32
367.71	217.30
368.09	217.33
368.47	217.28
368.85	217.28
369.23	217.31
369.61	217.24
369.99	217.27
370.37	217.25
370.75	217.34
371.13	217.27
371.51	217.23
371.89	217.22
372.27	217.22
372.65	217.21
373.03	217.20
373.41	217.15
373.78	217.08
374.16	216.95
374.54	216.87
374.92	216.84
375.30	216.82
375.68	216.75
376.06	216.74
376.44	216.70
376.82	216.67
377.19	216.58
377.57	216.54
377.95	216.42
378.33	216.41
378.71	216.21
379.09	216.19
379.47	216.15
379.84	216.07
380.22	215.97
380.60	215.91
380.98	215.86
381.36	215.82
381.73	215.76
382.11	215.74
382.49	215.70
382.87	215.63
383.25	215.57
383.62	215.77
384.00	215.69
384.38	215.67
384.76	215.68
385.13	215.75
385.51	215.73
385.89	215.69
386.27	215.65
386.64	215.69
387.02	215.62
387.40	215.59
387.78	215.57
388.15	215.55
388.53	215.48
388.91	215.45
389.29	215.40
389.66	215.39
390.04	215.37
390.42	215.38
390.79	215.38
391.17	215.34
391.55	215.13
391.92	215.10
392.30	215.10
392.68	215.02
393.05	214.97
393.43	214.96
393.81	214.93
394.18	214.90
394.56	214.86
394.94	214.93
395.31	214.92
395.69	214.96
396.06	214.99
396.44	215.02
396.82	215.01
397.19	215.14
397.57	215.17
397.95	215.21
398.32	215.17
398.70	215.22
399.07	215.30
399.45	215.28
399.82	215.33
400.20	215.37
400.58	215.43
400.95	215.42
401.33	215.53
401.70	215.79
402.08	215.89
402.45	216.01
402.83	216.15
403.20	216.27
403.58	216.36
403.95	216.51
404.33	216.68
404.71	216.86
405.08	217.11
405.46	217.31
405.83	217.53
406.21	217.75
406.58	218.00
406.96	218.20
407.33	218.50
407.70	218.83
408.08	219.28
408.45	219.63
408.83	220.02
409.20	220.33
409.58	220.63
409.95	221.08
410.33	221.55
410.70	222.00
411.08	222.54
411.45	223.12
411.82	223.71
412.20	224.39
412.57	225.23
412.95	225.81
413.32	226.65
413.69	227.48
414.07	228.40
414.44	229.35
414.82	230.42
415.19	231.62
415.56	232.80
415.94	234.00
416.31	235.44
416.68	236.86
417.06	238.50
417.43	240.05
417.81	241.77
418.18	243.59
418.55	245.54
418.93	247.58
419.30	249.69
419.67	251.93
420.04	254.23
420.42	256.64
420.79	259.48
421.16	262.21
421.54	265.15
421.91	268.14
422.28	271.29
422.66	274.58
423.03	277.82
423.40	281.19
423.77	284.78
424.15	288.44
424.52	292.24
424.89	296.45
425.26	300.53
425.64	304.41
426.01	308.65
426.38	313.06
426.75	317.62
427.13	322.34
427.50	327.30
427.87	332.57
428.24	337.76
428.61	342.75
428.99	348.28
429.36	354.25
429.73	360.11
430.10	365.98
430.47	372.09
430.85	378.39
431.22	385.11
431.59	392.23
431.96	399.09
432.33	406.61
432.70	413.82
433.08	422.36
433.45	430.46
433.82	438.49
434.19	447.43
434.56	456.18
434.93	464.57
435.30	472.91
435.68	481.96
436.05	490.93
436.42	499.91
436.79	508.12
437.16	516.90
437.53	526.26
437.90	535.42
438.27	544.37
438.64	553.61
439.01	562.17
439.38	569.75
439.75	577.06
440.13	585.51
440.50	593.51
440.87	599.97
441.24	606.62
441.61	614.03
441.98	619.42
442.35	625.68
442.72	631.96
443.09	637.96
443.46	641.74
443.83	644.30
444.20	646.49
444.57	649.65
444.94	651.10
445.31	652.50
445.68	653.87
446.05	654.48
446.42	653.73
446.79	652.81
447.16	651.76
447.53	650.99
447.90	647.68
448.27	644.40
448.64	639.73
449.01	636.43
449.37	630.54
449.74	624.87
450.11	618.01
450.48	610.60
450.85	603.24
451.22	596.75
451.59	590.58
451.96	584.69
452.33	576.82
452.70	569.73
453.07	561.26
453.43	552.64
453.80	544.33
454.17	536.29
454.54	528.65
454.91	520.47
455.28	512.49
455.65	505.02
456.02	497.42
456.38	491.07
456.75	483.16
457.12	476.51
457.49	469.98
457.86	463.78
458.23	458.44
458.59	452.45
458.96	446.44
459.33	441.12
459.70	435.74
460.07	431.46
460.43	426.54
460.80	421.95
461.17	418.00
461.54	413.74
461.91	409.74
462.27	405.63
462.64	402.16
463.01	398.33
463.38	394.69
463.74	391.02
464.11	387.78
464.48	384.97
464.85	381.84
465.21	379.39
465.58	376.73
465.95	373.59
466.32	370.89
466.68	368.30
467.05	365.71
467.42	363.18
467.78	360.45
468.15	357.86
468.52	355.93
468.88	353.41
469.25	351.18
469.62	349.36
469.98	347.44
470.35	345.65
470.72	343.98
471.08	342.12
471.45	340.61
471.82	339.04
472.18	337.31
472.55	336.18
472.92	334.81
473.28	333.56
473.65	332.39
474.02	331.35
474.38	330.39
474.75	329.61
475.11	328.73
475.48	328.19
475.85	327.72
476.21	327.22
476.58	326.88
476.94	326.69
477.31	326.39
477.67	326.08
478.04	325.92
478.41	325.86
478.77	326.04
479.14	325.98
479.50	326.10
479.87	326.43
480.23	326.71
480.60	326.90
480.96	327.24
481.33	327.87
481.69	328.42
482.06	328.97
482.42	329.46
482.79	330.06
483.15	330.84
483.52	331.80
483.88	332.67
484.25	333.62
484.61	334.62
484.98	335.68
485.34	337.01
485.71	338.38
486.07	339.79
486.44	341.08
486.80	342.70
487.17	344.39
487.53	346.19
487.90	348.04
488.26	350.07
488.62	352.22
488.99	354.28
489.35	356.47
489.72	358.90
490.08	361.43
490.44	364.02
490.81	366.64
491.17	369.37
491.54	372.37
491.90	375.39
492.26	378.68
492.63	382.07
492.99	385.49
493.36	389.19
493.72	393.11
494.08	397.18
494.45	401.40
494.81	405.82
495.17	410.29
495.54	414.99
495.90	419.84
496.26	424.78
496.63	429.95
496.99	435.36
497.35	440.92
497.72	446.77
498.08	452.74
498.44	458.88
498.80	465.37
499.17	471.89
499.53	478.61
499.89	485.53
500.26	492.54
500.62	499.70
500.98	507.08
501.34	514.54
501.71	522.27
502.07	530.15
502.43	538.16
502.79	546.38
503.16	554.83
503.52	563.47
503.88	572.23
504.24	581.25
504.60	590.23
504.97	599.53
505.33	608.83
505.69	618.68
506.05	628.63
506.41	638.49
506.78	648.57
507.14	658.86
507.50	669.27
507.86	680.04
508.22	690.88
508.59	701.55
508.95	712.64
509.31	723.96
509.67	735.39
510.03	746.82
510.39	758.51
510.75	770.34
511.12	782.23
511.48	794.40
511.84	806.62
512.20	819.09
512.56	831.74
512.92	844.59
513.28	857.25
513.64	870.11
514.00	883.02
514.37	896.07
514.73	909.24
515.09	922.37
515.45	935.30
515.81	948.39
516.17	961.92
516.53	975.23
516.89	988.39
517.25	1001.70
517.61	1015.27
517.97	1028.84
518.33	1042.09
518.69	1055.78
519.05	1069.54
519.41	1083.36
519.77	1097.31
520.13	1110.77
520.49	1124.07
520.85	1137.65
521.21	1151.04
521.57	1164.75
521.93	1177.85
522.29	1191.66
522.65	1205.37
523.01	1219.15
523.37	1232.52
523.73	1245.95
524.09	1259.32
524.45	1272.98
524.81	1286.53
525.17	1300.18
525.53	1313.46
525.89	1326.84
526.25	1340.08
526.61	1353.02
526.97	1366.24
527.33	1379.42
527.68	1392.91
528.04	1406.43
528.40	1419.58
528.76	1433.11
529.12	1446.16
529.48	1459.64
529.84	1472.00
530.20	1484.80
530.56	1497.46
530.91	1510.81
531.27	1523.76
531.63	1536.55
531.99	1549.31
532.35	1561.78
532.71	1574.09
533.07	1587.02
533.42	1599.40
533.78	1611.60
534.14	1623.75
534.50	1635.10
534.86	1646.62
535.21	1657.73
535.57	1669.34
535.93	1680.86
536.29	1692.02
536.65	1703.60
537.00	1714.72
537.36	1726.24
537.72	1737.44
538.08	1748.89
538.44	1759.86
538.79	1771.03
539.15	1782.13
539.51	1793.01
539.87	1804.25
540.22	1815.30
540.58	1826.36
540.94	1837.34
541.29	1847.81
541.65	1857.72
542.01	1868.35
542.37	1878.53
542.72	1888.64
543.08	1898.56
543.44	1909.04
543.79	1918.37
544.15	1927.86
544.51	1937.82
544.87	1947.90
545.22	1957.06
545.58	1966.14
545.94	1975.22
546.29	1983.82
546.65	1992.13
547.01	2000.55
547.36	2008.36
547.72	2016.12
548.07	2023.79
548.43	2031.60
548.79	2039.56
549.14	2047.82
549.50	2056.39
549.86	2064.44
550.21	2071.91
550.57	2079.67
550.92	2086.50
551.28	2094.13
551.64	2101.54
551.99	2109.16
552.35	2116.36
552.70	2123.32
553.06	2129.96
553.41	2136.34
553.77	2142.90
554.13	2149.38
554.48	2156.26
554.84	2163.35
555.19	2170.04
555.55	2176.45
555.90	2182.85
556.26	2189.70
556.61	2195.72
556.97	2200.62
557.32	2206.33
557.68	2212.78
558.03	2218.57
558.39	2224.03
558.74	2229.93
559.10	2235.43
559.45	2240.99
559.81	2246.57
560.16	2252.24
560.52	2258.22
560.87	2264.57
561.23	2270.50
561.58	2277.25
561.94	2282.55
562.29	2287.42
562.64	2293.44
563.00	2299.21
563.35	2304.74
563.71	2310.48
564.06	2316.24
564.42	2322.19
564.77	2327.25
565.12	2332.55
565.48	2337.75
565.83	2343.24
566.19	2348.66
566.54	2354.04
566.89	2358.73
567.25	2363.24
567.60	2368.93
567.96	2374.01
568.31	2378.53
568.66	2382.93
569.02	2386.79
569.37	2390.50
569.72	2394.84
570.08	2398.39
570.43	2401.61
570.78	2404.77
571.14	2407.27
571.49	2410.26
571.84	2413.64
572.20	2416.64
572.55	2419.62
572.90	2421.78
573.26	2424.52
573.61	2427.02
573.96	2429.07
574.31	2430.89
574.67	2432.76
575.02	2433.42
575.37	2434.78
575.72	2435.48
576.08	2436.74
576.43	2436.77
576.78	2437.24
577.13	2438.58
577.49	2439.59
577.84	2440.34
578.19	2441.55
578.54	2441.96
578.90	2442.61
579.25	2442.40
579.60	2442.19
579.95	2441.20
580.30	2441.27
580.66	2440.61
581.01	2438.86
581.36	2436.40
581.71	2435.11
582.06	2433.91
582.42	2432.97
582.77	2430.48
583.12	2428.77
583.47	2427.19
583.82	2426.51
584.17	2425.06
584.53	2422.98
584.88	2420.78
585.23	2418.90
585.58	2416.52
585.93	2414.46
586.28	2412.13
586.63	2409.63
586.98	2407.33
587.34	2405.40
587.69	2402.72
588.04	2400.50
588.39	2398.98
588.74	2396.32
589.09	2393.34
589.44	2390.07
589.79	2387.40
590.14	2385.46
590.49	2382.49
590.84	2378.72
591.19	2375.51
591.54	2372.24
591.89	2368.00
592.25	2364.64
592.60	2360.32
592.95	2356.08
593.30	2351.83
593.65	2347.53
594.00	2342.99
594.35	2339.98
594.70	2335.21
595.05	2330.66
595.40	2325.08
595.75	2319.28
596.10	2315.74
596.45	2311.00
596.80	2306.31
597.15	2301.16
597.50	2295.09
597.85	2290.19
598.19	2284.81
598.54	2278.86
598.89	2273.59
599.24	2268.98
599.59	2262.84
599.94	2256.94
600.29	2250.84
600.64	2244.85
600.99	2237.84
601.34	2232.25
601.69	2225.13
602.04	2218.75
602.39	2212.00
602.74	2205.80
603.08	2200.14
603.43	2193.51
603.78	2186.41
604.13	2179.21
604.48	2171.89
604.83	2165.96
605.18	2159.58
605.53	2152.67
605.87	2145.67
606.22	2138.86
606.57	2131.02
606.92	2122.94
607.27	2115.93
607.62	2109.32
607.96	2102.28
608.31	2095.87
608.66	2088.22
609.01	2080.53
609.36	2073.30
609.70	2065.62
610.05	2057.88
610.40	2049.54
610.75	2041.19
611.10	2033.57
611.44	2024.71
611.79	2015.82
612.14	2005.77
612.49	1995.05
612.83	1985.65
613.18	1976.33
613.53	1966.98
613.88	1957.38
614.22	1948.85
614.57	1939.01
614.92	1928.34
615.27	1918.19
615.61	1908.00
615.96	1898.23
616.31	1888.63
616.65	1879.16
617.00	1869.40
617.35	1859.71
617.70	1850.06
618.04	1840.02
618.39	1829.80
618.74	1820.12
619.08	1810.55
619.43	1801.70
619.78	1793.51
620.12	1784.93
620.47	1775.40
620.82	1764.98
621.16	1755.09
621.51	1745.05
621.85	1735.19
622.20	1724.89
622.55	1714.21
622.89	1704.34
623.24	1694.61
623.59	1684.84
623.93	1674.72
624.28	1664.93
624.62	1654.69
624.97	1644.36
625.32	1634.56
625.66	1625.61
626.01	1616.78
626.35	1607.44
626.70	1597.39
627.04	1587.26
627.39	1577.08
627.73	1567.81
628.08	1558.93
628.43	1549.47
628.77	1540.30
629.12	1531.43
629.46	1523.63
629.81	1515.34
630.15	1505.90
630.50	1496.14
630.84	1485.64
631.19	1475.84
631.53	1466.52
631.88	1456.49
632.22	1446.45
632.57	1437.14
632.91	1427.03
633.26	1417.25
633.60	1407.69
633.95	1398.47
634.29	1389.00
634.64	1379.73
634.98	1369.68
635.32	1360.40
635.67	1351.83
636.01	1342.49
636.36	1332.76
636.70	1323.14
637.05	1313.72
637.39	1304.72
637.73	1296.04
638.08	1288.50
638.42	1280.21
638.77	1271.38
639.11	1263.14
639.45	1255.39
639.80	1246.87
640.14	1238.20
640.49	1229.33
640.83	1220.51
641.17	1212.32
641.52	1204.19
641.86	1195.64
642.20	1187.78
642.55	1179.14
642.89	1170.33
643.23	1161.68
643.58	1153.44
643.92	1144.41
644.26	1135.72
644.61	1127.26
644.95	1118.43
645.29	1109.07
645.64	1099.93
645.98	1091.42
646.32	1083.47
646.66	1074.83
647.01	1066.46
647.35	1058.33
647.69	1049.97
648.04	1041.61
648.38	1032.74
648.72	1023.92
649.06	1015.34
649.41	1007.17
649.75	999.17
650.09	991.16
650.43	983.07
650.78	974.80
651.12	967.09
651.46	959.63
651.80	952.33
652.14	944.99
652.49	937.49
652.83	930.18
653.17	922.44
653.51	914.73
653.85	907.46
654.20	900.15
654.54	892.62
654.88	885.28
655.22	878.11
655.56	871.02
655.90	864.21
656.25	857.59
656.59	850.62
656.93	843.57
657.27	836.42
657.61	829.46
657.95	823.31
658.29	817.30
658.64	811.19
658.98	804.75
659.32	798.15
659.66	791.94
660.00	785.50
660.34	779.53
660.68	773.46
661.02	767.12
661.36	761.13
661.70	755.27
662.05	749.66
662.39	744.06
662.73	738.68
663.07	733.22
663.41	727.54
663.75	721.91
664.09	716.18
664.43	710.76
664.77	705.29
665.11	699.50
665.45	693.61
665.79	687.71
666.13	681.92
666.47	676.42
666.81	670.92
667.15	665.51
667.49	660.21
667.83	654.87
668.17	649.60
668.51	644.46
668.85	639.53
669.19	634.60
669.53	629.53
669.87	624.31
670.21	619.53
670.55	614.75
670.89	610.16
671.23	605.80
671.57	601.46
671.91	597.25
672.25	593.01
672.58	588.82
672.92	584.70
673.26	580.74
673.60	576.88
673.94	573.05
674.28	569.41
674.62	565.62
674.96	561.88
675.30	558.35
675.64	554.61
675.97	550.96
676.31	547.33
676.65	543.69
676.99	540.29
677.33	536.41
677.67	532.75
678.01	528.86
678.34	525.14
678.68	521.48
679.02	517.82
679.36	514.08
679.70	510.42
680.04	506.84
680.37	503.31
680.71	499.93
681.05	496.69
681.39	493.36
681.73	490.16
682.06	487.06
682.40	483.92
682.74	480.71
683.08	477.47
683.42	474.20
683.75	471.17
684.09	468.10
684.43	465.23
684.77	462.31
685.10	459.44
685.44	456.57
685.78	453.66
686.12	450.87
686.45	448.15
686.79	445.41
687.13	442.85
687.46	440.22
687.80	437.49
688.14	434.56
688.48	431.89
688.81	429.18
689.15	426.54
689.49	423.86
689.82	421.30
690.16	418.68
690.50	416.24
690.83	413.75
691.17	411.13
691.51	408.65
691.84	406.30
692.18	404.03
692.52	401.76
692.85	399.58
693.19	397.37
693.52	395.15
693.86	392.90
694.20	390.66
694.53	388.52
694.87	386.28
695.21	384.17
695.54	382.00
695.88	379.78
696.21	377.55
696.55	375.39
696.88	373.29
697.22	371.27
697.56	369.30
697.89	367.42
698.23	365.65
698.56	363.78
698.90	361.97
699.23	360.05
699.57	358.14
699.90	356.27
700.24	354.41
700.58	352.62
700.91	350.99
701.25	349.42
701.58	347.77
701.92	346.15
702.25	344.52
702.59	342.90
702.92	341.37
703.26	339.77
703.59	338.30
703.93	337.02
704.26	335.56
704.60	334.06
704.93	332.50
705.26	330.99
705.60	329.55
705.93	327.98
706.27	326.63
706.60	325.36
706.94	324.08
707.27	322.69
707.61	321.32
707.94	319.94
708.27	318.38
708.61	316.90
708.94	315.55
709.28	314.22
709.61	312.94
709.94	311.73
710.28	310.53
710.61	309.29
710.95	307.80
711.28	306.69
711.61	305.46
711.95	304.31
712.28	303.10
712.61	301.86
712.95	300.84
713.28	299.78
713.61	298.59
713.95	297.41
714.28	296.36
714.61	295.31
714.95	294.27
715.28	293.22
715.61	292.22
715.95	291.23
716.28	290.25
716.61	289.27
716.95	288.26
717.28	287.27
717.61	286.31
717.94	285.44
718.28	284.41
718.61	283.51
718.94	282.60
719.27	281.75
719.61	280.92
719.94	280.04
720.27	279.05
720.60	278.18
720.94	277.37
721.27	276.63
721.60	275.93
721.93	275.19
722.27	274.55
722.60	273.84
722.93	273.11
723.26	272.44
723.59	271.72
723.93	271.10
724.26	270.48
724.59	269.82
724.92	269.20
725.25	268.65
725.59	268.05
725.92	267.53
726.25	266.95
726.58	266.39
726.91	265.80
727.24	265.27
727.57	264.73
727.91	264.15
728.24	263.59
728.57	262.98
728.90	262.42
729.23	261.81
729.56	261.38
729.89	260.83
730.22	260.25
730.55	259.71
730.89	259.10
731.22	258.56
731.55	258.03
731.88	257.51
732.21	256.93
732.54	256.40
732.87	255.85
733.20	255.34
733.53	254.85
733.86	254.37
734.19	253.88
734.52	253.44
734.85	253.14
735.18	252.62
735.51	252.24
735.84	251.79
736.17	251.39
736.50	250.85
736.83	250.69
737.16	250.36
737.49	249.96
737.82	249.53
738.15	249.16
738.48	248.80
738.81	248.41
739.14	247.98
739.47	247.58
739.80	247.22
740.13	246.90
740.46	246.44
740.79	246.06
741.12	245.65
741.45	245.27
741.78	244.82
742.11	244.56
742.44	244.15
742.77	243.88
743.10	243.54
743.43	243.18
743.75	242.62
744.08	242.49
744.41	242.14
744.74	241.79
745.07	241.42
745.40	241.08
745.73	240.78
746.06	240.49
746.39	240.19
746.71	239.83
747.04	239.45
747.37	239.18
747.70	238.88
748.03	238.61
748.36	238.29
748.68	237.94
749.01	237.56
749.34	237.27
749.67	236.92
750.00	236.65
750.33	236.54
750.65	236.21
750.98	235.69
751.31	235.48
751.64	235.28
751.97	235.17
752.29	234.95
752.62	234.62
752.95	234.36
753.28	234.10
753.60	233.87
753.93	233.69
754.26	233.46
754.59	233.19
754.91	232.92
755.24	232.70
755.57	232.48
755.90	232.26
756.22	232.02
756.55	231.79
756.88	231.52
757.20	231.15
757.53	230.93
757.86	230.70
758.19	230.45
758.51	230.22
758.84	229.88
759.17	229.65
759.49	229.51
759.82	229.41
760.15	229.23
760.47	229.04
760.80	228.75
761.13	228.59
761.45	228.42
761.78	228.25
762.11	228.06
762.43	227.87
762.76	227.67
763.08	227.53
763.41	227.37
763.74	227.19
764.06	227.04
764.39	226.86
764.71	226.73
765.04	226.57
765.37	226.41
765.69	226.27
766.02	226.11
766.34	225.92
766.67	225.70
767.00	225.62
767.32	225.57
767.65	225.58
767.97	225.42
768.30	225.29
768.62	225.17
768.95	225.01
769.27	224.90
769.60	224.83
769.92	224.67
770.25	224.50
770.57	224.36
770.90	224.24
771.22	224.15
771.55	224.01
771.87	223.87
772.20	223.75
772.52	223.80
772.85	223.92
773.17	223.84
773.50	223.73
773.82	223.59
774.15	223.40
774.47	223.18
774.80	223.08
775.12	222.98
775.45	222.89
775.77	222.79
776.09	222.70
776.42	222.60
776.74	222.57
777.07	222.45
777.39	222.38
777.72	222.28
778.04	222.18
778.36	222.08
778.69	222.01
779.01	221.95
779.33	221.71
779.66	221.44
779.98	221.34
780.31	221.28
780.63	221.28
780.95	221.24
781.28	221.19
781.60	221.08
781.92	220.99
782.25	220.95
782.57	220.90
782.89	220.81
783.22	220.72
783.54	220.58
783.86	220.58
784.19	220.52
784.51	220.54
784.83	220.46
785.16	220.42
785.48	220.36
785.80	220.32
786.12	220.24
786.45	220.17
786.77	220.14
787.09	220.06
787.42	219.91
787.74	219.86
788.06	219.79
788.38	219.74
788.71	219.68
789.03	219.61
789.35	219.60
789.67	219.55
789.99	219.50
790.32	219.43
790.64	219.37
790.96	219.48
791.28	219.36
791.61	219.30
791.93	219.27
792.25	219.22
792.57	219.29
792.89	219.20
793.21	219.18
793.54	219.07
793.86	219.03
794.18	219.00
794.50	218.92
794.82	218.89
795.14	218.86
795.47	218.85
795.79	218.80
796.11	218.70
796.43	218.64
796.75	218.61
797.07	218.59
797.39	218.52
797.71	218.29
798.04	218.27
798.36	218.22
798.68	218.19
799.00	218.15
799.32	218.00
799.64	218.05
799.96	217.99
800.28	218.00
800.60	217.94
800.92	217.91
801.24	217.83
801.56	217.79
801.89	217.74
802.21	217.72
802.53	217.65
802.85	217.68
803.17	217.73
803.49	217.66
803.81	217.62
804.13	217.59
804.45	217.59
804.77	217.56
805.09	217.52
805.41	217.45
805.73	217.40
806.05	217.31
806.37	217.23
806.69	217.19
807.01	217.14
807.33	217.12
807.65	217.04
807.97	217.15
808.28	217.11
808.60	217.09
808.92	217.04
809.24	217.17
809.56	217.08
809.88	216.99
810.20	216.97
810.52	216.99
810.84	216.94
811.16	216.87
811.48	216.85
811.80	216.92
812.12	216.92
812.43	216.94
812.75	216.92
813.07	216.88
813.39	216.90
813.71	216.86
814.03	216.82
814.35	216.78
814.67	216.62
814.98	216.60
815.30	216.57
815.62	216.48
815.94	216.30
816.26	216.29
816.58	216.24
816.89	216.24
817.21	216.16
817.53	216.17
817.85	216.18
818.17	216.15
818.48	216.05
818.80	216.04
819.12	216.00
819.44	215.97
819.76	215.92
820.07	215.89
820.39	215.86
820.71	215.88
821.03	215.90
821.34	215.89
821.66	215.90
821.98	215.89
822.30	215.91
822.61	216.02
822.93	215.99
823.25	215.96
823.57	215.94
823.88	215.97
824.20	215.92
824.52	215.94
824.83	215.91
825.15	215.88
825.47	215.88
825.79	215.88
826.10	215.86
826.42	215.84
826.74	215.85
827.05	215.88
827.37	215.87
827.69	215.82
828.00	215.81
828.32	215.80
828.64	215.79
828.95	215.87
829.27	215.79
829.58	215.76
829.90	215.77
830.22	215.76
830.53	215.73
830.85	215.72
831.17	215.67
831.48	215.67
831.80	215.64
832.11	215.62
832.43	215.59
832.75	215.56
833.06	215.67
833.38	215.60
833.69	215.51
834.01	215.52
834.32	215.55
834.64	215.54
834.96	215.53
835.27	215.52
835.59	215.46
835.90	215.41
836.22	215.39
836.53	215.36
836.85	215.32
837.16	215.51
837.48	215.52
837.79	215.58
838.11	215.57
838.42	215.57
838.74	215.57
839.05	215.55
839.37	215.55
839.68	215.41
840.00	215.40
840.31	215.46
840.63	215.40
840.94	215.33
841.26	215.31
841.57	215.27
841.88	215.27
842.20	215.21
842.51	215.21
842.83	215.22
843.14	215.41
843.46	215.42
843.77	215.28
844.08	215.25
844.40	215.15
844.71	215.12
845.03	215.10
845.34	215.04
845.65	215.00
845.97	215.00
846.28	215.03
846.60	215.03
846.91	214.97
847.22	214.95
847.54	215.01
847.85	215.00
848.16	214.95
848.48	214.91
848.79	214.99
849.10	214.98
849.42	215.00
849.73	214.81
850.04	214.79
850.36	214.70
850.67	214.75
850.98	214.75
851.30	214.79
851.61	214.76
851.92	214.82
852.23	214.89
852.55	214.91
852.86	214.92
853.17	214.95
853.49	214.98
853.80	215.02
854.11	215.04
854.42	215.08
854.74	215.08
855.05	215.09
855.36	215.01
855.67	214.99
855.99	214.97
856.30	215.18
856.61	215.16
856.92	215.20
857.23	215.16
857.55	215.17
857.86	215.13
858.17	215.18
858.48	215.11
858.79	215.04
859.11	215.06
859.42	215.05
859.73	214.98
860.04	214.96
860.35	214.89
860.66	214.83
860.98	214.81
861.29	214.85
861.60	214.83
861.91	214.86
862.22	214.84
862.53	214.82
862.84	214.55
863.16	214.63
863.47	214.57
863.78	214.53
864.09	214.52
864.40	214.55
864.71	214.54
865.02	214.56
865.33	214.53
865.64	214.49
865.95	214.48
866.27	214.66
866.58	214.66
866.89	214.72
867.20	214.72
867.51	214.67
867.82	214.64
868.13	214.71
868.44	214.66
868.75	214.73
869.06	214.76
869.37	214.84
869.68	214.73
869.99	214.79
870.30	214.84
870.61	214.89
870.92	214.84
871.23	214.84
871.54	214.88
871.85	214.94
872.16	214.95
872.47	214.95
872.78	214.79
873.09	214.80
873.40	214.76
873.71	214.78
874.02	214.79
874.33	214.78
874.64	214.73
874.95	214.78
875.26	214.75
875.56	214.72
875.87	214.70
876.18	214.71
876.49	214.92
876.80	214.88
877.11	214.78
877.42	214.80
877.73	214.74
878.04	214.72
878.35	214.69
878.66	214.72
878.96	214.71
879.27	214.74
879.58	214.70
879.89	214.68
880.20	214.71
880.51	214.68
880.82	214.67
881.12	214.69
881.43	214.62
881.74	214.58
882.05	214.55
882.36	214.55
882.67	214.59
882.97	214.31
883.28	214.29
883.59	214.33
883.90	214.34
884.21	214.41
884.51	214.42
884.82	214.39
885.13	214.35
885.44	214.33
885.74	214.33
886.05	214.35
886.36	214.34
886.67	214.26
886.98	214.41
887.28	214.43
887.59	214.39
887.90	214.39
888.20	214.36
888.51	214.39
888.82	214.37
889.13	214.35
889.43	214.53
889.74	214.55
890.05	214.54
890.35	214.53
890.66	214.49
890.97	214.44
891.28	214.46
891.58	214.49
891.89	214.48
892.20	214.43
892.50	214.43
892.81	214.43
893.12	214.44
893.42	214.36
893.73	214.36
894.04	214.38
894.34	214.39
894.65	214.38
894.95	214.40
895.26	214.39
895.57	214.51
895.87	214.32
896.18	214.37
896.48	214.37
896.79	214.34
897.10	214.35
897.40	214.36
897.71	214.35
898.01	214.30
898.32	214.32
898.63	214.33
898.93	214.33
899.24	214.33
899.54	214.30
899.85	214.28
900.15	214.25
900.46	214.22
900.76	214.23
901.07	214.24
901.38	214.23
901.68	214.24
901.99	214.10
902.29	214.12
902.60	214.08
902.90	214.04
903.21	214.04
903.51	214.02
903.82	214.08
904.12	214.09
904.43	214.11
904.73	214.10
905.03	214.11
905.34	214.28
905.64	214.26
905.95	214.25
906.25	214.26
906.56	214.27
906.86	214.31
907.17	214.31
907.47	214.29
907.77	214.27
908.08	214.21
908.38	214.25
908.69	214.29
908.99	214.32
909.30	214.37
909.60	214.40
909.90	214.41
910.21	214.36
910.51	214.32
910.81	214.36
911.12	214.37
911.42	214.40
911.73	214.22
912.03	214.24
912.33	214.28
912.64	214.27
912.94	214.24
913.24	214.19
913.55	214.17
913.85	214.19
914.15	214.23
914.46	214.27
914.76	214.22
915.06	214.20
915.37	214.17
915.67	214.15
915.97	214.11
916.27	214.05
916.58	214.08
916.88	214.06
917.18	214.03
917.49	214.15
917.79	214.11
918.09	214.11
918.39	214.18
918.70	214.17
919.00	214.18
919.30	214.24
919.60	214.27
919.91	214.27
920.21	214.29
920.51	214.23
920.81	214.23
921.12	214.29
921.42	214.26
921.72	214.27
922.02	214.30
922.32	214.35
922.63	214.37
922.93	214.45
923.23	214.48
923.53	214.45
923.83	214.31
924.13	214.35
924.44	214.35
924.74	214.37
925.04	214.43
925.34	214.39
925.64	214.33
925.94	214.31
926.24	214.43
926.55	214.38
926.85	214.41
927.15	214.41
927.45	214.37
927.75	214.40
928.05	214.40
928.35	214.36
928.65	214.38
928.95	214.37
929.26	214.27
929.56	214.35
929.86	214.38
930.16	214.37
930.46	214.37
930.76	214.39
931.06	214.29
931.36	214.21
931.66	214.26
931.96	214.31
932.26	214.30
932.56	214.17
932.86	214.20
933.16	214.22
933.46	214.23
933.76	214.23
934.06	214.29
934.36	214.38
934.66	214.33
934.96	214.33
935.26	214.37
935.56	214.44
935.86	214.35
936.16	214.34
936.46	214.34
936.76	214.33
937.06	214.30
937.36	214.33
937.66	214.34
937.96	214.32
938.26	214.24
938.56	214.25
938.86	214.28
939.16	214.32
939.46	214.32
939.76	214.33
940.06	214.32
940.35	214.24
940.65	214.11
940.95	214.15
941.25	214.06
941.55	214.04
941.85	213.98
942.15	214.01
942.45	214.04
942.75	214.02
943.04	214.06
943.34	214.11
943.64	214.10
943.94	214.07
944.24	214.08
944.54	214.08
944.84	214.09
945.13	214.08
945.43	214.06
945.73	214.06
946.03	214.04
946.33	214.06
946.62	214.07
946.92	214.06
947.22	214.06
947.52	214.11
947.82	214.12
948.11	214.14
948.41	214.09
948.71	214.03
949.01	214.06
949.31	214.02
949.60	213.96
949.90	213.98
950.20	213.98
950.50	213.97
950.79	214.01
951.09	214.02
951.39	214.00
951.69	213.95
951.98	213.99
952.28	214.01
952.58	213.96
952.87	213.97
953.17	214.01
953.47	213.99
953.76	213.98
954.06	213.92
954.36	213.89
954.66	213.93
954.95	213.99
955.25	214.00
955.55	214.01
955.84	214.00
956.14	214.01
956.44	214.01
956.73	213.98
957.03	213.93
957.32	213.94
957.62	213.95
957.92	214.02
958.21	213.98
958.51	214.19
958.81	214.22
959.10	214.25
959.40	214.29
959.69	214.32
959.99	214.35
960.29	214.36
960.58	214.35
960.88	214.41
961.17	214.38
961.47	214.41
961.76	214.37
962.06	214.39
962.36	214.40
962.65	214.43
962.95	214.47
963.24	214.46
963.54	214.43
963.83	214.45
964.13	214.43
964.42	214.38
964.72	214.21
965.01	214.22
965.31	214.15
965.60	214.10
965.90	214.22
966.19	214.15
966.49	214.18
966.78	214.16
967.08	214.15
967.37	214.14
967.67	214.09
967.96	214.15
968.26	214.12
968.55	214.13
968.85	214.13
969.14	214.10
969.43	214.13
969.73	214.12
970.02	214.10
970.32	214.06
970.61	214.05
970.91	213.99
971.20	213.94
971.49	213.94
971.79	213.95
972.08	213.80
972.38	213.82
972.67	213.80
972.96	213.87
973.26	213.82
973.55	213.90
973.85	213.85
974.14	213.80
974.43	213.83
974.73	213.79
975.02	213.76
975.31	213.77
975.61	213.75
975.90	213.72
976.19	213.69
976.49	213.73
976.78	213.76
977.07	213.76
977.37	213.79
977.66	213.84
977.95	213.80
978.24	213.81
978.54	213.86
978.83	213.85
979.12	213.83
979.42	213.80
979.71	213.76
980.00	213.81
980.29	213.83
980.59	213.77
980.88	213.82
981.17	213.80
981.46	213.80
981.76	213.80
982.05	213.89
982.34	213.92
982.63	213.93
982.93	213.90
983.22	213.95
983.51	213.96
983.80	213.98
984.09	214.01
984.39	214.01
984.68	214.00
984.97	214.00
985.26	213.98
985.55	214.03
985.85	214.00
986.14	214.03
986.43	214.04
986.72	214.05
987.01	213.98
987.30	214.01
987.59	213.99
987.89	214.00
988.18	213.92
988.47	213.88
988.76	213.84
989.05	213.87
989.34	213.84
989.63	213.92
989.92	213.89
990.22	213.87
990.51	213.87
990.80	213.84
991.09	213.87
991.38	213.89
991.67	213.84
991.96	213.82
992.25	213.79
992.54	213.73
992.83	213.72
993.12	213.72
993.41	213.76
993.70	213.86
993.99	213.87
994.28	213.91
994.58	213.93
994.87	213.93
995.16	213.90
995.45	213.86
995.74	213.75
996.03	213.78
996.32	213.84
996.61	213.90
996.90	213.90
997.19	213.87
997.48	213.87
997.77	213.85
998.06	213.88
998.34	213.86
998.63	213.87
998.92	213.90
999.21	213.94
999.50	213.91
999.79	213.83
1000.08	213.87
1000.37	213.88
1000.66	213.88
1000.95	213.89
1001.24	213.89
1001.53	213.96
1001.82	213.98
1002.11	213.89
1002.40	213.88
1002.68	213.89
1002.97	214.05
1003.26	214.02
1003.55	213.98
1003.84	214.01
1004.13	214.05
1004.42	214.06
1004.71	214.10
1004.99	214.07
1005.28	214.11
1005.57	214.10
1005.86	214.06
1006.15	214.01
1006.44	213.99
1006.72	214.04
1007.01	214.03
1007.30	214.03
1007.59	214.00
1007.88	213.99
1008.17	214.03
1008.45	213.99
1008.74	213.93
1009.03	213.83
1009.32	213.83
1009.60	213.83
1009.89	213.81
1010.18	213.75
1010.47	213.75
1010.76	213.72
1011.04	213.73
1011.33	213.74
1011.62	213.75
1011.91	213.79
1012.19	213.81
1012.48	213.84
1012.77	213.82
1013.05	213.92
1013.34	213.96
1013.63	213.96
1013.92	213.99
1014.20	214.00
1014.49	214.00
1014.78	214.01
1015.06	213.91
1015.35	213.91
1015.64	213.98
1015.92	214.01
1016.21	214.01
1016.50	214.02
1016.78	214.07
1017.07	214.09
1017.36	214.05
1017.64	214.03
1017.93	214.02
1018.22	213.96
1018.50	213.92
1018.79	213.90
1019.08	213.78
1019.36	213.79
1019.65	213.77
1019.93	213.84
1020.22	213.87
1020.51	214.01
1020.79	213.99
1021.08	213.16
1021.36	213.49
1021.65	213.78
1021.94	213.26
1022.22	214.22
1022.51	213.92
1022.79	215.30
1023.08	214.78
1023.36	216.56
1023.65	213.39
>>>>>End Processed Spectral Data<<<<<
