SpectraSuite Data File
++++++++++++++++++++++++++++++++++++
Date: Tue Jan 29 16:35:16 EST 2013
User: group
Dark Spectrum Present: No
Reference Spectrum Present: No
Number of Sampled Component Spectra: 1
Spectrometers: USB2E7196
Integration Time (usec): 65000 (USB2E7196)
Spectra Averaged: 100 (USB2E7196)
Boxcar Smoothing: 10 (USB2E7196)
Correct for Electrical Dark: No (USB2E7196)
Strobe/Lamp Enabled: No (USB2E7196)
Correct for Detector Non-linearity: No (USB2E7196)
Correct for Stray Light: No (USB2E7196)
Number of Pixels in Processed Spectrum: 2048
>>>>>Begin Processed Spectral Data<<<<<
339.09	0.00
339.48	201.88
339.86	203.00
340.24	204.24
340.63	205.85
341.01	210.39
341.39	209.21
341.78	210.53
342.16	212.01
342.54	212.00
342.93	201.07
343.31	211.20
343.69	211.73
344.07	212.19
344.46	212.66
344.84	213.11
345.22	213.30
345.60	213.56
345.99	213.75
346.37	213.88
346.75	213.99
347.13	214.05
347.52	214.13
347.90	214.23
348.28	214.27
348.66	214.35
349.05	214.33
349.43	214.37
349.81	214.44
350.19	214.49
350.57	214.56
350.96	214.65
351.34	214.79
351.72	214.90
352.10	215.02
352.48	215.09
352.87	215.10
353.25	215.15
353.63	215.20
354.01	215.25
354.39	215.33
354.77	215.42
355.15	215.57
355.54	215.61
355.92	215.60
356.30	215.69
356.68	215.91
357.06	215.99
357.44	216.05
357.82	216.11
358.20	216.19
358.58	216.28
358.97	216.37
359.35	216.45
359.73	216.56
360.11	216.62
360.49	216.67
360.87	216.74
361.25	216.82
361.63	216.94
362.01	217.03
362.39	217.04
362.77	217.08
363.15	217.12
363.53	217.16
363.91	217.20
364.29	217.24
364.67	217.03
365.05	217.07
365.43	217.11
365.81	217.13
366.19	217.19
366.57	217.28
366.95	217.30
367.33	217.26
367.71	217.25
368.09	217.27
368.47	217.27
368.85	217.22
369.23	217.24
369.61	217.16
369.99	217.19
370.37	217.20
370.75	217.25
371.13	217.17
371.51	217.14
371.89	217.15
372.27	217.15
372.65	217.16
373.03	217.13
373.41	217.06
373.78	217.01
374.16	216.91
374.54	216.77
374.92	216.69
375.30	216.67
375.68	216.58
376.06	216.54
376.44	216.49
376.82	216.48
377.19	216.41
377.57	216.37
377.95	216.24
378.33	216.17
378.71	216.01
379.09	215.97
379.47	215.95
379.84	215.86
380.22	215.74
380.60	215.67
380.98	215.59
381.36	215.56
381.73	215.48
382.11	215.48
382.49	215.46
382.87	215.40
383.25	215.32
383.62	215.54
384.00	215.48
384.38	215.47
384.76	215.50
385.13	215.56
385.51	215.52
385.89	215.45
386.27	215.42
386.64	215.44
387.02	215.42
387.40	215.36
387.78	215.34
388.15	215.34
388.53	215.32
388.91	215.32
389.29	215.27
389.66	215.30
390.04	215.24
390.42	215.25
390.79	215.23
391.17	215.25
391.55	214.99
391.92	214.94
392.30	214.93
392.68	214.85
393.05	214.81
393.43	214.83
393.81	214.88
394.18	214.88
394.56	214.87
394.94	214.93
395.31	214.91
395.69	215.00
396.06	215.06
396.44	215.09
396.82	215.10
397.19	215.22
397.57	215.22
397.95	215.28
398.32	215.24
398.70	215.30
399.07	215.38
399.45	215.44
399.82	215.54
400.20	215.60
400.58	215.67
400.95	215.67
401.33	215.76
401.70	215.97
402.08	216.06
402.45	216.18
402.83	216.28
403.20	216.41
403.58	216.47
403.95	216.59
404.33	216.77
404.71	216.93
405.08	217.21
405.46	217.41
405.83	217.63
406.21	217.85
406.58	218.10
406.96	218.32
407.33	218.58
407.70	218.88
408.08	219.35
408.45	219.74
408.83	220.16
409.20	220.49
409.58	220.78
409.95	221.25
410.33	221.74
410.70	222.20
411.08	222.76
411.45	223.34
411.82	223.93
412.20	224.61
412.57	225.41
412.95	225.99
413.32	226.81
413.69	227.59
414.07	228.52
414.44	229.51
414.82	230.51
415.19	231.68
415.56	232.88
415.94	234.07
416.31	235.45
416.68	236.82
417.06	238.42
417.43	239.99
417.81	241.72
418.18	243.52
418.55	245.45
418.93	247.48
419.30	249.61
419.67	251.84
420.04	254.09
420.42	256.51
420.79	259.32
421.16	262.15
421.54	265.11
421.91	268.10
422.28	271.19
422.66	274.53
423.03	277.76
423.40	281.13
423.77	284.73
424.15	288.40
424.52	292.23
424.89	296.44
425.26	300.50
425.64	304.36
426.01	308.64
426.38	313.13
426.75	317.69
427.13	322.39
427.50	327.42
427.87	332.69
428.24	337.89
428.61	342.84
428.99	348.32
429.36	354.34
429.73	360.27
430.10	366.16
430.47	372.22
430.85	378.55
431.22	385.26
431.59	392.36
431.96	399.18
432.33	406.69
432.70	413.97
433.08	422.51
433.45	430.65
433.82	438.60
434.19	447.47
434.56	456.21
434.93	464.56
435.30	472.80
435.68	481.87
436.05	490.86
436.42	499.78
436.79	507.97
437.16	516.76
437.53	526.01
437.90	535.23
438.27	544.26
438.64	553.54
439.01	562.10
439.38	569.65
439.75	576.97
440.13	585.37
440.50	593.28
440.87	599.73
441.24	606.35
441.61	613.79
441.98	619.23
442.35	625.56
442.72	631.95
443.09	638.00
443.46	641.76
443.83	644.32
444.20	646.55
444.57	649.72
444.94	651.20
445.31	652.60
445.68	653.92
446.05	654.51
446.42	653.73
446.79	652.76
447.16	651.72
447.53	650.99
447.90	647.70
448.27	644.42
448.64	639.76
449.01	636.47
449.37	630.49
449.74	624.76
450.11	617.82
450.48	610.41
450.85	602.95
451.22	596.46
451.59	590.29
451.96	584.40
452.33	576.43
452.70	569.29
453.07	560.86
453.43	552.23
453.80	543.90
454.17	535.87
454.54	528.28
454.91	520.10
455.28	512.07
455.65	504.66
456.02	497.19
456.38	490.82
456.75	482.94
457.12	476.39
457.49	469.88
457.86	463.71
458.23	458.26
458.59	452.36
458.96	446.39
459.33	441.02
459.70	435.68
460.07	431.46
460.43	426.54
460.80	421.92
461.17	417.94
461.54	413.73
461.91	409.72
462.27	405.59
462.64	402.07
463.01	398.31
463.38	394.60
463.74	390.86
464.11	387.64
464.48	384.77
464.85	381.68
465.21	379.25
465.58	376.62
465.95	373.51
466.32	370.87
466.68	368.27
467.05	365.74
467.42	363.17
467.78	360.49
468.15	357.96
468.52	356.06
468.88	353.58
469.25	351.37
469.62	349.56
469.98	347.62
470.35	345.85
470.72	344.17
471.08	342.38
471.45	340.85
471.82	339.27
472.18	337.58
472.55	336.35
472.92	334.94
473.28	333.72
473.65	332.58
474.02	331.44
474.38	330.52
474.75	329.73
475.11	328.93
475.48	328.32
475.85	327.84
476.21	327.33
476.58	326.96
476.94	326.68
477.31	326.33
477.67	326.06
478.04	325.89
478.41	325.79
478.77	325.94
479.14	325.88
479.50	326.06
479.87	326.30
480.23	326.58
480.60	326.82
480.96	327.05
481.33	327.64
481.69	328.21
482.06	328.68
482.42	329.16
482.79	329.77
483.15	330.58
483.52	331.54
483.88	332.44
484.25	333.34
484.61	334.34
484.98	335.42
485.34	336.79
485.71	338.15
486.07	339.61
486.44	340.94
486.80	342.54
487.17	344.16
487.53	346.07
487.90	347.98
488.26	350.02
488.62	352.24
488.99	354.30
489.35	356.47
489.72	358.91
490.08	361.40
490.44	363.93
490.81	366.63
491.17	369.31
491.54	372.26
491.90	375.27
492.26	378.54
492.63	381.98
492.99	385.42
493.36	389.16
493.72	393.06
494.08	397.06
494.45	401.29
494.81	405.71
495.17	410.13
495.54	414.86
495.90	419.66
496.26	424.57
496.63	429.74
496.99	435.15
497.35	440.78
497.72	446.68
498.08	452.65
498.44	458.78
498.80	465.23
499.17	471.73
499.53	478.51
499.89	485.48
500.26	492.42
500.62	499.56
500.98	506.96
501.34	514.46
501.71	522.22
502.07	530.07
502.43	538.11
502.79	546.27
503.16	554.63
503.52	563.28
503.88	572.07
504.24	581.09
504.60	590.22
504.97	599.45
505.33	608.77
505.69	618.62
506.05	628.50
506.41	638.41
506.78	648.51
507.14	658.81
507.50	669.15
507.86	679.89
508.22	690.64
508.59	701.32
508.95	712.42
509.31	723.76
509.67	735.31
510.03	746.83
510.39	758.59
510.75	770.56
511.12	782.53
511.48	794.58
511.84	806.86
512.20	819.29
512.56	831.99
512.92	844.72
513.28	857.48
513.64	870.36
514.00	883.24
514.37	896.30
514.73	909.48
515.09	922.69
515.45	935.66
515.81	948.82
516.17	962.23
516.53	975.54
516.89	988.74
517.25	1002.00
517.61	1015.53
517.97	1029.01
518.33	1042.13
518.69	1055.62
519.05	1069.51
519.41	1083.27
519.77	1097.22
520.13	1110.57
520.49	1123.91
520.85	1137.40
521.21	1150.78
521.57	1164.54
521.93	1177.74
522.29	1191.56
522.65	1205.22
523.01	1218.98
523.37	1232.36
523.73	1245.92
524.09	1259.15
524.45	1272.72
524.81	1286.24
525.17	1299.75
525.53	1313.09
525.89	1326.61
526.25	1340.05
526.61	1352.97
526.97	1366.17
527.33	1379.26
527.68	1392.90
528.04	1406.48
528.40	1419.63
528.76	1433.14
529.12	1446.13
529.48	1459.44
529.84	1471.83
530.20	1484.82
530.56	1497.54
530.91	1510.81
531.27	1523.62
531.63	1536.53
531.99	1549.39
532.35	1561.89
532.71	1574.38
533.07	1587.38
533.42	1599.74
533.78	1611.95
534.14	1624.19
534.50	1635.61
534.86	1647.19
535.21	1658.08
535.57	1669.83
535.93	1681.36
536.29	1692.54
536.65	1704.21
537.00	1715.33
537.36	1726.87
537.72	1737.81
538.08	1749.30
538.44	1760.44
538.79	1771.78
539.15	1782.74
539.51	1793.55
539.87	1804.90
540.22	1815.83
540.58	1826.87
540.94	1837.93
541.29	1848.24
541.65	1858.09
542.01	1868.67
542.37	1878.89
542.72	1889.26
543.08	1899.01
543.44	1909.50
543.79	1919.04
544.15	1928.60
544.51	1938.76
544.87	1948.77
545.22	1958.01
545.58	1967.01
545.94	1975.95
546.29	1984.39
546.65	1992.93
547.01	2001.31
547.36	2009.10
547.72	2017.01
548.07	2024.71
548.43	2032.43
548.79	2040.40
549.14	2048.63
549.50	2057.23
549.86	2065.15
550.21	2072.58
550.57	2080.43
550.92	2087.27
551.28	2094.64
551.64	2101.85
551.99	2109.32
552.35	2116.48
552.70	2123.63
553.06	2130.34
553.41	2136.70
553.77	2143.51
554.13	2149.90
554.48	2156.88
554.84	2164.12
555.19	2170.62
555.55	2177.09
555.90	2183.41
556.26	2190.23
556.61	2196.32
556.97	2201.11
557.32	2206.88
557.68	2213.36
558.03	2219.08
558.39	2224.46
558.74	2230.46
559.10	2236.08
559.45	2241.79
559.81	2247.34
560.16	2252.91
560.52	2258.76
560.87	2265.23
561.23	2270.91
561.58	2277.70
561.94	2282.93
562.29	2287.53
562.64	2293.64
563.00	2299.18
563.35	2304.80
563.71	2310.57
564.06	2316.35
564.42	2322.24
564.77	2327.42
565.12	2332.74
565.48	2337.97
565.83	2343.52
566.19	2348.96
566.54	2354.17
566.89	2358.66
567.25	2363.31
567.60	2368.82
567.96	2374.04
568.31	2378.48
568.66	2382.83
569.02	2386.76
569.37	2390.53
569.72	2394.85
570.08	2398.36
570.43	2401.66
570.78	2404.83
571.14	2407.45
571.49	2410.39
571.84	2413.85
572.20	2416.88
572.55	2419.85
572.90	2421.88
573.26	2424.62
573.61	2427.13
573.96	2429.33
574.31	2431.49
574.67	2433.19
575.02	2434.00
575.37	2435.31
575.72	2435.92
576.08	2437.35
576.43	2437.31
576.78	2437.76
577.13	2439.36
577.49	2440.45
577.84	2441.37
578.19	2442.48
578.54	2442.83
578.90	2443.53
579.25	2443.39
579.60	2442.98
579.95	2442.02
580.30	2442.17
580.66	2441.40
581.01	2439.70
581.36	2437.33
581.71	2435.63
582.06	2434.44
582.42	2433.61
582.77	2431.28
583.12	2429.73
583.47	2428.31
583.82	2427.77
584.17	2426.35
584.53	2424.05
584.88	2421.87
585.23	2419.88
585.58	2417.52
585.93	2415.43
586.28	2413.15
586.63	2410.67
586.98	2408.52
587.34	2406.57
587.69	2404.03
588.04	2401.88
588.39	2400.32
588.74	2397.69
589.09	2394.98
589.44	2391.69
589.79	2389.04
590.14	2387.15
590.49	2384.15
590.84	2380.19
591.19	2376.86
591.54	2373.45
591.89	2369.38
592.25	2365.96
592.60	2361.62
592.95	2357.50
593.30	2353.22
593.65	2348.77
594.00	2344.27
594.35	2341.12
594.70	2336.28
595.05	2331.63
595.40	2326.08
595.75	2320.17
596.10	2316.45
596.45	2311.64
596.80	2307.12
597.15	2302.07
597.50	2296.06
597.85	2291.21
598.19	2285.94
598.54	2280.01
598.89	2274.84
599.24	2270.24
599.59	2264.07
599.94	2258.19
600.29	2252.19
600.64	2246.19
600.99	2239.26
601.34	2233.63
601.69	2226.67
602.04	2220.24
602.39	2213.64
602.74	2207.44
603.08	2202.01
603.43	2195.61
603.78	2188.67
604.13	2181.50
604.48	2173.87
604.83	2167.63
605.18	2161.22
605.53	2154.23
605.87	2147.21
606.22	2140.23
606.57	2132.39
606.92	2124.40
607.27	2117.45
607.62	2110.77
607.96	2103.73
608.31	2097.29
608.66	2089.60
609.01	2081.86
609.36	2074.79
609.70	2067.06
610.05	2059.34
610.40	2050.89
610.75	2042.36
611.10	2034.59
611.44	2025.65
611.79	2016.98
612.14	2006.96
612.49	1996.20
612.83	1986.85
613.18	1977.55
613.53	1968.25
613.88	1958.54
614.22	1949.85
614.57	1940.00
614.92	1929.34
615.27	1919.09
615.61	1908.84
615.96	1899.07
616.31	1889.46
616.65	1879.98
617.00	1870.12
617.35	1860.42
617.70	1850.74
618.04	1840.72
618.39	1830.44
618.74	1820.74
619.08	1811.03
619.43	1802.31
619.78	1794.04
620.12	1785.39
620.47	1775.78
620.82	1765.51
621.16	1755.67
621.51	1745.75
621.85	1735.86
622.20	1725.37
622.55	1714.88
622.89	1704.99
623.24	1695.32
623.59	1685.53
623.93	1675.38
624.28	1665.58
624.62	1655.58
624.97	1645.22
625.32	1635.40
625.66	1626.52
626.01	1617.78
626.35	1608.41
626.70	1598.34
627.04	1588.24
627.39	1578.16
627.73	1568.87
628.08	1559.89
628.43	1550.32
628.77	1541.17
629.12	1532.13
629.46	1524.31
629.81	1515.94
630.15	1506.43
630.50	1496.70
630.84	1486.21
631.19	1476.39
631.53	1467.04
631.88	1456.73
632.22	1446.75
632.57	1437.46
632.91	1427.37
633.26	1417.44
633.60	1407.88
633.95	1398.67
634.29	1389.21
634.64	1379.79
634.98	1369.76
635.32	1360.43
635.67	1351.97
636.01	1342.60
636.36	1332.98
636.70	1323.48
637.05	1314.02
637.39	1305.15
637.73	1296.43
638.08	1288.80
638.42	1280.63
638.77	1271.82
639.11	1263.55
639.45	1255.71
639.80	1247.20
640.14	1238.42
640.49	1229.52
640.83	1220.65
641.17	1212.35
641.52	1204.22
641.86	1195.68
642.20	1187.84
642.55	1179.28
642.89	1170.29
643.23	1161.63
643.58	1153.49
643.92	1144.49
644.26	1135.78
644.61	1127.33
644.95	1118.45
645.29	1109.21
645.64	1099.98
645.98	1091.45
646.32	1083.48
646.66	1074.96
647.01	1066.53
647.35	1058.35
647.69	1050.11
648.04	1041.83
648.38	1032.94
648.72	1024.18
649.06	1015.68
649.41	1007.47
649.75	999.39
650.09	991.59
650.43	983.60
650.78	975.22
651.12	967.43
651.46	960.04
651.80	952.77
652.14	945.59
652.49	938.08
652.83	930.70
653.17	923.07
653.51	915.46
653.85	908.15
654.20	900.86
654.54	893.46
654.88	886.06
655.22	878.84
655.56	871.88
655.90	864.97
656.25	858.28
656.59	851.39
656.93	844.32
657.27	837.13
657.61	830.09
657.95	823.95
658.29	818.03
658.64	811.86
658.98	805.30
659.32	798.60
659.66	792.30
660.00	785.84
660.34	779.69
660.68	773.49
661.02	767.12
661.36	761.08
661.70	755.11
662.05	749.56
662.39	743.96
662.73	738.43
663.07	733.02
663.41	727.38
663.75	721.60
664.09	715.95
664.43	710.47
664.77	705.08
665.11	699.18
665.45	693.17
665.79	687.30
666.13	681.59
666.47	676.05
666.81	670.55
667.15	665.16
667.49	659.94
667.83	654.68
668.17	649.42
668.51	644.20
668.85	639.38
669.19	634.39
669.53	629.38
669.87	624.27
670.21	619.51
670.55	614.75
670.89	610.21
671.23	605.87
671.57	601.44
671.91	597.12
672.25	593.01
672.58	588.93
672.92	584.86
673.26	580.89
673.60	577.01
673.94	573.16
674.28	569.57
674.62	565.75
674.96	561.97
675.30	558.38
675.64	554.74
675.97	551.06
676.31	547.40
676.65	543.75
676.99	540.30
677.33	536.35
677.67	532.64
678.01	528.81
678.34	525.09
678.68	521.50
679.02	517.78
679.36	514.06
679.70	510.34
680.04	506.70
680.37	503.24
680.71	499.92
681.05	496.70
681.39	493.39
681.73	490.18
682.06	487.07
682.40	483.97
682.74	480.74
683.08	477.43
683.42	474.21
683.75	471.23
684.09	468.10
684.43	465.33
684.77	462.35
685.10	459.49
685.44	456.56
685.78	453.59
686.12	450.83
686.45	448.02
686.79	445.34
687.13	442.83
687.46	440.10
687.80	437.31
688.14	434.42
688.48	431.73
688.81	429.06
689.15	426.50
689.49	423.86
689.82	421.32
690.16	418.73
690.50	416.22
690.83	413.66
691.17	411.08
691.51	408.53
691.84	406.24
692.18	403.93
692.52	401.72
692.85	399.60
693.19	397.43
693.52	395.23
693.86	392.95
694.20	390.74
694.53	388.57
694.87	386.37
695.21	384.23
695.54	382.01
695.88	379.79
696.21	377.56
696.55	375.37
696.88	373.23
697.22	371.25
697.56	369.33
697.89	367.41
698.23	365.61
698.56	363.78
698.90	361.97
699.23	360.06
699.57	358.13
699.90	356.22
700.24	354.41
700.58	352.65
700.91	350.95
701.25	349.37
701.58	347.72
701.92	346.09
702.25	344.50
702.59	342.92
702.92	341.35
703.26	339.74
703.59	338.26
703.93	337.02
704.26	335.53
704.60	334.01
704.93	332.51
705.26	330.99
705.60	329.51
705.93	328.01
706.27	326.67
706.60	325.39
706.94	324.18
707.27	322.74
707.61	321.36
707.94	320.04
708.27	318.47
708.61	317.00
708.94	315.59
709.28	314.24
709.61	312.99
709.94	311.77
710.28	310.57
710.61	309.35
710.95	307.92
711.28	306.82
711.61	305.60
711.95	304.46
712.28	303.27
712.61	302.06
712.95	300.98
713.28	299.93
713.61	298.78
713.95	297.56
714.28	296.54
714.61	295.49
714.95	294.45
715.28	293.41
715.61	292.41
715.95	291.43
716.28	290.42
716.61	289.39
716.95	288.37
717.28	287.41
717.61	286.47
717.94	285.56
718.28	284.52
718.61	283.67
718.94	282.75
719.27	281.91
719.61	281.10
719.94	280.19
720.27	279.19
720.60	278.28
720.94	277.46
721.27	276.66
721.60	275.94
721.93	275.23
722.27	274.57
722.60	273.91
722.93	273.19
723.26	272.55
723.59	271.81
723.93	271.20
724.26	270.54
724.59	269.84
724.92	269.21
725.25	268.67
725.59	268.08
725.92	267.53
726.25	266.95
726.58	266.38
726.91	265.79
727.24	265.27
727.57	264.69
727.91	264.08
728.24	263.53
728.57	262.92
728.90	262.32
729.23	261.71
729.56	261.27
729.89	260.75
730.22	260.13
730.55	259.62
730.89	259.05
731.22	258.53
731.55	258.05
731.88	257.52
732.21	256.94
732.54	256.40
732.87	255.86
733.20	255.33
733.53	254.85
733.86	254.38
734.19	253.89
734.52	253.49
734.85	253.22
735.18	252.74
735.51	252.36
735.84	251.94
736.17	251.54
736.50	250.98
736.83	250.82
737.16	250.47
737.49	250.07
737.82	249.67
738.15	249.27
738.48	248.86
738.81	248.46
739.14	248.03
739.47	247.62
739.80	247.24
740.13	246.89
740.46	246.48
740.79	246.07
741.12	245.70
741.45	245.29
741.78	244.82
742.11	244.54
742.44	244.16
742.77	243.85
743.10	243.51
743.43	243.17
743.75	242.57
744.08	242.47
744.41	242.10
744.74	241.73
745.07	241.37
745.40	241.03
745.73	240.76
746.06	240.46
746.39	240.19
746.71	239.83
747.04	239.47
747.37	239.13
747.70	238.87
748.03	238.54
748.36	238.27
748.68	237.97
749.01	237.57
749.34	237.26
749.67	236.94
750.00	236.67
750.33	236.55
750.65	236.31
750.98	235.78
751.31	235.56
751.64	235.33
751.97	235.19
752.29	234.91
752.62	234.58
752.95	234.31
753.28	234.02
753.60	233.78
753.93	233.64
754.26	233.45
754.59	233.14
754.91	232.91
755.24	232.66
755.57	232.39
755.90	232.19
756.22	231.94
756.55	231.66
756.88	231.38
757.20	231.00
757.53	230.73
757.86	230.52
758.19	230.35
758.51	230.13
758.84	229.81
759.17	229.63
759.49	229.46
759.82	229.38
760.15	229.19
760.47	229.00
760.80	228.69
761.13	228.55
761.45	228.36
761.78	228.16
762.11	227.98
762.43	227.80
762.76	227.63
763.08	227.48
763.41	227.36
763.74	227.21
764.06	227.06
764.39	226.92
764.71	226.72
765.04	226.54
765.37	226.37
765.69	226.20
766.02	226.06
766.34	225.93
766.67	225.70
767.00	225.65
767.32	225.65
767.65	225.65
767.97	225.44
768.30	225.35
768.62	225.22
768.95	225.08
769.27	224.94
769.60	224.88
769.92	224.73
770.25	224.54
770.57	224.39
770.90	224.28
771.22	224.13
771.55	224.05
771.87	223.93
772.20	223.78
772.52	223.86
772.85	223.97
773.17	223.85
773.50	223.73
773.82	223.59
774.15	223.36
774.47	223.12
774.80	223.04
775.12	222.89
775.45	222.81
775.77	222.70
776.09	222.63
776.42	222.50
776.74	222.46
777.07	222.38
777.39	222.31
777.72	222.19
778.04	222.11
778.36	222.01
778.69	221.93
779.01	221.91
779.33	221.66
779.66	221.35
779.98	221.26
780.31	221.19
780.63	221.20
780.95	221.18
781.28	221.10
781.60	220.99
781.92	220.95
782.25	220.91
782.57	220.84
782.89	220.82
783.22	220.71
783.54	220.60
783.86	220.59
784.19	220.48
784.51	220.48
784.83	220.41
785.16	220.34
785.48	220.26
785.80	220.23
786.12	220.20
786.45	220.12
786.77	220.06
787.09	220.00
787.42	219.85
787.74	219.77
788.06	219.75
788.38	219.71
788.71	219.64
789.03	219.55
789.35	219.51
789.67	219.38
789.99	219.37
790.32	219.31
790.64	219.26
790.96	219.43
791.28	219.29
791.61	219.21
791.93	219.19
792.25	219.13
792.57	219.16
792.89	219.06
793.21	219.01
793.54	218.94
793.86	218.87
794.18	218.80
794.50	218.71
794.82	218.63
795.14	218.59
795.47	218.57
795.79	218.53
796.11	218.44
796.43	218.42
796.75	218.39
797.07	218.34
797.39	218.27
797.71	218.05
798.04	218.01
798.36	218.00
798.68	217.95
799.00	217.92
799.32	217.74
799.64	217.75
799.96	217.74
800.28	217.75
800.60	217.68
800.92	217.69
801.24	217.67
801.56	217.64
801.89	217.58
802.21	217.56
802.53	217.50
802.85	217.52
803.17	217.56
803.49	217.46
803.81	217.40
804.13	217.37
804.45	217.33
804.77	217.32
805.09	217.32
805.41	217.27
805.73	217.23
806.05	217.17
806.37	217.10
806.69	217.02
807.01	216.96
807.33	216.96
807.65	216.86
807.97	216.92
808.28	216.87
808.60	216.82
808.92	216.79
809.24	216.90
809.56	216.84
809.88	216.73
810.20	216.73
810.52	216.76
810.84	216.72
811.16	216.66
811.48	216.62
811.80	216.64
812.12	216.60
812.43	216.63
812.75	216.65
813.07	216.64
813.39	216.64
813.71	216.59
814.03	216.54
814.35	216.51
814.67	216.42
814.98	216.40
815.30	216.41
815.62	216.39
815.94	216.21
816.26	216.19
816.58	216.15
816.89	216.14
817.21	216.07
817.53	216.07
817.85	216.09
818.17	216.07
818.48	215.97
818.80	215.97
819.12	215.90
819.44	215.85
819.76	215.81
820.07	215.80
820.39	215.78
820.71	215.81
821.03	215.79
821.34	215.72
821.66	215.73
821.98	215.72
822.30	215.66
822.61	215.81
822.93	215.78
823.25	215.77
823.57	215.75
823.88	215.78
824.20	215.75
824.52	215.74
824.83	215.75
825.15	215.71
825.47	215.68
825.79	215.68
826.10	215.66
826.42	215.64
826.74	215.64
827.05	215.67
827.37	215.63
827.69	215.61
828.00	215.63
828.32	215.61
828.64	215.58
828.95	215.66
829.27	215.58
829.58	215.57
829.90	215.57
830.22	215.57
830.53	215.49
830.85	215.45
831.17	215.39
831.48	215.35
831.80	215.36
832.11	215.35
832.43	215.32
832.75	215.32
833.06	215.45
833.38	215.36
833.69	215.33
834.01	215.36
834.32	215.34
834.64	215.33
834.96	215.32
835.27	215.31
835.59	215.24
835.90	215.16
836.22	215.16
836.53	215.13
836.85	215.08
837.16	215.28
837.48	215.30
837.79	215.35
838.11	215.37
838.42	215.35
838.74	215.40
839.05	215.37
839.37	215.34
839.68	215.20
840.00	215.20
840.31	215.22
840.63	215.22
840.94	215.21
841.26	215.17
841.57	215.14
841.88	215.15
842.20	215.11
842.51	215.09
842.83	215.12
843.14	215.28
843.46	215.29
843.77	215.17
844.08	215.16
844.40	215.11
844.71	215.07
845.03	215.07
845.34	215.01
845.65	214.99
845.97	214.99
846.28	214.99
846.60	215.02
846.91	214.95
847.22	214.89
847.54	214.93
847.85	214.95
848.16	214.96
848.48	214.93
848.79	215.00
849.10	215.03
849.42	214.98
849.73	214.79
850.04	214.77
850.36	214.69
850.67	214.72
850.98	214.70
851.30	214.73
851.61	214.72
851.92	214.72
852.23	214.83
852.55	214.85
852.86	214.85
853.17	214.86
853.49	214.91
853.80	214.95
854.11	214.97
854.42	215.04
854.74	215.00
855.05	214.99
855.36	214.88
855.67	214.88
855.99	214.88
856.30	215.13
856.61	215.16
856.92	215.19
857.23	215.13
857.55	215.10
857.86	215.07
858.17	215.11
858.48	215.10
858.79	214.99
859.11	214.98
859.42	214.98
859.73	214.91
860.04	214.90
860.35	214.83
860.66	214.72
860.98	214.69
861.29	214.71
861.60	214.71
861.91	214.78
862.22	214.75
862.53	214.75
862.84	214.53
863.16	214.53
863.47	214.47
863.78	214.49
864.09	214.49
864.40	214.50
864.71	214.50
865.02	214.49
865.33	214.49
865.64	214.46
865.95	214.45
866.27	214.63
866.58	214.64
866.89	214.66
867.20	214.69
867.51	214.60
867.82	214.62
868.13	214.70
868.44	214.65
868.75	214.69
869.06	214.68
869.37	214.67
869.68	214.63
869.99	214.65
870.30	214.69
870.61	214.72
870.92	214.73
871.23	214.73
871.54	214.75
871.85	214.76
872.16	214.80
872.47	214.81
872.78	214.64
873.09	214.64
873.40	214.64
873.71	214.65
874.02	214.69
874.33	214.61
874.64	214.52
874.95	214.56
875.26	214.51
875.56	214.50
875.87	214.51
876.18	214.49
876.49	214.72
876.80	214.66
877.11	214.64
877.42	214.61
877.73	214.59
878.04	214.56
878.35	214.56
878.66	214.55
878.96	214.52
879.27	214.56
879.58	214.54
879.89	214.52
880.20	214.57
880.51	214.56
880.82	214.59
881.12	214.61
881.43	214.56
881.74	214.54
882.05	214.54
882.36	214.53
882.67	214.56
882.97	214.33
883.28	214.32
883.59	214.31
883.90	214.32
884.21	214.33
884.51	214.32
884.82	214.29
885.13	214.29
885.44	214.29
885.74	214.27
886.05	214.25
886.36	214.26
886.67	214.20
886.98	214.31
887.28	214.33
887.59	214.34
887.90	214.35
888.20	214.31
888.51	214.35
888.82	214.34
889.13	214.33
889.43	214.48
889.74	214.47
890.05	214.47
890.35	214.44
890.66	214.43
890.97	214.43
891.28	214.44
891.58	214.43
891.89	214.45
892.20	214.42
892.50	214.40
892.81	214.36
893.12	214.37
893.42	214.26
893.73	214.26
894.04	214.25
894.34	214.27
894.65	214.32
894.95	214.30
895.26	214.30
895.57	214.39
895.87	214.20
896.18	214.26
896.48	214.27
896.79	214.27
897.10	214.27
897.40	214.25
897.71	214.28
898.01	214.27
898.32	214.30
898.63	214.30
898.93	214.35
899.24	214.38
899.54	214.34
899.85	214.30
900.15	214.29
900.46	214.31
900.76	214.32
901.07	214.29
901.38	214.28
901.68	214.28
901.99	214.17
902.29	214.18
902.60	214.14
902.90	214.15
903.21	214.16
903.51	214.17
903.82	214.22
904.12	214.20
904.43	214.18
904.73	214.18
905.03	214.22
905.34	214.38
905.64	214.33
905.95	214.33
906.25	214.38
906.56	214.37
906.86	214.34
907.17	214.31
907.47	214.31
907.77	214.27
908.08	214.23
908.38	214.23
908.69	214.26
908.99	214.31
909.30	214.32
909.60	214.31
909.90	214.28
910.21	214.23
910.51	214.21
910.81	214.24
911.12	214.22
911.42	214.18
911.73	213.99
912.03	214.02
912.33	214.09
912.64	214.06
912.94	214.05
913.24	214.03
913.55	214.04
913.85	214.05
914.15	214.07
914.46	214.11
914.76	214.11
915.06	214.07
915.37	214.04
915.67	214.00
915.97	214.00
916.27	213.98
916.58	214.01
916.88	214.00
917.18	213.98
917.49	214.10
917.79	214.09
918.09	214.14
918.39	214.21
918.70	214.18
919.00	214.19
919.30	214.31
919.60	214.27
919.91	214.22
920.21	214.24
920.51	214.22
920.81	214.22
921.12	214.26
921.42	214.27
921.72	214.28
922.02	214.30
922.32	214.30
922.63	214.30
922.93	214.37
923.23	214.41
923.53	214.39
923.83	214.25
924.13	214.28
924.44	214.26
924.74	214.29
925.04	214.38
925.34	214.39
925.64	214.30
925.94	214.34
926.24	214.46
926.55	214.42
926.85	214.45
927.15	214.45
927.45	214.44
927.75	214.43
928.05	214.44
928.35	214.42
928.65	214.46
928.95	214.47
929.26	214.42
929.56	214.44
929.86	214.46
930.16	214.46
930.46	214.42
930.76	214.42
931.06	214.33
931.36	214.25
931.66	214.27
931.96	214.28
932.26	214.30
932.56	214.19
932.86	214.21
933.16	214.23
933.46	214.21
933.76	214.18
934.06	214.23
934.36	214.31
934.66	214.32
934.96	214.30
935.26	214.31
935.56	214.33
935.86	214.29
936.16	214.27
936.46	214.25
936.76	214.26
937.06	214.25
937.36	214.24
937.66	214.23
937.96	214.23
938.26	214.21
938.56	214.18
938.86	214.20
939.16	214.23
939.46	214.23
939.76	214.25
940.06	214.24
940.35	214.17
940.65	214.07
940.95	214.07
941.25	214.01
941.55	213.98
941.85	213.95
942.15	213.98
942.45	214.02
942.75	214.01
943.04	213.99
943.34	214.00
943.64	214.00
943.94	214.00
944.24	213.98
944.54	213.97
944.84	213.96
945.13	213.94
945.43	213.94
945.73	213.91
946.03	213.90
946.33	213.87
946.62	213.87
946.92	213.86
947.22	213.86
947.52	213.88
947.82	213.91
948.11	213.91
948.41	213.85
948.71	213.80
949.01	213.83
949.31	213.85
949.60	213.86
949.90	213.90
950.20	213.87
950.50	213.85
950.79	213.83
951.09	213.87
951.39	213.86
951.69	213.81
951.98	213.85
952.28	213.84
952.58	213.83
952.87	213.86
953.17	213.89
953.47	213.87
953.76	213.88
954.06	213.84
954.36	213.82
954.66	213.83
954.95	213.88
955.25	213.90
955.55	213.90
955.84	213.85
956.14	213.83
956.44	213.88
956.73	213.87
957.03	213.90
957.32	213.90
957.62	213.89
957.92	213.97
958.21	213.97
958.51	214.20
958.81	214.23
959.10	214.24
959.40	214.25
959.69	214.27
959.99	214.29
960.29	214.31
960.58	214.28
960.88	214.37
961.17	214.36
961.47	214.39
961.76	214.38
962.06	214.43
962.36	214.40
962.65	214.37
962.95	214.40
963.24	214.36
963.54	214.37
963.83	214.35
964.13	214.34
964.42	214.27
964.72	214.10
965.01	214.11
965.31	214.08
965.60	214.06
965.90	214.18
966.19	214.14
966.49	214.15
966.78	214.16
967.08	214.15
967.37	214.16
967.67	214.10
967.96	214.14
968.26	214.14
968.55	214.18
968.85	214.18
969.14	214.17
969.43	214.19
969.73	214.15
970.02	214.17
970.32	214.13
970.61	214.15
970.91	214.10
971.20	214.06
971.49	214.03
971.79	214.07
972.08	213.93
972.38	213.95
972.67	213.95
972.96	213.95
973.26	213.88
973.55	213.94
973.85	213.93
974.14	213.90
974.43	213.90
974.73	213.86
975.02	213.84
975.31	213.85
975.61	213.85
975.90	213.84
976.19	213.82
976.49	213.87
976.78	213.86
977.07	213.86
977.37	213.87
977.66	213.91
977.95	213.86
978.24	213.90
978.54	213.94
978.83	213.91
979.12	213.93
979.42	213.96
979.71	213.91
980.00	213.90
980.29	213.93
980.59	213.91
980.88	213.95
981.17	213.95
981.46	213.96
981.76	213.93
982.05	213.99
982.34	214.02
982.63	214.00
982.93	213.99
983.22	214.02
983.51	214.03
983.80	214.05
984.09	214.09
984.39	214.05
984.68	214.03
984.97	214.05
985.26	214.02
985.55	214.02
985.85	213.98
986.14	214.04
986.43	214.01
986.72	213.97
987.01	213.90
987.30	213.87
987.59	213.84
987.89	213.88
988.18	213.83
988.47	213.81
988.76	213.77
989.05	213.79
989.34	213.78
989.63	213.86
989.92	213.81
990.22	213.81
990.51	213.79
990.80	213.75
991.09	213.76
991.38	213.77
991.67	213.76
991.96	213.77
992.25	213.73
992.54	213.70
992.83	213.70
993.12	213.69
993.41	213.76
993.70	213.86
993.99	213.88
994.28	213.91
994.58	213.93
994.87	213.94
995.16	213.96
995.45	213.93
995.74	213.83
996.03	213.86
996.32	213.88
996.61	213.95
996.90	213.96
997.19	213.93
997.48	213.91
997.77	213.91
998.06	213.92
998.34	213.91
998.63	213.92
998.92	213.94
999.21	213.98
999.50	213.96
999.79	213.87
1000.08	213.88
1000.37	213.88
1000.66	213.85
1000.95	213.91
1001.24	213.91
1001.53	213.95
1001.82	213.93
1002.11	213.88
1002.40	213.85
1002.68	213.88
1002.97	214.03
1003.26	214.02
1003.55	214.01
1003.84	214.03
1004.13	214.08
1004.42	214.07
1004.71	214.08
1004.99	214.06
1005.28	214.11
1005.57	214.10
1005.86	214.08
1006.15	214.04
1006.44	213.98
1006.72	214.04
1007.01	214.00
1007.30	213.99
1007.59	213.95
1007.88	213.98
1008.17	214.02
1008.45	213.97
1008.74	213.89
1009.03	213.78
1009.32	213.79
1009.60	213.80
1009.89	213.79
1010.18	213.72
1010.47	213.72
1010.76	213.73
1011.04	213.73
1011.33	213.75
1011.62	213.79
1011.91	213.77
1012.19	213.80
1012.48	213.81
1012.77	213.81
1013.05	213.90
1013.34	213.89
1013.63	213.91
1013.92	213.91
1014.20	213.86
1014.49	213.88
1014.78	213.89
1015.06	213.82
1015.35	213.84
1015.64	213.86
1015.92	213.86
1016.21	213.87
1016.50	213.86
1016.78	213.88
1017.07	213.93
1017.36	213.88
1017.64	213.83
1017.93	213.90
1018.22	213.89
1018.50	213.88
1018.79	213.84
1019.08	213.77
1019.36	213.78
1019.65	213.74
1019.93	213.78
1020.22	213.80
1020.51	213.91
1020.79	213.91
1021.08	213.61
1021.36	213.40
1021.65	213.68
1021.94	214.22
1022.22	213.90
1022.51	212.92
1022.79	214.56
1023.08	213.43
1023.36	216.05
1023.65	213.68
>>>>>End Processed Spectral Data<<<<<
