SpectraSuite Data File
++++++++++++++++++++++++++++++++++++
Date: Tue Jan 29 16:42:37 EST 2013
User: group
Dark Spectrum Present: No
Reference Spectrum Present: No
Number of Sampled Component Spectra: 1
Spectrometers: USB2E7196
Integration Time (usec): 65000 (USB2E7196)
Spectra Averaged: 100 (USB2E7196)
Boxcar Smoothing: 10 (USB2E7196)
Correct for Electrical Dark: No (USB2E7196)
Strobe/Lamp Enabled: No (USB2E7196)
Correct for Detector Non-linearity: No (USB2E7196)
Correct for Stray Light: No (USB2E7196)
Number of Pixels in Processed Spectrum: 2048
>>>>>Begin Processed Spectral Data<<<<<
339.09	0.00
339.48	202.06
339.86	203.07
340.24	204.60
340.63	205.66
341.01	210.46
341.39	208.97
341.78	210.25
342.16	211.73
342.54	211.34
342.93	200.95
343.31	211.09
343.69	211.63
344.07	212.09
344.46	212.55
344.84	212.97
345.22	213.12
345.60	213.38
345.99	213.56
346.37	213.69
346.75	213.83
347.13	213.90
347.52	213.97
347.90	214.07
348.28	214.13
348.66	214.24
349.05	214.21
349.43	214.30
349.81	214.38
350.19	214.42
350.57	214.48
350.96	214.58
351.34	214.72
351.72	214.81
352.10	214.93
352.48	214.95
352.87	215.01
353.25	215.11
353.63	215.14
354.01	215.23
354.39	215.30
354.77	215.37
355.15	215.53
355.54	215.58
355.92	215.58
356.30	215.64
356.68	215.84
357.06	215.94
357.44	215.93
357.82	215.98
358.20	216.08
358.58	216.13
358.97	216.22
359.35	216.31
359.73	216.39
360.11	216.45
360.49	216.53
360.87	216.56
361.25	216.64
361.63	216.80
362.01	216.86
362.39	216.90
362.77	216.96
363.15	216.96
363.53	217.03
363.91	217.07
364.29	217.10
364.67	216.92
365.05	216.95
365.43	217.01
365.81	217.05
366.19	217.15
366.57	217.29
366.95	217.28
367.33	217.22
367.71	217.22
368.09	217.26
368.47	217.26
368.85	217.25
369.23	217.27
369.61	217.17
369.99	217.19
370.37	217.19
370.75	217.25
371.13	217.20
371.51	217.15
371.89	217.18
372.27	217.17
372.65	217.15
373.03	217.13
373.41	217.12
373.78	217.04
374.16	216.87
374.54	216.74
374.92	216.68
375.30	216.66
375.68	216.60
376.06	216.55
376.44	216.51
376.82	216.51
377.19	216.44
377.57	216.41
377.95	216.32
378.33	216.28
378.71	216.15
379.09	216.13
379.47	216.11
379.84	216.03
380.22	215.96
380.60	215.89
380.98	215.83
381.36	215.76
381.73	215.72
382.11	215.74
382.49	215.72
382.87	215.65
383.25	215.60
383.62	215.79
384.00	215.71
384.38	215.68
384.76	215.65
385.13	215.70
385.51	215.65
385.89	215.60
386.27	215.53
386.64	215.52
387.02	215.46
387.40	215.40
387.78	215.35
388.15	215.35
388.53	215.33
388.91	215.31
389.29	215.27
389.66	215.30
390.04	215.24
390.42	215.25
390.79	215.26
391.17	215.23
391.55	214.99
391.92	214.98
392.30	215.02
392.68	214.96
393.05	214.96
393.43	215.01
393.81	214.99
394.18	215.01
394.56	215.01
394.94	215.09
395.31	215.10
395.69	215.20
396.06	215.26
396.44	215.29
396.82	215.27
397.19	215.40
397.57	215.36
397.95	215.45
398.32	215.43
398.70	215.48
399.07	215.60
399.45	215.66
399.82	215.71
400.20	215.73
400.58	215.81
400.95	215.76
401.33	215.83
401.70	216.08
402.08	216.18
402.45	216.29
402.83	216.42
403.20	216.52
403.58	216.58
403.95	216.70
404.33	216.86
404.71	217.08
405.08	217.35
405.46	217.52
405.83	217.72
406.21	217.92
406.58	218.15
406.96	218.36
407.33	218.63
407.70	218.93
408.08	219.38
408.45	219.73
408.83	220.12
409.20	220.43
409.58	220.70
409.95	221.16
410.33	221.64
410.70	222.05
411.08	222.63
411.45	223.25
411.82	223.81
412.20	224.51
412.57	225.29
412.95	225.85
413.32	226.69
413.69	227.47
414.07	228.41
414.44	229.40
414.82	230.43
415.19	231.61
415.56	232.83
415.94	234.04
416.31	235.43
416.68	236.86
417.06	238.52
417.43	240.08
417.81	241.80
418.18	243.60
418.55	245.56
418.93	247.56
419.30	249.68
419.67	251.95
420.04	254.23
420.42	256.63
420.79	259.48
421.16	262.28
421.54	265.24
421.91	268.22
422.28	271.36
422.66	274.62
423.03	277.85
423.40	281.26
423.77	284.86
424.15	288.54
424.52	292.35
424.89	296.50
425.26	300.57
425.64	304.50
426.01	308.78
426.38	313.30
426.75	317.85
427.13	322.63
427.50	327.60
427.87	332.84
428.24	338.02
428.61	342.99
428.99	348.53
429.36	354.57
429.73	360.47
430.10	366.35
430.47	372.51
430.85	378.84
431.22	385.50
431.59	392.62
431.96	399.49
432.33	407.08
432.70	414.33
433.08	422.88
433.45	430.98
433.82	439.04
434.19	447.90
434.56	456.65
434.93	464.98
435.30	473.26
435.68	482.37
436.05	491.42
436.42	500.38
436.79	508.56
437.16	517.36
437.53	526.73
437.90	535.92
438.27	544.85
438.64	554.18
439.01	562.76
439.38	570.32
439.75	577.66
440.13	586.13
440.50	594.16
440.87	600.66
441.24	607.31
441.61	614.67
441.98	620.01
442.35	626.39
442.72	632.75
443.09	638.87
443.46	642.63
443.83	645.18
444.20	647.43
444.57	650.57
444.94	652.03
445.31	653.42
445.68	654.77
446.05	655.44
446.42	654.58
446.79	653.66
447.16	652.62
447.53	651.87
447.90	648.51
448.27	645.26
448.64	640.57
449.01	637.27
449.37	631.30
449.74	625.74
450.11	618.80
450.48	611.37
450.85	603.86
451.22	597.41
451.59	591.30
451.96	585.40
452.33	577.59
452.70	570.51
453.07	562.02
453.43	553.43
453.80	545.06
454.17	537.03
454.54	529.40
454.91	521.22
455.28	513.22
455.65	505.74
456.02	498.17
456.38	491.82
456.75	483.89
457.12	477.35
457.49	470.77
457.86	464.50
458.23	459.09
458.59	453.16
458.96	447.13
459.33	441.76
459.70	436.38
460.07	432.07
460.43	427.13
460.80	422.51
461.17	418.47
461.54	414.26
461.91	410.24
462.27	406.15
462.64	402.68
463.01	398.83
463.38	395.18
463.74	391.47
464.11	388.20
464.48	385.38
464.85	382.28
465.21	379.86
465.58	377.19
465.95	374.04
466.32	371.39
466.68	368.73
467.05	366.09
467.42	363.54
467.78	360.80
468.15	358.23
468.52	356.27
468.88	353.76
469.25	351.56
469.62	349.73
469.98	347.75
470.35	345.93
470.72	344.29
471.08	342.45
471.45	340.95
471.82	339.40
472.18	337.70
472.55	336.49
472.92	335.04
473.28	333.87
473.65	332.72
474.02	331.59
474.38	330.69
474.75	329.97
475.11	329.13
475.48	328.58
475.85	328.08
476.21	327.58
476.58	327.23
476.94	326.95
477.31	326.61
477.67	326.33
478.04	326.17
478.41	326.14
478.77	326.27
479.14	326.18
479.50	326.29
479.87	326.53
480.23	326.82
480.60	327.06
480.96	327.35
481.33	327.90
481.69	328.47
482.06	328.96
482.42	329.39
482.79	329.98
483.15	330.74
483.52	331.68
483.88	332.62
484.25	333.57
484.61	334.60
484.98	335.66
485.34	336.96
485.71	338.35
486.07	339.76
486.44	341.08
486.80	342.72
487.17	344.38
487.53	346.26
487.90	348.17
488.26	350.21
488.62	352.37
488.99	354.48
489.35	356.69
489.72	359.10
490.08	361.65
490.44	364.25
490.81	366.98
491.17	369.73
491.54	372.70
491.90	375.72
492.26	378.98
492.63	382.43
492.99	385.94
493.36	389.56
493.72	393.43
494.08	397.44
494.45	401.61
494.81	406.03
495.17	410.47
495.54	415.17
495.90	419.99
496.26	424.93
496.63	430.09
496.99	435.44
497.35	441.06
497.72	446.89
498.08	452.76
498.44	458.86
498.80	465.22
499.17	471.77
499.53	478.46
499.89	485.32
500.26	492.32
500.62	499.41
500.98	506.85
501.34	514.36
501.71	522.16
502.07	530.03
502.43	538.02
502.79	546.15
503.16	554.45
503.52	563.07
503.88	571.70
504.24	580.72
504.60	589.84
504.97	599.07
505.33	608.37
505.69	618.30
506.05	628.19
506.41	638.13
506.78	648.17
507.14	658.50
507.50	668.98
507.86	679.66
508.22	690.36
508.59	701.01
508.95	712.11
509.31	723.36
509.67	734.79
510.03	746.21
510.39	757.99
510.75	769.93
511.12	781.76
511.48	793.87
511.84	806.10
512.20	818.45
512.56	831.08
512.92	843.88
513.28	856.53
513.64	869.24
514.00	882.10
514.37	895.09
514.73	908.26
515.09	921.33
515.45	934.26
515.81	947.48
516.17	961.00
516.53	974.21
516.89	987.36
517.25	1000.68
517.61	1014.25
517.97	1027.75
518.33	1040.98
518.69	1054.62
519.05	1068.38
519.41	1082.12
519.77	1096.01
520.13	1109.36
520.49	1122.53
520.85	1136.00
521.21	1149.48
521.57	1163.17
521.93	1176.41
522.29	1190.19
522.65	1203.82
523.01	1217.48
523.37	1230.72
523.73	1244.11
524.09	1257.46
524.45	1271.09
524.81	1284.56
525.17	1297.90
525.53	1311.13
525.89	1324.42
526.25	1337.58
526.61	1350.44
526.97	1363.55
527.33	1376.62
527.68	1390.25
528.04	1403.87
528.40	1417.17
528.76	1430.52
529.12	1443.57
529.48	1456.93
529.84	1469.21
530.20	1482.08
530.56	1494.78
530.91	1508.14
531.27	1521.04
531.63	1533.75
531.99	1546.52
532.35	1558.95
532.71	1571.55
533.07	1584.54
533.42	1596.90
533.78	1609.25
534.14	1621.60
534.50	1632.94
534.86	1644.65
535.21	1655.61
535.57	1667.23
535.93	1678.49
536.29	1689.68
536.65	1701.08
537.00	1712.12
537.36	1723.73
537.72	1734.77
538.08	1746.27
538.44	1757.28
538.79	1768.43
539.15	1779.46
539.51	1790.37
539.87	1801.63
540.22	1812.43
540.58	1823.52
540.94	1834.71
541.29	1845.10
541.65	1854.98
542.01	1865.65
542.37	1875.80
542.72	1885.99
543.08	1895.85
543.44	1906.48
543.79	1915.98
544.15	1925.58
544.51	1935.66
544.87	1945.60
545.22	1955.05
545.58	1964.05
545.94	1973.10
546.29	1981.77
546.65	1990.10
547.01	1998.44
547.36	2006.22
547.72	2014.12
548.07	2021.54
548.43	2029.21
548.79	2037.04
549.14	2045.13
549.50	2053.75
549.86	2061.70
550.21	2069.27
550.57	2077.06
550.92	2083.94
551.28	2091.52
551.64	2098.92
551.99	2106.36
552.35	2113.53
552.70	2120.48
553.06	2127.13
553.41	2133.44
553.77	2139.98
554.13	2146.64
554.48	2153.50
554.84	2160.73
555.19	2167.43
555.55	2174.12
555.90	2180.44
556.26	2187.45
556.61	2193.73
556.97	2198.41
557.32	2204.17
557.68	2210.64
558.03	2216.46
558.39	2221.74
558.74	2227.72
559.10	2233.16
559.45	2238.58
559.81	2244.13
560.16	2249.60
560.52	2255.59
560.87	2261.89
561.23	2267.84
561.58	2274.38
561.94	2279.59
562.29	2284.12
562.64	2289.92
563.00	2295.46
563.35	2300.84
563.71	2306.34
564.06	2311.88
564.42	2317.87
564.77	2322.92
565.12	2328.07
565.48	2333.13
565.83	2338.63
566.19	2343.92
566.54	2349.23
566.89	2354.03
567.25	2358.46
567.60	2364.20
567.96	2369.15
568.31	2373.66
568.66	2377.77
569.02	2381.53
569.37	2385.39
569.72	2389.92
570.08	2393.46
570.43	2396.59
570.78	2399.73
571.14	2402.22
571.49	2405.24
571.84	2408.70
572.20	2411.48
572.55	2414.29
572.90	2416.54
573.26	2419.11
573.61	2421.46
573.96	2423.59
574.31	2425.49
574.67	2427.30
575.02	2427.91
575.37	2429.35
575.72	2430.02
576.08	2431.42
576.43	2431.51
576.78	2431.86
577.13	2433.22
577.49	2434.24
577.84	2435.07
578.19	2436.25
578.54	2436.74
578.90	2437.39
579.25	2437.12
579.60	2436.98
579.95	2436.20
580.30	2436.02
580.66	2435.23
581.01	2433.64
581.36	2431.01
581.71	2429.42
582.06	2428.13
582.42	2427.04
582.77	2424.49
583.12	2422.61
583.47	2421.00
583.82	2420.25
584.17	2418.79
584.53	2416.44
584.88	2414.23
585.23	2412.22
585.58	2409.93
585.93	2407.88
586.28	2405.56
586.63	2402.82
586.98	2400.44
587.34	2398.37
587.69	2395.81
588.04	2393.64
588.39	2391.93
588.74	2389.55
589.09	2386.72
589.44	2383.41
589.79	2380.86
590.14	2378.84
590.49	2376.07
590.84	2372.12
591.19	2368.86
591.54	2365.62
591.89	2361.52
592.25	2358.12
592.60	2353.91
592.95	2349.53
593.30	2345.06
593.65	2340.43
594.00	2335.98
594.35	2332.97
594.70	2328.22
595.05	2323.57
595.40	2318.03
595.75	2312.16
596.10	2308.47
596.45	2303.60
596.80	2298.94
597.15	2293.70
597.50	2287.78
597.85	2282.65
598.19	2277.39
598.54	2271.61
598.89	2266.12
599.24	2261.59
599.59	2255.52
599.94	2249.48
600.29	2243.42
600.64	2237.45
600.99	2230.64
601.34	2225.13
601.69	2217.95
602.04	2211.44
602.39	2204.74
602.74	2198.59
603.08	2192.93
603.43	2186.15
603.78	2179.19
604.13	2172.19
604.48	2164.78
604.83	2158.54
605.18	2152.28
605.53	2145.30
605.87	2138.22
606.22	2131.49
606.57	2123.48
606.92	2115.39
607.27	2108.43
607.62	2101.89
607.96	2094.92
608.31	2088.62
608.66	2080.89
609.01	2073.23
609.36	2066.09
609.70	2058.37
610.05	2050.58
610.40	2042.31
610.75	2034.08
611.10	2026.26
611.44	2017.33
611.79	2008.59
612.14	1998.58
612.49	1987.95
612.83	1978.63
613.18	1969.25
613.53	1959.86
613.88	1950.37
614.22	1941.80
614.57	1932.01
614.92	1921.26
615.27	1911.07
615.61	1900.76
615.96	1891.06
616.31	1881.52
616.65	1872.15
617.00	1862.45
617.35	1852.83
617.70	1843.12
618.04	1833.16
618.39	1823.07
618.74	1813.36
619.08	1803.80
619.43	1795.22
619.78	1787.00
620.12	1778.34
620.47	1768.93
620.82	1758.74
621.16	1748.97
621.51	1739.07
621.85	1729.19
622.20	1718.98
622.55	1708.45
622.89	1698.50
623.24	1688.87
623.59	1679.17
623.93	1669.01
624.28	1659.16
624.62	1649.07
624.97	1638.83
625.32	1629.05
625.66	1620.15
626.01	1611.43
626.35	1602.14
626.70	1592.05
627.04	1582.12
627.39	1572.09
627.73	1562.80
628.08	1553.83
628.43	1544.25
628.77	1535.11
629.12	1526.27
629.46	1518.49
629.81	1510.28
630.15	1500.99
630.50	1491.14
630.84	1480.65
631.19	1470.79
631.53	1461.61
631.88	1451.62
632.22	1441.80
632.57	1432.54
632.91	1422.61
633.26	1412.84
633.60	1403.34
633.95	1394.21
634.29	1384.61
634.64	1375.31
634.98	1365.40
635.32	1356.16
635.67	1347.76
636.01	1338.45
636.36	1328.82
636.70	1319.34
637.05	1309.99
637.39	1301.07
637.73	1292.51
638.08	1285.01
638.42	1277.02
638.77	1268.31
639.11	1260.07
639.45	1252.16
639.80	1243.67
640.14	1234.85
640.49	1226.10
640.83	1217.21
641.17	1209.05
641.52	1200.92
641.86	1192.39
642.20	1184.62
642.55	1176.03
642.89	1167.16
643.23	1158.55
643.58	1150.43
643.92	1141.48
644.26	1132.80
644.61	1124.39
644.95	1115.67
645.29	1106.52
645.64	1097.24
645.98	1088.74
646.32	1080.76
646.66	1072.34
647.01	1064.04
647.35	1055.95
647.69	1047.53
648.04	1039.38
648.38	1030.56
648.72	1021.91
649.06	1013.48
649.41	1005.27
649.75	997.36
650.09	989.54
650.43	981.52
650.78	973.19
651.12	965.44
651.46	958.01
651.80	950.80
652.14	943.61
652.49	936.07
652.83	928.86
653.17	921.22
653.51	913.52
653.85	906.22
654.20	898.92
654.54	891.51
654.88	884.37
655.22	877.18
655.56	870.14
655.90	863.33
656.25	856.69
656.59	849.79
656.93	842.73
657.27	835.51
657.61	828.55
657.95	822.49
658.29	816.53
658.64	810.40
658.98	803.86
659.32	797.19
659.66	790.98
660.00	784.53
660.34	778.47
660.68	772.46
661.02	766.13
661.36	760.08
661.70	754.30
662.05	748.61
662.39	743.02
662.73	737.63
663.07	732.14
663.41	726.50
663.75	720.72
664.09	715.00
664.43	709.59
664.77	704.27
665.11	698.45
665.45	692.53
665.79	686.71
666.13	681.03
666.47	675.58
666.81	670.05
667.15	664.67
667.49	659.34
667.83	654.03
668.17	648.78
668.51	643.68
668.85	638.69
669.19	633.77
669.53	628.74
669.87	623.56
670.21	618.80
670.55	614.11
670.89	609.66
671.23	605.35
671.57	600.88
671.91	596.51
672.25	592.34
672.58	588.27
672.92	584.16
673.26	580.20
673.60	576.31
673.94	572.53
674.28	568.89
674.62	565.20
674.96	561.44
675.30	557.95
675.64	554.25
675.97	550.62
676.31	546.99
676.65	543.37
676.99	539.96
677.33	536.08
677.67	532.36
678.01	528.48
678.34	524.84
678.68	521.36
679.02	517.76
679.36	514.03
679.70	510.29
680.04	506.74
680.37	503.26
680.71	499.86
681.05	496.66
681.39	493.34
681.73	490.17
682.06	487.12
682.40	483.97
682.74	480.79
683.08	477.52
683.42	474.30
683.75	471.27
684.09	468.14
684.43	465.32
684.77	462.43
685.10	459.58
685.44	456.61
685.78	453.66
686.12	450.82
686.45	448.09
686.79	445.43
687.13	442.82
687.46	440.16
687.80	437.44
688.14	434.52
688.48	431.86
688.81	429.13
689.15	426.48
689.49	423.82
689.82	421.26
690.16	418.66
690.50	416.17
690.83	413.65
691.17	411.12
691.51	408.62
691.84	406.30
692.18	404.01
692.52	401.80
692.85	399.62
693.19	397.51
693.52	395.32
693.86	393.04
694.20	390.86
694.53	388.68
694.87	386.47
695.21	384.31
695.54	382.17
695.88	379.95
696.21	377.77
696.55	375.63
696.88	373.55
697.22	371.59
697.56	369.69
697.89	367.76
698.23	365.98
698.56	364.16
698.90	362.38
699.23	360.42
699.57	358.56
699.90	356.64
700.24	354.75
700.58	352.99
700.91	351.33
701.25	349.73
701.58	348.11
701.92	346.53
702.25	344.88
702.59	343.23
702.92	341.66
703.26	340.10
703.59	338.60
703.93	337.27
704.26	335.78
704.60	334.24
704.93	332.72
705.26	331.16
705.60	329.64
705.93	328.08
706.27	326.73
706.60	325.40
706.94	324.16
707.27	322.76
707.61	321.35
707.94	319.95
708.27	318.41
708.61	316.95
708.94	315.53
709.28	314.22
709.61	312.92
709.94	311.73
710.28	310.51
710.61	309.30
710.95	307.89
711.28	306.78
711.61	305.60
711.95	304.45
712.28	303.27
712.61	302.10
712.95	301.01
713.28	299.97
713.61	298.81
713.95	297.63
714.28	296.62
714.61	295.55
714.95	294.51
715.28	293.45
715.61	292.38
715.95	291.42
716.28	290.46
716.61	289.49
716.95	288.46
717.28	287.49
717.61	286.51
717.94	285.58
718.28	284.55
718.61	283.65
718.94	282.75
719.27	281.89
719.61	281.06
719.94	280.18
720.27	279.21
720.60	278.33
720.94	277.50
721.27	276.72
721.60	276.03
721.93	275.28
722.27	274.63
722.60	273.95
722.93	273.22
723.26	272.54
723.59	271.85
723.93	271.20
724.26	270.49
724.59	269.83
724.92	269.23
725.25	268.67
725.59	268.07
725.92	267.55
726.25	266.96
726.58	266.32
726.91	265.72
727.24	265.19
727.57	264.63
727.91	264.05
728.24	263.50
728.57	262.88
728.90	262.36
729.23	261.74
729.56	261.30
729.89	260.74
730.22	260.14
730.55	259.60
730.89	259.08
731.22	258.57
731.55	257.99
731.88	257.46
732.21	256.87
732.54	256.32
732.87	255.77
733.20	255.27
733.53	254.82
733.86	254.33
734.19	253.84
734.52	253.46
734.85	253.15
735.18	252.68
735.51	252.29
735.84	251.86
736.17	251.48
736.50	250.89
736.83	250.73
737.16	250.34
737.49	249.92
737.82	249.51
738.15	249.11
738.48	248.77
738.81	248.35
739.14	247.95
739.47	247.59
739.80	247.17
740.13	246.82
740.46	246.39
740.79	246.00
741.12	245.59
741.45	245.13
741.78	244.69
742.11	244.38
742.44	243.98
742.77	243.68
743.10	243.32
743.43	243.01
743.75	242.43
744.08	242.35
744.41	242.00
744.74	241.62
745.07	241.26
745.40	240.95
745.73	240.68
746.06	240.38
746.39	240.05
746.71	239.73
747.04	239.39
747.37	239.12
747.70	238.85
748.03	238.54
748.36	238.29
748.68	237.95
749.01	237.57
749.34	237.27
749.67	236.97
750.00	236.69
750.33	236.55
750.65	236.32
750.98	235.79
751.31	235.54
751.64	235.33
751.97	235.19
752.29	234.93
752.62	234.59
752.95	234.31
753.28	234.06
753.60	233.80
753.93	233.60
754.26	233.36
754.59	233.11
754.91	232.88
755.24	232.60
755.57	232.40
755.90	232.20
756.22	231.99
756.55	231.70
756.88	231.42
757.20	231.08
757.53	230.79
757.86	230.58
758.19	230.36
758.51	230.10
758.84	229.81
759.17	229.63
759.49	229.47
759.82	229.41
760.15	229.25
760.47	229.09
760.80	228.85
761.13	228.69
761.45	228.44
761.78	228.25
762.11	228.11
762.43	227.89
762.76	227.69
763.08	227.56
763.41	227.42
763.74	227.33
764.06	227.16
764.39	227.00
764.71	226.88
765.04	226.73
765.37	226.61
765.69	226.47
766.02	226.28
766.34	226.09
766.67	225.86
767.00	225.74
767.32	225.71
767.65	225.70
767.97	225.56
768.30	225.49
768.62	225.40
768.95	225.26
769.27	225.17
769.60	225.08
769.92	224.89
770.25	224.78
770.57	224.59
770.90	224.48
771.22	224.37
771.55	224.22
771.87	224.11
772.20	223.96
772.52	224.01
772.85	224.14
773.17	224.09
773.50	223.95
773.82	223.78
774.15	223.58
774.47	223.36
774.80	223.25
775.12	223.15
775.45	223.03
775.77	222.94
776.09	222.84
776.42	222.78
776.74	222.77
777.07	222.60
777.39	222.56
777.72	222.47
778.04	222.42
778.36	222.35
778.69	222.30
779.01	222.29
779.33	222.03
779.66	221.72
779.98	221.60
780.31	221.53
780.63	221.57
780.95	221.51
781.28	221.44
781.60	221.35
781.92	221.25
782.25	221.23
782.57	221.15
782.89	221.04
783.22	220.93
783.54	220.82
783.86	220.78
784.19	220.69
784.51	220.69
784.83	220.58
785.16	220.51
785.48	220.42
785.80	220.33
786.12	220.28
786.45	220.24
786.77	220.20
787.09	220.14
787.42	220.00
787.74	219.93
788.06	219.88
788.38	219.82
788.71	219.75
789.03	219.66
789.35	219.63
789.67	219.56
789.99	219.49
790.32	219.42
790.64	219.40
790.96	219.49
791.28	219.35
791.61	219.31
791.93	219.25
792.25	219.21
792.57	219.30
792.89	219.21
793.21	219.18
793.54	219.11
793.86	219.04
794.18	218.99
794.50	218.92
794.82	218.86
795.14	218.84
795.47	218.82
795.79	218.79
796.11	218.69
796.43	218.63
796.75	218.59
797.07	218.58
797.39	218.51
797.71	218.34
798.04	218.30
798.36	218.26
798.68	218.23
799.00	218.19
799.32	218.03
799.64	218.03
799.96	218.00
800.28	217.99
800.60	217.95
800.92	217.97
801.24	217.95
801.56	217.94
801.89	217.86
802.21	217.84
802.53	217.74
802.85	217.75
803.17	217.86
803.49	217.81
803.81	217.72
804.13	217.70
804.45	217.62
804.77	217.62
805.09	217.58
805.41	217.50
805.73	217.43
806.05	217.35
806.37	217.33
806.69	217.26
807.01	217.20
807.33	217.20
807.65	217.07
807.97	217.12
808.28	217.08
808.60	217.07
808.92	217.01
809.24	217.10
809.56	217.04
809.88	216.94
810.20	216.93
810.52	216.98
810.84	216.94
811.16	216.93
811.48	216.82
811.80	216.89
812.12	216.87
812.43	216.92
812.75	216.92
813.07	216.87
813.39	216.86
813.71	216.79
814.03	216.75
814.35	216.71
814.67	216.58
814.98	216.54
815.30	216.47
815.62	216.45
815.94	216.32
816.26	216.29
816.58	216.23
816.89	216.23
817.21	216.14
817.53	216.11
817.85	216.09
818.17	216.10
818.48	216.03
818.80	216.09
819.12	216.06
819.44	215.98
819.76	215.92
820.07	215.88
820.39	215.91
820.71	215.89
821.03	215.88
821.34	215.87
821.66	215.87
821.98	215.90
822.30	215.86
822.61	215.95
822.93	215.98
823.25	215.94
823.57	215.91
823.88	215.96
824.20	215.96
824.52	215.98
824.83	215.97
825.15	215.91
825.47	215.89
825.79	215.83
826.10	215.81
826.42	215.81
826.74	215.86
827.05	215.83
827.37	215.84
827.69	215.85
828.00	215.86
828.32	215.85
828.64	215.81
828.95	215.90
829.27	215.84
829.58	215.82
829.90	215.82
830.22	215.81
830.53	215.72
830.85	215.70
831.17	215.60
831.48	215.57
831.80	215.57
832.11	215.55
832.43	215.52
832.75	215.53
833.06	215.63
833.38	215.55
833.69	215.54
834.01	215.52
834.32	215.49
834.64	215.45
834.96	215.43
835.27	215.46
835.59	215.38
835.90	215.34
836.22	215.31
836.53	215.27
836.85	215.24
837.16	215.46
837.48	215.43
837.79	215.50
838.11	215.52
838.42	215.54
838.74	215.52
839.05	215.52
839.37	215.49
839.68	215.35
840.00	215.34
840.31	215.36
840.63	215.33
840.94	215.30
841.26	215.30
841.57	215.28
841.88	215.26
842.20	215.21
842.51	215.16
842.83	215.17
843.14	215.38
843.46	215.37
843.77	215.23
844.08	215.20
844.40	215.15
844.71	215.11
845.03	215.05
845.34	215.05
845.65	215.03
845.97	215.02
846.28	215.04
846.60	215.03
846.91	215.03
847.22	215.02
847.54	215.08
847.85	215.05
848.16	215.04
848.48	215.01
848.79	215.10
849.10	215.11
849.42	215.11
849.73	214.92
850.04	214.91
850.36	214.85
850.67	214.88
850.98	214.89
851.30	214.92
851.61	214.94
851.92	214.91
852.23	214.95
852.55	214.99
852.86	214.97
853.17	214.99
853.49	215.02
853.80	215.03
854.11	215.04
854.42	215.09
854.74	215.06
855.05	215.09
855.36	214.99
855.67	215.00
855.99	214.97
856.30	215.20
856.61	215.21
856.92	215.20
857.23	215.17
857.55	215.14
857.86	215.11
858.17	215.13
858.48	215.10
858.79	215.07
859.11	215.08
859.42	215.09
859.73	215.07
860.04	215.03
860.35	214.99
860.66	214.91
860.98	214.90
861.29	214.94
861.60	214.88
861.91	214.90
862.22	214.85
862.53	214.84
862.84	214.58
863.16	214.59
863.47	214.58
863.78	214.59
864.09	214.60
864.40	214.62
864.71	214.62
865.02	214.61
865.33	214.60
865.64	214.55
865.95	214.55
866.27	214.69
866.58	214.69
866.89	214.70
867.20	214.69
867.51	214.63
867.82	214.59
868.13	214.68
868.44	214.65
868.75	214.71
869.06	214.70
869.37	214.74
869.68	214.68
869.99	214.71
870.30	214.72
870.61	214.73
870.92	214.68
871.23	214.65
871.54	214.68
871.85	214.70
872.16	214.72
872.47	214.69
872.78	214.54
873.09	214.54
873.40	214.55
873.71	214.57
874.02	214.59
874.33	214.55
874.64	214.49
874.95	214.53
875.26	214.48
875.56	214.48
875.87	214.46
876.18	214.48
876.49	214.66
876.80	214.63
877.11	214.58
877.42	214.58
877.73	214.60
878.04	214.56
878.35	214.55
878.66	214.57
878.96	214.57
879.27	214.54
879.58	214.52
879.89	214.48
880.20	214.49
880.51	214.47
880.82	214.51
881.12	214.51
881.43	214.47
881.74	214.46
882.05	214.49
882.36	214.50
882.67	214.51
882.97	214.28
883.28	214.25
883.59	214.27
883.90	214.31
884.21	214.31
884.51	214.32
884.82	214.29
885.13	214.27
885.44	214.26
885.74	214.26
886.05	214.25
886.36	214.27
886.67	214.25
886.98	214.37
887.28	214.37
887.59	214.36
887.90	214.36
888.20	214.36
888.51	214.39
888.82	214.34
889.13	214.34
889.43	214.52
889.74	214.51
890.05	214.49
890.35	214.48
890.66	214.44
890.97	214.41
891.28	214.41
891.58	214.40
891.89	214.40
892.20	214.38
892.50	214.35
892.81	214.35
893.12	214.34
893.42	214.22
893.73	214.20
894.04	214.21
894.34	214.20
894.65	214.17
894.95	214.13
895.26	214.16
895.57	214.24
895.87	214.06
896.18	214.11
896.48	214.14
896.79	214.12
897.10	214.18
897.40	214.18
897.71	214.19
898.01	214.19
898.32	214.22
898.63	214.24
898.93	214.28
899.24	214.29
899.54	214.29
899.85	214.29
900.15	214.30
900.46	214.31
900.76	214.34
901.07	214.33
901.38	214.32
901.68	214.34
901.99	214.22
902.29	214.24
902.60	214.22
902.90	214.20
903.21	214.18
903.51	214.16
903.82	214.24
904.12	214.26
904.43	214.26
904.73	214.26
905.03	214.25
905.34	214.45
905.64	214.40
905.95	214.40
906.25	214.40
906.56	214.42
906.86	214.41
907.17	214.40
907.47	214.44
907.77	214.39
908.08	214.31
908.38	214.34
908.69	214.35
908.99	214.38
909.30	214.37
909.60	214.42
909.90	214.42
910.21	214.37
910.51	214.32
910.81	214.32
911.12	214.34
911.42	214.38
911.73	214.11
912.03	214.15
912.33	214.19
912.64	214.19
912.94	214.15
913.24	214.11
913.55	214.09
913.85	214.06
914.15	214.12
914.46	214.18
914.76	214.17
915.06	214.14
915.37	214.12
915.67	214.10
915.97	214.05
916.27	214.03
916.58	214.00
916.88	214.01
917.18	213.97
917.49	214.10
917.79	214.09
918.09	214.16
918.39	214.20
918.70	214.19
919.00	214.15
919.30	214.25
919.60	214.26
919.91	214.26
920.21	214.30
920.51	214.26
920.81	214.23
921.12	214.28
921.42	214.27
921.72	214.28
922.02	214.31
922.32	214.33
922.63	214.34
922.93	214.46
923.23	214.46
923.53	214.46
923.83	214.33
924.13	214.35
924.44	214.33
924.74	214.36
925.04	214.40
925.34	214.45
925.64	214.36
925.94	214.36
926.24	214.45
926.55	214.44
926.85	214.49
927.15	214.49
927.45	214.46
927.75	214.48
928.05	214.48
928.35	214.47
928.65	214.54
928.95	214.54
929.26	214.43
929.56	214.49
929.86	214.52
930.16	214.47
930.46	214.44
930.76	214.45
931.06	214.37
931.36	214.31
931.66	214.33
931.96	214.33
932.26	214.31
932.56	214.23
932.86	214.22
933.16	214.23
933.46	214.22
933.76	214.20
934.06	214.26
934.36	214.34
934.66	214.32
934.96	214.28
935.26	214.28
935.56	214.32
935.86	214.25
936.16	214.22
936.46	214.23
936.76	214.21
937.06	214.17
937.36	214.16
937.66	214.20
937.96	214.17
938.26	214.14
938.56	214.16
938.86	214.17
939.16	214.21
939.46	214.20
939.76	214.22
940.06	214.23
940.35	214.15
940.65	214.01
940.95	214.06
941.25	214.02
941.55	213.99
941.85	213.99
942.15	214.03
942.45	214.07
942.75	214.07
943.04	214.08
943.34	214.10
943.64	214.08
943.94	214.03
944.24	214.06
944.54	214.07
944.84	214.05
945.13	214.02
945.43	213.96
945.73	213.95
946.03	213.93
946.33	213.91
946.62	213.90
946.92	213.91
947.22	213.87
947.52	213.85
947.82	213.90
948.11	213.85
948.41	213.79
948.71	213.78
949.01	213.79
949.31	213.77
949.60	213.78
949.90	213.83
950.20	213.85
950.50	213.79
950.79	213.81
951.09	213.85
951.39	213.84
951.69	213.83
951.98	213.88
952.28	213.91
952.58	213.87
952.87	213.91
953.17	213.95
953.47	213.93
953.76	213.95
954.06	213.89
954.36	213.89
954.66	213.92
954.95	213.96
955.25	213.97
955.55	213.99
955.84	213.95
956.14	213.98
956.44	213.97
956.73	213.94
957.03	213.95
957.32	213.94
957.62	213.98
957.92	214.03
958.21	213.97
958.51	214.22
958.81	214.25
959.10	214.24
959.40	214.31
959.69	214.36
959.99	214.43
960.29	214.48
960.58	214.45
960.88	214.49
961.17	214.46
961.47	214.49
961.76	214.46
962.06	214.51
962.36	214.47
962.65	214.50
962.95	214.55
963.24	214.52
963.54	214.52
963.83	214.48
964.13	214.45
964.42	214.42
964.72	214.22
965.01	214.22
965.31	214.21
965.60	214.12
965.90	214.22
966.19	214.14
966.49	214.14
966.78	214.16
967.08	214.17
967.37	214.12
967.67	214.08
967.96	214.16
968.26	214.14
968.55	214.15
968.85	214.15
969.14	214.14
969.43	214.17
969.73	214.13
970.02	214.16
970.32	214.18
970.61	214.14
970.91	214.09
971.20	214.06
971.49	214.05
971.79	214.08
972.08	213.94
972.38	213.98
972.67	213.95
972.96	214.00
973.26	213.95
973.55	214.06
973.85	214.05
974.14	214.00
974.43	214.00
974.73	213.97
975.02	213.97
975.31	213.97
975.61	213.94
975.90	213.96
976.19	213.93
976.49	213.94
976.78	213.98
977.07	214.00
977.37	214.00
977.66	214.03
977.95	214.01
978.24	214.02
978.54	214.05
978.83	214.05
979.12	214.01
979.42	214.01
979.71	213.96
980.00	213.94
980.29	213.95
980.59	213.92
980.88	213.96
981.17	213.91
981.46	213.92
981.76	213.93
982.05	213.99
982.34	214.01
982.63	214.00
982.93	213.99
983.22	214.03
983.51	214.06
983.80	214.08
984.09	214.08
984.39	214.08
984.68	214.05
984.97	214.07
985.26	214.06
985.55	214.07
985.85	214.04
986.14	214.08
986.43	214.10
986.72	214.11
987.01	214.03
987.30	214.06
987.59	214.02
987.89	214.06
988.18	214.00
988.47	214.00
988.76	213.98
989.05	213.97
989.34	213.92
989.63	213.97
989.92	213.95
990.22	213.96
990.51	213.95
990.80	213.93
991.09	213.91
991.38	213.95
991.67	213.91
991.96	213.90
992.25	213.94
992.54	213.89
992.83	213.88
993.12	213.88
993.41	213.91
993.70	214.01
993.99	214.02
994.28	214.05
994.58	214.09
994.87	214.07
995.16	214.09
995.45	214.10
995.74	214.03
996.03	214.07
996.32	214.10
996.61	214.12
996.90	214.14
997.19	214.14
997.48	214.13
997.77	214.12
998.06	214.14
998.34	214.11
998.63	214.13
998.92	214.14
999.21	214.16
999.50	214.15
999.79	214.07
1000.08	214.05
1000.37	214.01
1000.66	213.96
1000.95	214.01
1001.24	214.01
1001.53	214.03
1001.82	214.01
1002.11	213.95
1002.40	213.95
1002.68	213.97
1002.97	214.10
1003.26	214.08
1003.55	214.05
1003.84	214.07
1004.13	214.14
1004.42	214.11
1004.71	214.12
1004.99	214.11
1005.28	214.17
1005.57	214.17
1005.86	214.14
1006.15	214.13
1006.44	214.10
1006.72	214.13
1007.01	214.10
1007.30	214.12
1007.59	214.09
1007.88	214.09
1008.17	214.11
1008.45	214.08
1008.74	214.03
1009.03	213.95
1009.32	213.95
1009.60	213.95
1009.89	213.91
1010.18	213.84
1010.47	213.83
1010.76	213.80
1011.04	213.82
1011.33	213.84
1011.62	213.85
1011.91	213.87
1012.19	213.88
1012.48	213.90
1012.77	213.91
1013.05	214.04
1013.34	214.03
1013.63	214.01
1013.92	214.01
1014.20	214.00
1014.49	214.00
1014.78	214.03
1015.06	213.97
1015.35	213.96
1015.64	213.99
1015.92	214.03
1016.21	214.02
1016.50	214.02
1016.78	214.03
1017.07	214.02
1017.36	213.97
1017.64	213.94
1017.93	213.99
1018.22	213.97
1018.50	213.94
1018.79	213.93
1019.08	213.81
1019.36	213.80
1019.65	213.80
1019.93	213.87
1020.22	213.92
1020.51	214.02
1020.79	214.00
1021.08	213.51
1021.36	213.24
1021.65	213.83
1021.94	214.17
1022.22	213.75
1022.51	213.64
1022.79	215.02
1023.08	214.63
1023.36	216.35
1023.65	213.73
>>>>>End Processed Spectral Data<<<<<
