SpectraSuite Data File
++++++++++++++++++++++++++++++++++++
Date: Tue Jan 29 15:55:44 EST 2013
User: group
Dark Spectrum Present: No
Reference Spectrum Present: No
Number of Sampled Component Spectra: 1
Spectrometers: USB2E7196
Integration Time (usec): 65000 (USB2E7196)
Spectra Averaged: 100 (USB2E7196)
Boxcar Smoothing: 10 (USB2E7196)
Correct for Electrical Dark: No (USB2E7196)
Strobe/Lamp Enabled: No (USB2E7196)
Correct for Detector Non-linearity: No (USB2E7196)
Correct for Stray Light: No (USB2E7196)
Number of Pixels in Processed Spectrum: 2048
>>>>>Begin Processed Spectral Data<<<<<
339.09	0.00
339.48	202.79
339.86	204.48
340.24	206.33
340.63	207.22
341.01	211.14
341.39	209.63
341.78	211.92
342.16	213.38
342.54	212.77
342.93	202.14
343.31	212.33
343.69	212.86
344.07	213.32
344.46	213.76
344.84	214.16
345.22	214.36
345.60	214.62
345.99	214.81
346.37	214.91
346.75	215.04
347.13	215.12
347.52	215.17
347.90	215.25
348.28	215.31
348.66	215.39
349.05	215.33
349.43	215.39
349.81	215.45
350.19	215.49
350.57	215.52
350.96	215.63
351.34	215.74
351.72	215.83
352.10	215.92
352.48	215.92
352.87	215.95
353.25	216.01
353.63	216.06
354.01	216.08
354.39	216.16
354.77	216.20
355.15	216.31
355.54	216.35
355.92	216.34
356.30	216.41
356.68	216.60
357.06	216.68
357.44	216.73
357.82	216.78
358.20	216.87
358.58	216.95
358.97	217.02
359.35	217.11
359.73	217.27
360.11	217.32
360.49	217.40
360.87	217.47
361.25	217.55
361.63	217.70
362.01	217.76
362.39	217.80
362.77	217.89
363.15	217.93
363.53	217.98
363.91	218.04
364.29	218.06
364.67	217.91
365.05	217.95
365.43	217.98
365.81	218.04
366.19	218.13
366.57	218.21
366.95	218.18
367.33	218.15
367.71	218.13
368.09	218.17
368.47	218.20
368.85	218.20
369.23	218.20
369.61	218.13
369.99	218.19
370.37	218.23
370.75	218.30
371.13	218.25
371.51	218.22
371.89	218.20
372.27	218.18
372.65	218.18
373.03	218.15
373.41	218.13
373.78	218.11
374.16	217.96
374.54	217.86
374.92	217.79
375.30	217.77
375.68	217.68
376.06	217.66
376.44	217.60
376.82	217.57
377.19	217.51
377.57	217.46
377.95	217.35
378.33	217.24
378.71	217.12
379.09	217.13
379.47	217.11
379.84	217.04
380.22	216.97
380.60	216.89
380.98	216.81
381.36	216.79
381.73	216.71
382.11	216.73
382.49	216.70
382.87	216.66
383.25	216.65
383.62	216.82
384.00	216.75
384.38	216.72
384.76	216.72
385.13	216.79
385.51	216.75
385.89	216.71
386.27	216.71
386.64	216.68
387.02	216.59
387.40	216.56
387.78	216.55
388.15	216.54
388.53	216.52
388.91	216.52
389.29	216.46
389.66	216.47
390.04	216.41
390.42	216.43
390.79	216.44
391.17	216.39
391.55	216.20
391.92	216.19
392.30	216.19
392.68	216.11
393.05	216.08
393.43	216.08
393.81	216.07
394.18	216.03
394.56	216.04
394.94	216.10
395.31	216.06
395.69	216.13
396.06	216.17
396.44	216.20
396.82	216.18
397.19	216.32
397.57	216.32
397.95	216.40
398.32	216.39
398.70	216.43
399.07	216.53
399.45	216.54
399.82	216.58
400.20	216.60
400.58	216.69
400.95	216.67
401.33	216.78
401.70	217.01
402.08	217.09
402.45	217.16
402.83	217.27
403.20	217.37
403.58	217.45
403.95	217.59
404.33	217.71
404.71	217.89
405.08	218.10
405.46	218.26
405.83	218.44
406.21	218.64
406.58	218.86
406.96	219.03
407.33	219.32
407.70	219.60
408.08	220.05
408.45	220.40
408.83	220.77
409.20	221.08
409.58	221.35
409.95	221.80
410.33	222.28
410.70	222.69
411.08	223.23
411.45	223.76
411.82	224.32
412.20	224.97
412.57	225.74
412.95	226.27
413.32	227.08
413.69	227.88
414.07	228.71
414.44	229.64
414.82	230.60
415.19	231.70
415.56	232.83
415.94	233.97
416.31	235.31
416.68	236.67
417.06	238.19
417.43	239.66
417.81	241.30
418.18	243.01
418.55	244.87
418.93	246.80
419.30	248.84
419.67	250.93
420.04	253.11
420.42	255.40
420.79	258.11
421.16	260.78
421.54	263.55
421.91	266.42
422.28	269.42
422.66	272.61
423.03	275.72
423.40	278.93
423.77	282.33
424.15	285.84
424.52	289.53
424.89	293.54
425.26	297.46
425.64	301.25
426.01	305.33
426.38	309.62
426.75	313.99
427.13	318.49
427.50	323.26
427.87	328.25
428.24	333.23
428.61	338.02
428.99	343.31
429.36	349.04
429.73	354.67
430.10	360.29
430.47	366.08
430.85	372.17
431.22	378.62
431.59	385.50
431.96	392.00
432.33	399.09
432.70	406.05
433.08	414.22
433.45	421.87
433.82	429.59
434.19	438.13
434.56	446.47
434.93	454.53
435.30	462.47
435.68	471.23
436.05	479.81
436.42	488.35
436.79	496.14
437.16	504.59
437.53	513.48
437.90	522.25
438.27	530.74
438.64	539.56
439.01	547.75
439.38	554.96
439.75	562.03
440.13	570.14
440.50	577.75
440.87	583.88
441.24	590.31
441.61	597.34
441.98	602.49
442.35	608.47
442.72	614.42
443.09	620.26
443.46	623.77
443.83	626.20
444.20	628.29
444.57	631.33
444.94	632.70
445.31	634.08
445.68	635.34
446.05	636.02
446.42	635.18
446.79	634.24
447.16	633.22
447.53	632.44
447.90	629.25
448.27	626.11
448.64	621.60
449.01	618.34
449.37	612.65
449.74	607.18
450.11	600.61
450.48	593.60
450.85	586.40
451.22	580.21
451.59	574.31
451.96	568.68
452.33	561.10
452.70	554.28
453.07	546.24
453.43	538.04
453.80	530.10
454.17	522.50
454.54	515.25
454.91	507.45
455.28	499.81
455.65	492.71
456.02	485.63
456.38	479.65
456.75	472.12
457.12	465.91
457.49	459.74
457.86	453.90
458.23	448.80
458.59	443.18
458.96	437.51
459.33	432.55
459.70	427.46
460.07	423.46
460.43	418.83
460.80	414.41
461.17	410.61
461.54	406.63
461.91	402.82
462.27	398.89
462.64	395.58
463.01	391.99
463.38	388.50
463.74	384.87
464.11	381.78
464.48	379.11
464.85	376.15
465.21	373.79
465.58	371.22
465.95	368.18
466.32	365.68
466.68	363.21
467.05	360.69
467.42	358.29
467.78	355.75
468.15	353.32
468.52	351.52
468.88	349.20
469.25	347.11
469.62	345.40
469.98	343.59
470.35	341.94
470.72	340.34
471.08	338.65
471.45	337.28
471.82	335.84
472.18	334.26
472.55	333.09
472.92	331.82
473.28	330.65
473.65	329.59
474.02	328.59
474.38	327.75
474.75	327.07
475.11	326.30
475.48	325.77
475.85	325.31
476.21	324.82
476.58	324.51
476.94	324.31
477.31	324.00
477.67	323.83
478.04	323.68
478.41	323.65
478.77	323.80
479.14	323.76
479.50	323.92
479.87	324.24
480.23	324.62
480.60	324.92
480.96	325.29
481.33	325.92
481.69	326.49
482.06	327.06
482.42	327.56
482.79	328.17
483.15	328.94
483.52	329.93
483.88	330.88
484.25	331.79
484.61	332.82
484.98	333.89
485.34	335.17
485.71	336.55
486.07	338.01
486.44	339.34
486.80	340.94
487.17	342.58
487.53	344.43
487.90	346.21
488.26	348.20
488.62	350.33
488.99	352.35
489.35	354.47
489.72	356.80
490.08	359.31
490.44	361.81
490.81	364.49
491.17	367.17
491.54	370.16
491.90	373.22
492.26	376.44
492.63	379.91
492.99	383.42
493.36	387.08
493.72	390.92
494.08	394.97
494.45	399.21
494.81	403.58
495.17	408.03
495.54	412.76
495.90	417.55
496.26	422.43
496.63	427.65
496.99	433.06
497.35	438.60
497.72	444.38
498.08	450.31
498.44	456.42
498.80	462.82
499.17	469.27
499.53	475.92
499.89	482.83
500.26	489.69
500.62	496.72
500.98	504.12
501.34	511.56
501.71	519.24
502.07	527.02
502.43	535.02
502.79	543.06
503.16	551.41
503.52	559.94
503.88	568.65
504.24	577.50
504.60	586.51
504.97	595.73
505.33	605.03
505.69	614.85
506.05	624.72
506.41	634.51
506.78	644.52
507.14	654.71
507.50	665.04
507.86	675.76
508.22	686.48
508.59	697.09
508.95	708.13
509.31	719.33
509.67	730.72
510.03	742.04
510.39	753.71
510.75	765.51
511.12	777.41
511.48	789.38
511.84	801.55
512.20	813.70
512.56	826.24
512.92	838.86
513.28	851.34
513.64	863.93
514.00	876.61
514.37	889.45
514.73	902.37
515.09	915.17
515.45	927.84
515.81	940.73
516.17	953.89
516.53	966.89
516.89	979.87
517.25	992.87
517.61	1006.20
517.97	1019.42
518.33	1032.29
518.69	1045.58
519.05	1059.08
519.41	1072.59
519.77	1086.32
520.13	1099.40
520.49	1112.35
520.85	1125.51
521.21	1138.62
521.57	1152.09
521.93	1164.86
522.29	1178.50
522.65	1191.93
523.01	1205.41
523.37	1218.38
523.73	1231.32
524.09	1244.16
524.45	1257.25
524.81	1270.30
525.17	1283.36
525.53	1296.19
525.89	1309.13
526.25	1321.95
526.61	1334.51
526.97	1347.27
527.33	1359.90
527.68	1373.05
528.04	1386.25
528.40	1399.02
528.76	1411.95
529.12	1424.45
529.48	1437.49
529.84	1449.32
530.20	1461.63
530.56	1473.79
530.91	1486.55
531.27	1499.12
531.63	1511.64
531.99	1524.05
532.35	1535.99
532.71	1547.98
533.07	1560.51
533.42	1572.45
533.78	1584.12
534.14	1595.80
534.50	1606.67
534.86	1617.93
535.21	1628.28
535.57	1639.27
535.93	1650.17
536.29	1660.87
536.65	1671.78
537.00	1682.31
537.36	1693.25
537.72	1703.93
538.08	1714.84
538.44	1725.59
538.79	1736.22
539.15	1746.61
539.51	1756.88
539.87	1767.83
540.22	1778.22
540.58	1788.73
540.94	1799.18
541.29	1809.07
541.65	1818.47
542.01	1828.71
542.37	1838.35
542.72	1848.34
543.08	1857.76
543.44	1867.88
543.79	1876.92
544.15	1886.11
544.51	1895.74
544.87	1905.28
545.22	1914.05
545.58	1922.58
545.94	1931.05
546.29	1939.21
546.65	1947.24
547.01	1955.10
547.36	1962.37
547.72	1969.93
548.07	1977.20
548.43	1984.65
548.79	1992.24
549.14	2000.10
549.50	2008.02
549.86	2015.49
550.21	2022.42
550.57	2030.00
550.92	2036.38
551.28	2043.48
551.64	2050.52
551.99	2057.73
552.35	2064.63
552.70	2071.21
553.06	2077.77
553.41	2083.73
553.77	2090.25
554.13	2096.36
554.48	2103.16
554.84	2110.12
555.19	2116.40
555.55	2122.72
555.90	2128.79
556.26	2135.34
556.61	2141.11
556.97	2145.85
557.32	2151.59
557.68	2157.97
558.03	2163.53
558.39	2168.81
558.74	2174.70
559.10	2180.22
559.45	2185.66
559.81	2191.09
560.16	2196.70
560.52	2202.42
560.87	2208.84
561.23	2214.64
561.58	2221.34
561.94	2226.59
562.29	2231.35
562.64	2237.41
563.00	2243.05
563.35	2248.73
563.71	2254.71
564.06	2260.29
564.42	2266.26
564.77	2271.40
565.12	2276.64
565.48	2281.78
565.83	2287.37
566.19	2292.92
566.54	2298.26
566.89	2302.94
567.25	2307.65
567.60	2313.33
567.96	2318.51
568.31	2323.03
568.66	2327.29
569.02	2331.27
569.37	2335.12
569.72	2339.59
570.08	2343.06
570.43	2346.15
570.78	2349.17
571.14	2351.65
571.49	2355.24
571.84	2358.92
572.20	2361.85
572.55	2364.93
572.90	2367.21
573.26	2370.24
573.61	2373.00
573.96	2375.47
574.31	2377.54
574.67	2379.59
575.02	2380.62
575.37	2382.32
575.72	2383.47
576.08	2385.06
576.43	2385.37
576.78	2386.14
577.13	2387.78
577.49	2389.22
577.84	2390.50
578.19	2392.20
578.54	2393.20
578.90	2394.16
579.25	2394.32
579.60	2394.67
579.95	2394.31
580.30	2394.89
580.66	2394.53
581.01	2392.97
581.36	2391.00
581.71	2390.11
582.06	2389.34
582.42	2388.80
582.77	2387.01
583.12	2385.75
583.47	2384.82
583.82	2384.64
584.17	2383.77
584.53	2382.01
584.88	2380.39
585.23	2378.90
585.58	2376.91
585.93	2374.96
586.28	2373.04
586.63	2370.95
586.98	2369.06
587.34	2367.34
587.69	2365.15
588.04	2363.37
588.39	2362.23
588.74	2359.94
589.09	2357.58
589.44	2354.80
589.79	2352.55
590.14	2350.86
590.49	2348.05
590.84	2344.62
591.19	2341.93
591.54	2338.95
591.89	2335.12
592.25	2332.09
592.60	2328.21
592.95	2324.39
593.30	2320.62
593.65	2316.36
594.00	2312.05
594.35	2309.08
594.70	2304.67
595.05	2300.32
595.40	2295.05
595.75	2289.61
596.10	2286.27
596.45	2281.42
596.80	2276.95
597.15	2271.77
597.50	2265.81
597.85	2261.11
598.19	2255.93
598.54	2249.98
598.89	2244.90
599.24	2240.57
599.59	2234.58
599.94	2228.92
600.29	2223.16
600.64	2217.30
600.99	2210.60
601.34	2205.37
601.69	2198.55
602.04	2192.33
602.39	2185.86
602.74	2179.84
603.08	2174.36
603.43	2167.86
603.78	2161.14
604.13	2154.11
604.48	2147.16
604.83	2141.24
605.18	2135.03
605.53	2128.22
605.87	2121.41
606.22	2114.70
606.57	2106.93
606.92	2099.06
607.27	2092.32
607.62	2085.74
607.96	2078.78
608.31	2072.55
608.66	2064.76
609.01	2057.43
609.36	2050.39
609.70	2042.87
610.05	2035.34
610.40	2027.12
610.75	2018.88
611.10	2011.43
611.44	2002.68
611.79	1994.08
612.14	1984.22
612.49	1973.69
612.83	1964.37
613.18	1955.29
613.53	1945.99
613.88	1936.49
614.22	1927.97
614.57	1918.09
614.92	1907.65
615.27	1897.54
615.61	1887.47
615.96	1877.94
616.31	1868.32
616.65	1858.93
617.00	1849.12
617.35	1839.38
617.70	1829.70
618.04	1819.70
618.39	1809.43
618.74	1799.87
619.08	1790.31
619.43	1781.67
619.78	1773.57
620.12	1764.95
620.47	1755.26
620.82	1744.99
621.16	1735.32
621.51	1725.32
621.85	1715.39
622.20	1704.85
622.55	1694.40
622.89	1684.62
623.24	1674.93
623.59	1665.15
623.93	1655.01
624.28	1645.30
624.62	1635.18
624.97	1624.82
625.32	1614.97
625.66	1606.20
626.01	1597.32
626.35	1587.73
626.70	1577.56
627.04	1567.32
627.39	1557.19
627.73	1547.90
628.08	1538.94
628.43	1529.33
628.77	1520.07
629.12	1511.24
629.46	1503.48
629.81	1494.99
630.15	1485.41
630.50	1475.47
630.84	1464.78
631.19	1454.81
631.53	1445.37
631.88	1435.21
632.22	1425.25
632.57	1415.90
632.91	1405.59
633.26	1395.69
633.60	1386.21
633.95	1376.96
634.29	1367.66
634.64	1358.28
634.98	1348.34
635.32	1339.10
635.67	1330.49
636.01	1321.29
636.36	1311.48
636.70	1301.78
637.05	1292.35
637.39	1283.31
637.73	1274.65
638.08	1267.12
638.42	1258.91
638.77	1250.05
639.11	1241.84
639.45	1233.89
639.80	1225.22
640.14	1216.53
640.49	1207.67
640.83	1198.84
641.17	1190.62
641.52	1182.30
641.86	1173.64
642.20	1165.71
642.55	1156.90
642.89	1147.99
643.23	1139.26
643.58	1131.20
643.92	1122.25
644.26	1113.63
644.61	1105.17
644.95	1096.40
645.29	1087.19
645.64	1078.03
645.98	1069.59
646.32	1061.55
646.66	1053.00
647.01	1044.72
647.35	1036.50
647.69	1028.20
648.04	1019.85
648.38	1010.96
648.72	1002.18
649.06	993.81
649.41	985.64
649.75	977.65
650.09	969.75
650.43	961.66
650.78	953.37
651.12	945.70
651.46	938.35
651.80	931.10
652.14	923.85
652.49	916.36
652.83	909.01
653.17	901.31
653.51	893.80
653.85	886.65
654.20	879.45
654.54	872.04
654.88	864.87
655.22	857.82
655.56	850.91
655.90	844.20
656.25	837.57
656.59	830.75
656.93	823.88
657.27	816.87
657.61	810.09
657.95	804.12
658.29	798.26
658.64	792.11
658.98	785.74
659.32	779.23
659.66	773.08
660.00	766.85
660.34	760.94
660.68	754.86
661.02	748.68
661.36	742.88
661.70	737.18
662.05	731.54
662.39	725.99
662.73	720.68
663.07	715.33
663.41	709.82
663.75	704.17
664.09	698.59
664.43	693.31
664.77	687.98
665.11	682.16
665.45	676.32
665.79	670.58
666.13	664.99
666.47	659.67
666.81	654.36
667.15	649.07
667.49	643.90
667.83	638.75
668.17	633.61
668.51	628.47
668.85	623.60
669.19	618.77
669.53	613.96
669.87	608.91
670.21	604.20
670.55	599.54
670.89	595.20
671.23	591.00
671.57	586.62
671.91	582.34
672.25	578.23
672.58	574.18
672.92	570.20
673.26	566.31
673.60	562.43
673.94	558.68
674.28	555.13
674.62	551.50
674.96	547.81
675.30	544.30
675.64	540.69
675.97	537.21
676.31	533.69
676.65	530.07
676.99	526.66
677.33	522.92
677.67	519.36
678.01	515.53
678.34	511.85
678.68	508.38
679.02	504.88
679.36	501.29
679.70	497.73
680.04	494.31
680.37	490.91
680.71	487.67
681.05	484.53
681.39	481.34
681.73	478.16
682.06	475.15
682.40	472.09
682.74	468.97
683.08	465.85
683.42	462.73
683.75	459.83
684.09	456.92
684.43	454.18
684.77	451.28
685.10	448.58
685.44	445.77
685.78	442.89
686.12	440.21
686.45	437.49
686.79	434.86
687.13	432.35
687.46	429.74
687.80	427.08
688.14	424.25
688.48	421.67
688.81	419.08
689.15	416.60
689.49	414.07
689.82	411.61
690.16	409.04
690.50	406.66
690.83	404.20
691.17	401.72
691.51	399.29
691.84	397.15
692.18	394.99
692.52	392.86
692.85	390.79
693.19	388.68
693.52	386.61
693.86	384.49
694.20	382.36
694.53	380.34
694.87	378.27
695.21	376.25
695.54	374.21
695.88	372.10
696.21	369.94
696.55	367.91
696.88	365.92
697.22	364.03
697.56	362.17
697.89	360.34
698.23	358.68
698.56	356.94
698.90	355.19
699.23	353.30
699.57	351.45
699.90	349.67
700.24	347.94
700.58	346.23
700.91	344.63
701.25	343.11
701.58	341.56
701.92	340.01
702.25	338.45
702.59	336.85
702.92	335.39
703.26	333.92
703.59	332.56
703.93	331.35
704.26	329.98
704.60	328.57
704.93	327.15
705.26	325.66
705.60	324.28
705.93	322.85
706.27	321.57
706.60	320.37
706.94	319.21
707.27	317.87
707.61	316.58
707.94	315.29
708.27	313.84
708.61	312.40
708.94	311.04
709.28	309.79
709.61	308.57
709.94	307.43
710.28	306.22
710.61	305.04
710.95	303.64
711.28	302.58
711.61	301.42
711.95	300.37
712.28	299.20
712.61	298.03
712.95	297.00
713.28	296.04
713.61	294.93
713.95	293.78
714.28	292.84
714.61	291.80
714.95	290.82
715.28	289.83
715.61	288.86
715.95	288.00
716.28	287.07
716.61	286.18
716.95	285.17
717.28	284.26
717.61	283.29
717.94	282.44
718.28	281.45
718.61	280.59
718.94	279.69
719.27	278.91
719.61	278.12
719.94	277.29
720.27	276.28
720.60	275.46
720.94	274.70
721.27	273.93
721.60	273.29
721.93	272.56
722.27	271.97
722.60	271.38
722.93	270.67
723.26	270.03
723.59	269.35
723.93	268.78
724.26	268.21
724.59	267.60
724.92	267.05
725.25	266.54
725.59	266.00
725.92	265.49
726.25	264.92
726.58	264.38
726.91	263.82
727.24	263.35
727.57	262.83
727.91	262.23
728.24	261.71
728.57	261.14
728.90	260.63
729.23	260.00
729.56	259.54
729.89	259.04
730.22	258.49
730.55	257.95
730.89	257.45
731.22	256.93
731.55	256.43
731.88	255.85
732.21	255.31
732.54	254.77
732.87	254.25
733.20	253.79
733.53	253.30
733.86	252.87
734.19	252.36
734.52	251.97
734.85	251.71
735.18	251.24
735.51	250.88
735.84	250.43
736.17	250.09
736.50	249.55
736.83	249.38
737.16	249.08
737.49	248.71
737.82	248.31
738.15	247.96
738.48	247.62
738.81	247.26
739.14	246.87
739.47	246.49
739.80	246.16
740.13	245.80
740.46	245.46
740.79	245.06
741.12	244.75
741.45	244.42
741.78	243.99
742.11	243.78
742.44	243.40
742.77	243.14
743.10	242.78
743.43	242.47
743.75	241.94
744.08	241.83
744.41	241.48
744.74	241.13
745.07	240.75
745.40	240.45
745.73	240.25
746.06	239.94
746.39	239.68
746.71	239.37
747.04	239.04
747.37	238.73
747.70	238.49
748.03	238.19
748.36	237.92
748.68	237.63
749.01	237.23
749.34	236.98
749.67	236.69
750.00	236.48
750.33	236.32
750.65	236.07
750.98	235.59
751.31	235.36
751.64	235.16
751.97	235.06
752.29	234.81
752.62	234.47
752.95	234.25
753.28	233.97
753.60	233.71
753.93	233.56
754.26	233.38
754.59	233.08
754.91	232.88
755.24	232.62
755.57	232.37
755.90	232.19
756.22	231.94
756.55	231.71
756.88	231.46
757.20	231.19
757.53	230.97
757.86	230.76
758.19	230.60
758.51	230.39
758.84	230.09
759.17	229.87
759.49	229.73
759.82	229.66
760.15	229.52
760.47	229.36
760.80	229.12
761.13	228.95
761.45	228.77
761.78	228.59
762.11	228.43
762.43	228.28
762.76	228.09
763.08	227.95
763.41	227.77
763.74	227.63
764.06	227.47
764.39	227.30
764.71	227.14
765.04	226.99
765.37	226.83
765.69	226.71
766.02	226.58
766.34	226.42
766.67	226.16
767.00	226.07
767.32	226.06
767.65	226.06
767.97	225.92
768.30	225.85
768.62	225.75
768.95	225.58
769.27	225.48
769.60	225.42
769.92	225.26
770.25	225.15
770.57	224.99
770.90	224.85
771.22	224.70
771.55	224.59
771.87	224.47
772.20	224.35
772.52	224.42
772.85	224.60
773.17	224.51
773.50	224.45
773.82	224.33
774.15	224.13
774.47	223.94
774.80	223.82
775.12	223.70
775.45	223.62
775.77	223.56
776.09	223.44
776.42	223.32
776.74	223.32
777.07	223.23
777.39	223.16
777.72	223.06
778.04	223.00
778.36	222.90
778.69	222.82
779.01	222.78
779.33	222.50
779.66	222.17
779.98	222.05
780.31	221.97
780.63	222.01
780.95	221.95
781.28	221.85
781.60	221.82
781.92	221.72
782.25	221.66
782.57	221.60
782.89	221.53
783.22	221.47
783.54	221.33
783.86	221.30
784.19	221.22
784.51	221.24
784.83	221.17
785.16	221.11
785.48	221.05
785.80	220.96
786.12	220.93
786.45	220.88
786.77	220.84
787.09	220.81
787.42	220.60
787.74	220.55
788.06	220.50
788.38	220.44
788.71	220.41
789.03	220.33
789.35	220.30
789.67	220.22
789.99	220.17
790.32	220.12
790.64	220.05
790.96	220.17
791.28	220.04
791.61	220.01
791.93	220.01
792.25	219.97
792.57	220.10
792.89	220.02
793.21	220.02
793.54	219.96
793.86	219.87
794.18	219.90
794.50	219.82
794.82	219.80
795.14	219.77
795.47	219.76
795.79	219.73
796.11	219.63
796.43	219.62
796.75	219.61
797.07	219.56
797.39	219.54
797.71	219.38
798.04	219.36
798.36	219.31
798.68	219.29
799.00	219.24
799.32	219.10
799.64	219.11
799.96	219.05
800.28	219.05
800.60	219.02
800.92	218.99
801.24	218.96
801.56	218.92
801.89	218.86
802.21	218.82
802.53	218.76
802.85	218.82
803.17	218.85
803.49	218.76
803.81	218.69
804.13	218.64
804.45	218.56
804.77	218.55
805.09	218.55
805.41	218.50
805.73	218.46
806.05	218.37
806.37	218.30
806.69	218.23
807.01	218.18
807.33	218.17
807.65	218.05
807.97	218.14
808.28	218.11
808.60	218.11
808.92	218.07
809.24	218.17
809.56	218.11
809.88	218.02
810.20	218.02
810.52	218.08
810.84	218.03
811.16	217.97
811.48	217.91
811.80	217.92
812.12	217.86
812.43	217.89
812.75	217.88
813.07	217.85
813.39	217.83
813.71	217.75
814.03	217.71
814.35	217.71
814.67	217.59
814.98	217.54
815.30	217.49
815.62	217.43
815.94	217.25
816.26	217.21
816.58	217.15
816.89	217.17
817.21	217.10
817.53	217.12
817.85	217.14
818.17	217.11
818.48	217.01
818.80	217.02
819.12	216.94
819.44	216.89
819.76	216.84
820.07	216.83
820.39	216.86
820.71	216.85
821.03	216.83
821.34	216.80
821.66	216.84
821.98	216.86
822.30	216.81
822.61	216.93
822.93	216.87
823.25	216.84
823.57	216.80
823.88	216.82
824.20	216.81
824.52	216.81
824.83	216.79
825.15	216.77
825.47	216.76
825.79	216.78
826.10	216.76
826.42	216.76
826.74	216.77
827.05	216.75
827.37	216.73
827.69	216.73
828.00	216.70
828.32	216.68
828.64	216.62
828.95	216.74
829.27	216.68
829.58	216.67
829.90	216.69
830.22	216.68
830.53	216.61
830.85	216.58
831.17	216.53
831.48	216.54
831.80	216.53
832.11	216.52
832.43	216.49
832.75	216.47
833.06	216.58
833.38	216.50
833.69	216.44
834.01	216.43
834.32	216.41
834.64	216.38
834.96	216.34
835.27	216.34
835.59	216.25
835.90	216.23
836.22	216.25
836.53	216.18
836.85	216.15
837.16	216.37
837.48	216.39
837.79	216.48
838.11	216.49
838.42	216.50
838.74	216.55
839.05	216.49
839.37	216.50
839.68	216.39
840.00	216.40
840.31	216.47
840.63	216.44
840.94	216.42
841.26	216.39
841.57	216.38
841.88	216.41
842.20	216.41
842.51	216.35
842.83	216.32
843.14	216.53
843.46	216.55
843.77	216.40
844.08	216.37
844.40	216.27
844.71	216.25
845.03	216.20
845.34	216.12
845.65	216.16
845.97	216.13
846.28	216.13
846.60	216.17
846.91	216.12
847.22	216.13
847.54	216.17
847.85	216.19
848.16	216.16
848.48	216.10
848.79	216.18
849.10	216.21
849.42	216.25
849.73	216.05
850.04	216.06
850.36	215.98
850.67	215.99
850.98	216.04
851.30	216.05
851.61	216.05
851.92	216.06
852.23	216.11
852.55	216.15
852.86	216.15
853.17	216.12
853.49	216.19
853.80	216.21
854.11	216.21
854.42	216.24
854.74	216.23
855.05	216.24
855.36	216.10
855.67	216.10
855.99	216.09
856.30	216.32
856.61	216.27
856.92	216.25
857.23	216.25
857.55	216.20
857.86	216.20
858.17	216.21
858.48	216.17
858.79	216.11
859.11	216.11
859.42	216.05
859.73	216.04
860.04	216.01
860.35	215.94
860.66	215.87
860.98	215.86
861.29	215.88
861.60	215.86
861.91	215.92
862.22	215.86
862.53	215.80
862.84	215.54
863.16	215.60
863.47	215.56
863.78	215.57
864.09	215.57
864.40	215.56
864.71	215.59
865.02	215.62
865.33	215.59
865.64	215.54
865.95	215.58
866.27	215.70
866.58	215.68
866.89	215.74
867.20	215.74
867.51	215.70
867.82	215.69
868.13	215.75
868.44	215.69
868.75	215.75
869.06	215.76
869.37	215.80
869.68	215.70
869.99	215.76
870.30	215.77
870.61	215.77
870.92	215.74
871.23	215.72
871.54	215.74
871.85	215.77
872.16	215.80
872.47	215.77
872.78	215.64
873.09	215.62
873.40	215.58
873.71	215.58
874.02	215.60
874.33	215.59
874.64	215.58
874.95	215.61
875.26	215.56
875.56	215.56
875.87	215.54
876.18	215.57
876.49	215.75
876.80	215.71
877.11	215.70
877.42	215.70
877.73	215.71
878.04	215.67
878.35	215.69
878.66	215.70
878.96	215.69
879.27	215.68
879.58	215.68
879.89	215.65
880.20	215.73
880.51	215.71
880.82	215.71
881.12	215.70
881.43	215.66
881.74	215.65
882.05	215.67
882.36	215.67
882.67	215.67
882.97	215.50
883.28	215.49
883.59	215.45
883.90	215.49
884.21	215.51
884.51	215.48
884.82	215.44
885.13	215.44
885.44	215.43
885.74	215.46
886.05	215.44
886.36	215.43
886.67	215.36
886.98	215.45
887.28	215.45
887.59	215.47
887.90	215.50
888.20	215.48
888.51	215.49
888.82	215.46
889.13	215.48
889.43	215.61
889.74	215.60
890.05	215.62
890.35	215.61
890.66	215.57
890.97	215.55
891.28	215.52
891.58	215.52
891.89	215.55
892.20	215.50
892.50	215.52
892.81	215.54
893.12	215.54
893.42	215.45
893.73	215.46
894.04	215.44
894.34	215.44
894.65	215.43
894.95	215.41
895.26	215.41
895.57	215.50
895.87	215.31
896.18	215.35
896.48	215.35
896.79	215.34
897.10	215.37
897.40	215.39
897.71	215.43
898.01	215.39
898.32	215.40
898.63	215.42
898.93	215.44
899.24	215.41
899.54	215.41
899.85	215.41
900.15	215.39
900.46	215.39
900.76	215.39
901.07	215.40
901.38	215.40
901.68	215.45
901.99	215.33
902.29	215.34
902.60	215.34
902.90	215.36
903.21	215.33
903.51	215.32
903.82	215.35
904.12	215.33
904.43	215.36
904.73	215.36
905.03	215.34
905.34	215.54
905.64	215.55
905.95	215.53
906.25	215.52
906.56	215.53
906.86	215.55
907.17	215.57
907.47	215.60
907.77	215.59
908.08	215.52
908.38	215.57
908.69	215.54
908.99	215.56
909.30	215.58
909.60	215.61
909.90	215.65
910.21	215.59
910.51	215.56
910.81	215.56
911.12	215.61
911.42	215.61
911.73	215.36
912.03	215.37
912.33	215.43
912.64	215.40
912.94	215.39
913.24	215.34
913.55	215.31
913.85	215.28
914.15	215.31
914.46	215.36
914.76	215.33
915.06	215.37
915.37	215.30
915.67	215.29
915.97	215.27
916.27	215.19
916.58	215.20
916.88	215.22
917.18	215.23
917.49	215.32
917.79	215.32
918.09	215.39
918.39	215.42
918.70	215.40
919.00	215.42
919.30	215.51
919.60	215.52
919.91	215.50
920.21	215.53
920.51	215.50
920.81	215.47
921.12	215.48
921.42	215.50
921.72	215.51
922.02	215.54
922.32	215.56
922.63	215.59
922.93	215.70
923.23	215.72
923.53	215.65
923.83	215.51
924.13	215.51
924.44	215.49
924.74	215.55
925.04	215.63
925.34	215.65
925.64	215.57
925.94	215.56
926.24	215.66
926.55	215.62
926.85	215.65
927.15	215.66
927.45	215.65
927.75	215.64
928.05	215.66
928.35	215.61
928.65	215.66
928.95	215.64
929.26	215.56
929.56	215.60
929.86	215.62
930.16	215.62
930.46	215.63
930.76	215.62
931.06	215.51
931.36	215.43
931.66	215.42
931.96	215.45
932.26	215.48
932.56	215.40
932.86	215.43
933.16	215.44
933.46	215.38
933.76	215.36
934.06	215.41
934.36	215.47
934.66	215.46
934.96	215.41
935.26	215.44
935.56	215.50
935.86	215.42
936.16	215.41
936.46	215.40
936.76	215.39
937.06	215.37
937.36	215.41
937.66	215.43
937.96	215.41
938.26	215.35
938.56	215.34
938.86	215.37
939.16	215.40
939.46	215.40
939.76	215.46
940.06	215.46
940.35	215.40
940.65	215.28
940.95	215.30
941.25	215.27
941.55	215.25
941.85	215.20
942.15	215.26
942.45	215.33
942.75	215.33
943.04	215.33
943.34	215.36
943.64	215.33
943.94	215.28
944.24	215.32
944.54	215.32
944.84	215.30
945.13	215.24
945.43	215.20
945.73	215.19
946.03	215.16
946.33	215.16
946.62	215.10
946.92	215.10
947.22	215.11
947.52	215.10
947.82	215.11
948.11	215.08
948.41	215.02
948.71	214.97
949.01	214.98
949.31	214.96
949.60	214.94
949.90	214.97
950.20	214.96
950.50	214.93
950.79	214.94
951.09	214.95
951.39	214.93
951.69	214.91
951.98	214.95
952.28	214.96
952.58	214.98
952.87	215.00
953.17	215.03
953.47	215.00
953.76	215.01
954.06	214.98
954.36	214.96
954.66	214.96
954.95	214.98
955.25	214.99
955.55	215.00
955.84	214.96
956.14	214.98
956.44	215.01
956.73	214.99
957.03	214.98
957.32	215.00
957.62	215.02
957.92	215.03
958.21	214.98
958.51	215.20
958.81	215.19
959.10	215.21
959.40	215.24
959.69	215.25
959.99	215.30
960.29	215.32
960.58	215.32
960.88	215.43
961.17	215.41
961.47	215.43
961.76	215.42
962.06	215.47
962.36	215.45
962.65	215.44
962.95	215.45
963.24	215.46
963.54	215.44
963.83	215.45
964.13	215.46
964.42	215.43
964.72	215.26
965.01	215.26
965.31	215.26
965.60	215.22
965.90	215.35
966.19	215.27
966.49	215.27
966.78	215.26
967.08	215.19
967.37	215.19
967.67	215.15
967.96	215.21
968.26	215.19
968.55	215.22
968.85	215.20
969.14	215.21
969.43	215.19
969.73	215.21
970.02	215.17
970.32	215.16
970.61	215.19
970.91	215.14
971.20	215.13
971.49	215.13
971.79	215.14
972.08	215.02
972.38	215.05
972.67	215.02
972.96	215.07
973.26	215.03
973.55	215.10
973.85	215.09
974.14	215.04
974.43	215.06
974.73	215.00
975.02	215.01
975.31	214.98
975.61	214.96
975.90	214.92
976.19	214.93
976.49	214.95
976.78	214.97
977.07	214.96
977.37	214.95
977.66	214.95
977.95	214.91
978.24	214.90
978.54	214.92
978.83	214.91
979.12	214.92
979.42	214.96
979.71	214.92
980.00	214.90
980.29	214.92
980.59	214.86
980.88	214.94
981.17	214.90
981.46	214.89
981.76	214.92
982.05	215.01
982.34	215.02
982.63	215.03
982.93	215.03
983.22	215.10
983.51	215.11
983.80	215.17
984.09	215.24
984.39	215.25
984.68	215.24
984.97	215.27
985.26	215.23
985.55	215.23
985.85	215.20
986.14	215.27
986.43	215.29
986.72	215.32
987.01	215.23
987.30	215.26
987.59	215.26
987.89	215.25
988.18	215.17
988.47	215.17
988.76	215.10
989.05	215.04
989.34	214.97
989.63	215.04
989.92	215.01
990.22	214.93
990.51	214.90
990.80	214.87
991.09	214.89
991.38	214.91
991.67	214.87
991.96	214.84
992.25	214.83
992.54	214.79
992.83	214.77
993.12	214.79
993.41	214.84
993.70	214.93
993.99	214.97
994.28	215.01
994.58	215.03
994.87	215.06
995.16	215.07
995.45	215.09
995.74	215.03
996.03	215.04
996.32	215.11
996.61	215.16
996.90	215.18
997.19	215.16
997.48	215.20
997.77	215.19
998.06	215.22
998.34	215.21
998.63	215.22
998.92	215.22
999.21	215.25
999.50	215.22
999.79	215.17
1000.08	215.13
1000.37	215.15
1000.66	215.13
1000.95	215.18
1001.24	215.19
1001.53	215.19
1001.82	215.19
1002.11	215.16
1002.40	215.19
1002.68	215.24
1002.97	215.37
1003.26	215.35
1003.55	215.30
1003.84	215.32
1004.13	215.41
1004.42	215.39
1004.71	215.43
1004.99	215.40
1005.28	215.44
1005.57	215.45
1005.86	215.42
1006.15	215.44
1006.44	215.38
1006.72	215.38
1007.01	215.29
1007.30	215.30
1007.59	215.29
1007.88	215.27
1008.17	215.32
1008.45	215.27
1008.74	215.17
1009.03	215.09
1009.32	215.07
1009.60	215.04
1009.89	215.02
1010.18	214.91
1010.47	214.89
1010.76	214.84
1011.04	214.87
1011.33	214.89
1011.62	214.90
1011.91	214.91
1012.19	214.92
1012.48	214.93
1012.77	214.96
1013.05	215.10
1013.34	215.10
1013.63	215.09
1013.92	215.09
1014.20	215.03
1014.49	215.01
1014.78	215.04
1015.06	214.95
1015.35	214.97
1015.64	215.05
1015.92	215.08
1016.21	215.10
1016.50	215.06
1016.78	215.10
1017.07	215.12
1017.36	215.07
1017.64	215.02
1017.93	215.04
1018.22	215.02
1018.50	215.02
1018.79	214.99
1019.08	214.89
1019.36	214.92
1019.65	214.94
1019.93	214.97
1020.22	215.03
1020.51	215.16
1020.79	215.14
1021.08	214.73
1021.36	214.85
1021.65	214.63
1021.94	215.20
1022.22	215.51
1022.51	214.88
1022.79	215.56
1023.08	215.68
1023.36	217.71
1023.65	214.75
>>>>>End Processed Spectral Data<<<<<
