SpectraSuite Data File
++++++++++++++++++++++++++++++++++++
Date: Tue Jan 29 16:42:04 EST 2013
User: group
Dark Spectrum Present: No
Reference Spectrum Present: No
Number of Sampled Component Spectra: 1
Spectrometers: USB2E7196
Integration Time (usec): 65000 (USB2E7196)
Spectra Averaged: 100 (USB2E7196)
Boxcar Smoothing: 10 (USB2E7196)
Correct for Electrical Dark: No (USB2E7196)
Strobe/Lamp Enabled: No (USB2E7196)
Correct for Detector Non-linearity: No (USB2E7196)
Correct for Stray Light: No (USB2E7196)
Number of Pixels in Processed Spectrum: 2048
>>>>>Begin Processed Spectral Data<<<<<
339.09	0.00
339.48	201.47
339.86	202.61
340.24	204.03
340.63	205.69
341.01	210.08
341.39	208.33
341.78	209.62
342.16	211.35
342.54	211.57
342.93	200.59
343.31	210.74
343.69	211.29
344.07	211.77
344.46	212.23
344.84	212.62
345.22	212.81
345.60	213.12
345.99	213.35
346.37	213.50
346.75	213.60
347.13	213.67
347.52	213.75
347.90	213.88
348.28	213.91
348.66	214.04
349.05	214.03
349.43	214.14
349.81	214.22
350.19	214.32
350.57	214.39
350.96	214.49
351.34	214.58
351.72	214.68
352.10	214.81
352.48	214.91
352.87	214.97
353.25	215.03
353.63	215.06
354.01	215.13
354.39	215.21
354.77	215.32
355.15	215.45
355.54	215.51
355.92	215.50
356.30	215.57
356.68	215.78
357.06	215.87
357.44	215.92
357.82	216.01
358.20	216.10
358.58	216.15
358.97	216.23
359.35	216.35
359.73	216.45
360.11	216.49
360.49	216.55
360.87	216.62
361.25	216.72
361.63	216.88
362.01	216.96
362.39	216.98
362.77	217.04
363.15	217.08
363.53	217.13
363.91	217.18
364.29	217.22
364.67	217.07
365.05	217.07
365.43	217.09
365.81	217.09
366.19	217.17
366.57	217.31
366.95	217.32
367.33	217.28
367.71	217.30
368.09	217.35
368.47	217.34
368.85	217.33
369.23	217.36
369.61	217.25
369.99	217.27
370.37	217.28
370.75	217.36
371.13	217.30
371.51	217.25
371.89	217.22
372.27	217.23
372.65	217.20
373.03	217.18
373.41	217.14
373.78	217.11
374.16	216.96
374.54	216.83
374.92	216.74
375.30	216.70
375.68	216.62
376.06	216.56
376.44	216.53
376.82	216.46
377.19	216.39
377.57	216.33
377.95	216.23
378.33	216.19
378.71	215.98
379.09	215.95
379.47	215.93
379.84	215.88
380.22	215.77
380.60	215.67
380.98	215.61
381.36	215.56
381.73	215.49
382.11	215.50
382.49	215.49
382.87	215.47
383.25	215.40
383.62	215.60
384.00	215.53
384.38	215.49
384.76	215.51
385.13	215.56
385.51	215.54
385.89	215.49
386.27	215.47
386.64	215.51
387.02	215.45
387.40	215.40
387.78	215.38
388.15	215.38
388.53	215.37
388.91	215.37
389.29	215.33
389.66	215.36
390.04	215.31
390.42	215.30
390.79	215.27
391.17	215.28
391.55	215.02
391.92	215.02
392.30	214.98
392.68	214.91
393.05	214.86
393.43	214.87
393.81	214.88
394.18	214.85
394.56	214.83
394.94	214.88
395.31	214.87
395.69	214.96
396.06	215.01
396.44	215.03
396.82	215.03
397.19	215.13
397.57	215.10
397.95	215.18
398.32	215.16
398.70	215.23
399.07	215.31
399.45	215.34
399.82	215.41
400.20	215.48
400.58	215.57
400.95	215.54
401.33	215.66
401.70	215.85
402.08	215.94
402.45	216.01
402.83	216.17
403.20	216.27
403.58	216.31
403.95	216.44
404.33	216.61
404.71	216.74
405.08	217.01
405.46	217.21
405.83	217.40
406.21	217.61
406.58	217.84
406.96	218.00
407.33	218.32
407.70	218.62
408.08	219.08
408.45	219.45
408.83	219.87
409.20	220.23
409.58	220.49
409.95	220.94
410.33	221.43
410.70	221.84
411.08	222.41
411.45	223.04
411.82	223.62
412.20	224.34
412.57	225.19
412.95	225.77
413.32	226.59
413.69	227.39
414.07	228.31
414.44	229.29
414.82	230.36
415.19	231.50
415.56	232.69
415.94	233.86
416.31	235.27
416.68	236.67
417.06	238.21
417.43	239.78
417.81	241.53
418.18	243.34
418.55	245.32
418.93	247.39
419.30	249.51
419.67	251.72
420.04	254.02
420.42	256.44
420.79	259.28
421.16	262.10
421.54	265.05
421.91	268.08
422.28	271.20
422.66	274.54
423.03	277.87
423.40	281.26
423.77	284.86
424.15	288.51
424.52	292.40
424.89	296.61
425.26	300.71
425.64	304.61
426.01	308.93
426.38	313.42
426.75	317.91
427.13	322.61
427.50	327.68
427.87	332.81
428.24	337.99
428.61	342.96
428.99	348.47
429.36	354.48
429.73	360.35
430.10	366.33
430.47	372.38
430.85	378.64
431.22	385.33
431.59	392.49
431.96	399.33
432.33	406.84
432.70	414.10
433.08	422.65
433.45	430.75
433.82	438.73
434.19	447.66
434.56	456.42
434.93	464.79
435.30	472.99
435.68	482.26
436.05	491.31
436.42	500.32
436.79	508.53
437.16	517.35
437.53	526.63
437.90	535.81
438.27	544.79
438.64	554.06
439.01	562.62
439.38	570.17
439.75	577.57
440.13	586.03
440.50	594.10
440.87	600.60
441.24	607.25
441.61	614.69
441.98	620.08
442.35	626.45
442.72	632.90
443.09	639.05
443.46	642.74
443.83	645.23
444.20	647.44
444.57	650.62
444.94	652.14
445.31	653.66
445.68	655.01
446.05	655.68
446.42	654.92
446.79	653.99
447.16	652.99
447.53	652.21
447.90	648.82
448.27	645.48
448.64	640.81
449.01	637.47
449.37	631.53
449.74	625.85
450.11	618.95
450.48	611.44
450.85	603.94
451.22	597.45
451.59	591.36
451.96	585.47
452.33	577.55
452.70	570.37
453.07	561.82
453.43	553.18
453.80	544.83
454.17	536.77
454.54	529.18
454.91	520.91
455.28	512.89
455.65	505.46
456.02	497.93
456.38	491.52
456.75	483.61
457.12	477.00
457.49	470.43
457.86	464.19
458.23	458.80
458.59	452.89
458.96	446.88
459.33	441.50
459.70	436.06
460.07	431.76
460.43	426.87
460.80	422.27
461.17	418.22
461.54	413.99
461.91	409.99
462.27	405.84
462.64	402.45
463.01	398.63
463.38	394.94
463.74	391.21
464.11	387.95
464.48	385.10
464.85	382.00
465.21	379.54
465.58	376.91
465.95	373.77
466.32	371.16
466.68	368.49
467.05	365.88
467.42	363.33
467.78	360.62
468.15	358.05
468.52	356.10
468.88	353.60
469.25	351.35
469.62	349.53
469.98	347.62
470.35	345.76
470.72	344.05
471.08	342.19
471.45	340.67
471.82	339.12
472.18	337.46
472.55	336.26
472.92	334.87
473.28	333.60
473.65	332.45
474.02	331.28
474.38	330.43
474.75	329.73
475.11	328.93
475.48	328.41
475.85	327.89
476.21	327.40
476.58	327.05
476.94	326.83
477.31	326.48
477.67	326.17
478.04	326.01
478.41	325.96
478.77	326.18
479.14	326.11
479.50	326.23
479.87	326.46
480.23	326.75
480.60	327.03
480.96	327.29
481.33	327.90
481.69	328.47
482.06	328.97
482.42	329.40
482.79	329.98
483.15	330.70
483.52	331.60
483.88	332.53
484.25	333.48
484.61	334.49
484.98	335.58
485.34	336.91
485.71	338.28
486.07	339.70
486.44	340.98
486.80	342.61
487.17	344.30
487.53	346.20
487.90	348.12
488.26	350.16
488.62	352.33
488.99	354.36
489.35	356.49
489.72	358.88
490.08	361.43
490.44	364.03
490.81	366.78
491.17	369.55
491.54	372.52
491.90	375.58
492.26	378.85
492.63	382.27
492.99	385.74
493.36	389.40
493.72	393.31
494.08	397.33
494.45	401.52
494.81	405.90
495.17	410.35
495.54	415.04
495.90	419.83
496.26	424.81
496.63	429.99
496.99	435.37
497.35	440.97
497.72	446.76
498.08	452.59
498.44	458.68
498.80	465.08
499.17	471.61
499.53	478.33
499.89	485.21
500.26	492.18
500.62	499.30
500.98	506.73
501.34	514.18
501.71	521.95
502.07	529.85
502.43	537.83
502.79	546.00
503.16	554.39
503.52	562.98
503.88	571.62
504.24	580.62
504.60	589.81
504.97	599.01
505.33	608.28
505.69	618.18
506.05	628.05
506.41	637.92
506.78	647.95
507.14	658.19
507.50	668.67
507.86	679.43
508.22	690.16
508.59	700.88
508.95	712.00
509.31	723.28
509.67	734.77
510.03	746.21
510.39	757.99
510.75	769.86
511.12	781.81
511.48	794.01
511.84	806.20
512.20	818.44
512.56	831.19
512.92	844.13
513.28	856.91
513.64	869.75
514.00	882.64
514.37	895.60
514.73	908.68
515.09	921.69
515.45	934.50
515.81	947.62
516.17	961.05
516.53	974.36
516.89	987.52
517.25	1000.75
517.61	1014.41
517.97	1027.83
518.33	1040.99
518.69	1054.50
519.05	1068.36
519.41	1082.14
519.77	1096.10
520.13	1109.39
520.49	1122.61
520.85	1135.96
521.21	1149.31
521.57	1163.12
521.93	1176.36
522.29	1190.19
522.65	1203.94
523.01	1217.70
523.37	1230.99
523.73	1244.34
524.09	1257.51
524.45	1271.00
524.81	1284.55
525.17	1297.89
525.53	1311.16
525.89	1324.57
526.25	1337.85
526.61	1350.74
526.97	1363.87
527.33	1376.99
527.68	1390.49
528.04	1403.99
528.40	1417.20
528.76	1430.80
529.12	1443.76
529.48	1457.23
529.84	1469.65
530.20	1482.40
530.56	1495.06
530.91	1508.44
531.27	1521.37
531.63	1534.29
531.99	1547.17
532.35	1559.54
532.71	1572.14
533.07	1585.08
533.42	1597.46
533.78	1609.68
534.14	1621.74
534.50	1633.19
534.86	1644.79
535.21	1655.71
535.57	1667.27
535.93	1678.63
536.29	1689.70
536.65	1701.34
537.00	1712.40
537.36	1723.94
537.72	1735.19
538.08	1746.72
538.44	1757.63
538.79	1768.99
539.15	1780.15
539.51	1791.00
539.87	1802.35
540.22	1813.22
540.58	1824.33
540.94	1835.37
541.29	1845.70
541.65	1855.60
542.01	1866.23
542.37	1876.53
542.72	1886.90
543.08	1896.80
543.44	1907.46
543.79	1916.82
544.15	1926.44
544.51	1936.37
544.87	1946.28
545.22	1955.49
545.58	1964.42
545.94	1973.52
546.29	1981.93
546.65	1990.26
547.01	1998.60
547.36	2006.35
547.72	2014.25
548.07	2021.84
548.43	2029.65
548.79	2037.60
549.14	2045.99
549.50	2054.50
549.86	2062.37
550.21	2069.85
550.57	2077.70
550.92	2084.56
551.28	2092.14
551.64	2099.18
551.99	2106.68
552.35	2113.94
552.70	2120.98
553.06	2127.75
553.41	2134.10
553.77	2140.78
554.13	2147.11
554.48	2154.11
554.84	2161.30
555.19	2167.83
555.55	2174.28
555.90	2180.57
556.26	2187.41
556.61	2193.46
556.97	2198.26
557.32	2204.07
557.68	2210.64
558.03	2216.45
558.39	2221.83
558.74	2227.74
559.10	2233.40
559.45	2239.05
559.81	2244.67
560.16	2250.20
560.52	2256.16
560.87	2262.54
561.23	2268.30
561.58	2275.00
561.94	2280.37
562.29	2285.08
562.64	2291.21
563.00	2296.95
563.35	2302.44
563.71	2308.10
564.06	2313.68
564.42	2319.57
564.77	2324.46
565.12	2329.61
565.48	2334.56
565.83	2340.06
566.19	2345.52
566.54	2350.72
566.89	2355.33
567.25	2359.76
567.60	2365.41
567.96	2370.40
568.31	2374.85
568.66	2379.22
569.02	2383.10
569.37	2386.76
569.72	2391.00
570.08	2394.28
570.43	2397.20
570.78	2400.28
571.14	2402.79
571.49	2405.80
571.84	2409.29
572.20	2412.30
572.55	2415.21
572.90	2417.50
573.26	2420.16
573.61	2422.51
573.96	2424.69
574.31	2426.55
574.67	2428.39
575.02	2428.98
575.37	2430.37
575.72	2430.93
576.08	2432.35
576.43	2432.36
576.78	2432.57
577.13	2434.03
577.49	2435.05
577.84	2435.91
578.19	2436.99
578.54	2437.50
578.90	2438.12
579.25	2437.76
579.60	2437.53
579.95	2436.44
580.30	2436.41
580.66	2435.58
581.01	2433.83
581.36	2431.26
581.71	2429.75
582.06	2428.34
582.42	2427.34
582.77	2424.91
583.12	2423.12
583.47	2421.50
583.82	2420.71
584.17	2419.25
584.53	2417.01
584.88	2414.82
585.23	2412.89
585.58	2410.55
585.93	2408.53
586.28	2406.27
586.63	2403.67
586.98	2401.32
587.34	2399.44
587.69	2396.85
588.04	2394.69
588.39	2393.14
588.74	2390.56
589.09	2387.64
589.44	2384.34
589.79	2381.79
590.14	2379.69
590.49	2376.87
590.84	2372.82
591.19	2369.50
591.54	2366.38
591.89	2362.17
592.25	2358.81
592.60	2354.63
592.95	2350.38
593.30	2346.09
593.65	2341.62
594.00	2337.19
594.35	2334.12
594.70	2329.31
595.05	2324.69
595.40	2319.06
595.75	2313.13
596.10	2309.38
596.45	2304.62
596.80	2300.02
597.15	2294.66
597.50	2288.77
597.85	2283.70
598.19	2278.38
598.54	2272.65
598.89	2267.24
599.24	2262.64
599.59	2256.37
599.94	2250.32
600.29	2244.20
600.64	2238.01
600.99	2231.10
601.34	2225.57
601.69	2218.50
602.04	2212.08
602.39	2205.37
602.74	2199.33
603.08	2193.81
603.43	2187.38
603.78	2180.48
604.13	2173.35
604.48	2166.00
604.83	2159.75
605.18	2153.46
605.53	2146.57
605.87	2139.53
606.22	2132.68
606.57	2124.83
606.92	2116.86
607.27	2109.88
607.62	2103.35
607.96	2096.51
608.31	2090.10
608.66	2082.34
609.01	2074.75
609.36	2067.66
609.70	2059.83
610.05	2052.01
610.40	2043.66
610.75	2035.17
611.10	2027.29
611.44	2018.30
611.79	2009.56
612.14	1999.59
612.49	1988.89
612.83	1979.59
613.18	1970.21
613.53	1960.95
613.88	1951.27
614.22	1942.70
614.57	1932.87
614.92	1922.32
615.27	1911.97
615.61	1901.69
615.96	1891.99
616.31	1882.21
616.65	1872.65
617.00	1863.02
617.35	1853.24
617.70	1843.53
618.04	1833.69
618.39	1823.55
618.74	1814.04
619.08	1804.42
619.43	1795.78
619.78	1787.56
620.12	1778.88
620.47	1769.46
620.82	1759.04
621.16	1749.40
621.51	1739.47
621.85	1729.67
622.20	1719.37
622.55	1708.94
622.89	1699.08
623.24	1689.43
623.59	1679.68
623.93	1669.64
624.28	1659.90
624.62	1649.89
624.97	1639.72
625.32	1629.86
625.66	1620.95
626.01	1612.25
626.35	1603.01
626.70	1592.97
627.04	1582.98
627.39	1573.02
627.73	1563.74
628.08	1554.94
628.43	1545.38
628.77	1536.29
629.12	1527.48
629.46	1519.64
629.81	1511.34
630.15	1501.94
630.50	1492.23
630.84	1481.86
631.19	1472.08
631.53	1462.81
631.88	1452.74
632.22	1442.73
632.57	1433.41
632.91	1423.52
633.26	1413.56
633.60	1403.99
633.95	1394.83
634.29	1385.40
634.64	1376.05
634.98	1366.05
635.32	1356.86
635.67	1348.33
636.01	1339.06
636.36	1329.45
636.70	1319.93
637.05	1310.47
637.39	1301.62
637.73	1292.96
638.08	1285.48
638.42	1277.27
638.77	1268.60
639.11	1260.38
639.45	1252.62
639.80	1244.22
640.14	1235.34
640.49	1226.55
640.83	1217.77
641.17	1209.55
641.52	1201.52
641.86	1192.95
642.20	1185.17
642.55	1176.49
642.89	1167.66
643.23	1159.06
643.58	1150.81
643.92	1141.80
644.26	1133.21
644.61	1124.73
644.95	1115.88
645.29	1106.64
645.64	1097.54
645.98	1088.96
646.32	1081.00
646.66	1072.41
647.01	1063.98
647.35	1055.89
647.69	1047.73
648.04	1039.46
648.38	1030.60
648.72	1021.74
649.06	1013.28
649.41	1005.01
649.75	997.08
650.09	989.25
650.43	981.26
650.78	973.00
651.12	965.30
651.46	957.89
651.80	950.62
652.14	943.41
652.49	935.90
652.83	928.65
653.17	921.02
653.51	913.44
653.85	906.33
654.20	899.10
654.54	891.67
654.88	884.26
655.22	877.02
655.56	870.09
655.90	863.34
656.25	856.78
656.59	850.00
656.93	842.96
657.27	835.79
657.61	828.72
657.95	822.60
658.29	816.66
658.64	810.51
658.98	804.05
659.32	797.50
659.66	791.30
660.00	784.84
660.34	778.73
660.68	772.59
661.02	766.17
661.36	760.16
661.70	754.40
662.05	748.89
662.39	743.41
662.73	737.97
663.07	732.55
663.41	726.87
663.75	721.07
664.09	715.36
664.43	709.96
664.77	704.67
665.11	698.82
665.45	692.99
665.79	687.14
666.13	681.45
666.47	675.98
666.81	670.52
667.15	665.06
667.49	659.82
667.83	654.60
668.17	649.37
668.51	644.29
668.85	639.32
669.19	634.34
669.53	629.31
669.87	624.17
670.21	619.35
670.55	614.56
670.89	610.07
671.23	605.70
671.57	601.21
671.91	596.83
672.25	592.73
672.58	588.53
672.92	584.37
673.26	580.40
673.60	576.41
673.94	572.52
674.28	568.94
674.62	565.21
674.96	561.40
675.30	557.86
675.64	554.15
675.97	550.53
676.31	546.88
676.65	543.20
676.99	539.78
677.33	535.95
677.67	532.33
678.01	528.49
678.34	524.85
678.68	521.36
679.02	517.78
679.36	514.01
679.70	510.33
680.04	506.85
680.37	503.31
680.71	500.04
681.05	496.78
681.39	493.48
681.73	490.20
682.06	487.17
682.40	484.00
682.74	480.81
683.08	477.54
683.42	474.32
683.75	471.30
684.09	468.18
684.43	465.34
684.77	462.40
685.10	459.51
685.44	456.57
685.78	453.61
686.12	450.76
686.45	448.01
686.79	445.30
687.13	442.64
687.46	440.06
687.80	437.33
688.14	434.48
688.48	431.79
688.81	429.11
689.15	426.50
689.49	423.82
689.82	421.24
690.16	418.65
690.50	416.20
690.83	413.68
691.17	411.15
691.51	408.59
691.84	406.26
692.18	404.05
692.52	401.82
692.85	399.69
693.19	397.53
693.52	395.32
693.86	393.08
694.20	390.88
694.53	388.69
694.87	386.44
695.21	384.28
695.54	382.04
695.88	379.86
696.21	377.61
696.55	375.52
696.88	373.41
697.22	371.37
697.56	369.42
697.89	367.50
698.23	365.68
698.56	363.91
698.90	362.09
699.23	360.15
699.57	358.21
699.90	356.23
700.24	354.38
700.58	352.60
700.91	350.88
701.25	349.29
701.58	347.64
701.92	346.02
702.25	344.41
702.59	342.81
702.92	341.26
703.26	339.68
703.59	338.17
703.93	336.86
704.26	335.46
704.60	333.90
704.93	332.40
705.26	330.88
705.60	329.37
705.93	327.82
706.27	326.48
706.60	325.22
706.94	324.01
707.27	322.63
707.61	321.27
707.94	319.96
708.27	318.42
708.61	316.98
708.94	315.58
709.28	314.26
709.61	313.01
709.94	311.77
710.28	310.52
710.61	309.34
710.95	307.90
711.28	306.78
711.61	305.64
711.95	304.50
712.28	303.26
712.61	302.07
712.95	301.02
713.28	299.94
713.61	298.75
713.95	297.58
714.28	296.52
714.61	295.43
714.95	294.37
715.28	293.35
715.61	292.32
715.95	291.34
716.28	290.36
716.61	289.34
716.95	288.29
717.28	287.36
717.61	286.33
717.94	285.42
718.28	284.39
718.61	283.45
718.94	282.53
719.27	281.65
719.61	280.85
719.94	279.94
720.27	278.96
720.60	278.09
720.94	277.30
721.27	276.48
721.60	275.79
721.93	275.03
722.27	274.34
722.60	273.63
722.93	272.91
723.26	272.24
723.59	271.55
723.93	270.95
724.26	270.28
724.59	269.60
724.92	268.99
725.25	268.44
725.59	267.87
725.92	267.31
726.25	266.77
726.58	266.17
726.91	265.58
727.24	265.03
727.57	264.45
727.91	263.81
728.24	263.33
728.57	262.70
728.90	262.15
729.23	261.54
729.56	261.08
729.89	260.58
730.22	260.00
730.55	259.47
730.89	258.89
731.22	258.35
731.55	257.86
731.88	257.34
732.21	256.73
732.54	256.17
732.87	255.66
733.20	255.12
733.53	254.62
733.86	254.14
734.19	253.68
734.52	253.31
734.85	253.04
735.18	252.51
735.51	252.17
735.84	251.76
736.17	251.39
736.50	250.89
736.83	250.72
737.16	250.33
737.49	249.90
737.82	249.51
738.15	249.15
738.48	248.76
738.81	248.31
739.14	247.92
739.47	247.51
739.80	247.13
740.13	246.78
740.46	246.38
740.79	246.03
741.12	245.64
741.45	245.23
741.78	244.77
742.11	244.50
742.44	244.10
742.77	243.78
743.10	243.42
743.43	243.07
743.75	242.50
744.08	242.41
744.41	242.08
744.74	241.70
745.07	241.30
745.40	241.00
745.73	240.79
746.06	240.47
746.39	240.17
746.71	239.81
747.04	239.44
747.37	239.13
747.70	238.82
748.03	238.52
748.36	238.23
748.68	237.93
749.01	237.56
749.34	237.26
749.67	236.95
750.00	236.68
750.33	236.54
750.65	236.22
750.98	235.66
751.31	235.44
751.64	235.22
751.97	235.12
752.29	234.83
752.62	234.48
752.95	234.26
753.28	233.97
753.60	233.72
753.93	233.56
754.26	233.33
754.59	233.03
754.91	232.78
755.24	232.54
755.57	232.30
755.90	232.10
756.22	231.84
756.55	231.59
756.88	231.30
757.20	230.95
757.53	230.73
757.86	230.55
758.19	230.33
758.51	230.12
758.84	229.78
759.17	229.57
759.49	229.40
759.82	229.32
760.15	229.19
760.47	229.04
760.80	228.79
761.13	228.65
761.45	228.45
761.78	228.27
762.11	228.08
762.43	227.90
762.76	227.71
763.08	227.59
763.41	227.41
763.74	227.29
764.06	227.12
764.39	226.95
764.71	226.82
765.04	226.63
765.37	226.48
765.69	226.35
766.02	226.20
766.34	226.06
766.67	225.81
767.00	225.71
767.32	225.68
767.65	225.65
767.97	225.48
768.30	225.36
768.62	225.24
768.95	225.09
769.27	224.93
769.60	224.83
769.92	224.68
770.25	224.55
770.57	224.37
770.90	224.27
771.22	224.13
771.55	224.02
771.87	223.94
772.20	223.80
772.52	223.84
772.85	223.99
773.17	223.88
773.50	223.73
773.82	223.61
774.15	223.41
774.47	223.17
774.80	223.04
775.12	222.95
775.45	222.83
775.77	222.76
776.09	222.70
776.42	222.59
776.74	222.51
777.07	222.42
777.39	222.34
777.72	222.21
778.04	222.16
778.36	222.06
778.69	221.97
779.01	221.91
779.33	221.63
779.66	221.30
779.98	221.20
780.31	221.18
780.63	221.17
780.95	221.10
781.28	221.05
781.60	221.00
781.92	220.93
782.25	220.87
782.57	220.82
782.89	220.72
783.22	220.64
783.54	220.59
783.86	220.55
784.19	220.50
784.51	220.50
784.83	220.44
785.16	220.36
785.48	220.31
785.80	220.24
786.12	220.22
786.45	220.15
786.77	220.09
787.09	220.00
787.42	219.82
787.74	219.77
788.06	219.72
788.38	219.65
788.71	219.57
789.03	219.51
789.35	219.48
789.67	219.44
789.99	219.40
790.32	219.29
790.64	219.25
790.96	219.35
791.28	219.28
791.61	219.18
791.93	219.17
792.25	219.12
792.57	219.19
792.89	219.10
793.21	219.10
793.54	219.05
793.86	218.98
794.18	218.96
794.50	218.89
794.82	218.85
795.14	218.84
795.47	218.87
795.79	218.85
796.11	218.73
796.43	218.66
796.75	218.59
797.07	218.57
797.39	218.52
797.71	218.35
798.04	218.29
798.36	218.24
798.68	218.17
799.00	218.13
799.32	217.97
799.64	217.98
799.96	217.92
800.28	217.91
800.60	217.90
800.92	217.90
801.24	217.85
801.56	217.80
801.89	217.70
802.21	217.66
802.53	217.57
802.85	217.61
803.17	217.70
803.49	217.64
803.81	217.58
804.13	217.55
804.45	217.48
804.77	217.43
805.09	217.42
805.41	217.35
805.73	217.29
806.05	217.24
806.37	217.21
806.69	217.16
807.01	217.12
807.33	217.08
807.65	217.02
807.97	217.09
808.28	217.03
808.60	217.00
808.92	216.95
809.24	217.06
809.56	216.98
809.88	216.88
810.20	216.86
810.52	216.89
810.84	216.83
811.16	216.80
811.48	216.76
811.80	216.79
812.12	216.75
812.43	216.77
812.75	216.74
813.07	216.68
813.39	216.68
813.71	216.63
814.03	216.60
814.35	216.53
814.67	216.39
814.98	216.38
815.30	216.37
815.62	216.30
815.94	216.12
816.26	216.10
816.58	216.03
816.89	216.02
817.21	215.92
817.53	215.93
817.85	215.91
818.17	215.90
818.48	215.80
818.80	215.83
819.12	215.79
819.44	215.75
819.76	215.69
820.07	215.65
820.39	215.63
820.71	215.62
821.03	215.59
821.34	215.57
821.66	215.56
821.98	215.55
822.30	215.52
822.61	215.63
822.93	215.60
823.25	215.60
823.57	215.56
823.88	215.61
824.20	215.58
824.52	215.60
824.83	215.59
825.15	215.56
825.47	215.54
825.79	215.54
826.10	215.49
826.42	215.49
826.74	215.55
827.05	215.53
827.37	215.48
827.69	215.48
828.00	215.50
828.32	215.50
828.64	215.47
828.95	215.59
829.27	215.52
829.58	215.53
829.90	215.53
830.22	215.56
830.53	215.51
830.85	215.47
831.17	215.43
831.48	215.41
831.80	215.38
832.11	215.39
832.43	215.37
832.75	215.40
833.06	215.52
833.38	215.41
833.69	215.40
834.01	215.44
834.32	215.43
834.64	215.41
834.96	215.40
835.27	215.41
835.59	215.31
835.90	215.30
836.22	215.28
836.53	215.23
836.85	215.18
837.16	215.38
837.48	215.42
837.79	215.46
838.11	215.45
838.42	215.45
838.74	215.45
839.05	215.37
839.37	215.34
839.68	215.20
840.00	215.23
840.31	215.23
840.63	215.18
840.94	215.15
841.26	215.12
841.57	215.12
841.88	215.13
842.20	215.09
842.51	215.02
842.83	215.01
843.14	215.19
843.46	215.18
843.77	215.03
844.08	214.97
844.40	214.90
844.71	214.86
845.03	214.87
845.34	214.86
845.65	214.87
845.97	214.86
846.28	214.86
846.60	214.84
846.91	214.83
847.22	214.84
847.54	214.87
847.85	214.88
848.16	214.84
848.48	214.76
848.79	214.86
849.10	214.88
849.42	214.92
849.73	214.75
850.04	214.71
850.36	214.64
850.67	214.67
850.98	214.68
851.30	214.70
851.61	214.69
851.92	214.68
852.23	214.75
852.55	214.78
852.86	214.80
853.17	214.80
853.49	214.83
853.80	214.87
854.11	214.90
854.42	214.92
854.74	214.91
855.05	214.98
855.36	214.86
855.67	214.89
855.99	214.87
856.30	215.10
856.61	215.10
856.92	215.09
857.23	215.08
857.55	215.06
857.86	215.06
858.17	215.10
858.48	215.05
858.79	215.01
859.11	215.02
859.42	214.99
859.73	214.96
860.04	214.95
860.35	214.88
860.66	214.81
860.98	214.81
861.29	214.83
861.60	214.79
861.91	214.86
862.22	214.82
862.53	214.78
862.84	214.53
863.16	214.60
863.47	214.57
863.78	214.55
864.09	214.54
864.40	214.57
864.71	214.53
865.02	214.55
865.33	214.52
865.64	214.49
865.95	214.50
866.27	214.65
866.58	214.63
866.89	214.64
867.20	214.63
867.51	214.60
867.82	214.60
868.13	214.65
868.44	214.57
868.75	214.58
869.06	214.57
869.37	214.59
869.68	214.52
869.99	214.57
870.30	214.59
870.61	214.64
870.92	214.56
871.23	214.55
871.54	214.60
871.85	214.63
872.16	214.64
872.47	214.62
872.78	214.46
873.09	214.48
873.40	214.45
873.71	214.48
874.02	214.46
874.33	214.46
874.64	214.38
874.95	214.43
875.26	214.43
875.56	214.44
875.87	214.42
876.18	214.38
876.49	214.56
876.80	214.55
877.11	214.49
877.42	214.50
877.73	214.50
878.04	214.45
878.35	214.47
878.66	214.45
878.96	214.40
879.27	214.42
879.58	214.40
879.89	214.39
880.20	214.42
880.51	214.44
880.82	214.41
881.12	214.45
881.43	214.38
881.74	214.31
882.05	214.30
882.36	214.32
882.67	214.35
882.97	214.13
883.28	214.10
883.59	214.12
883.90	214.16
884.21	214.19
884.51	214.18
884.82	214.13
885.13	214.14
885.44	214.19
885.74	214.18
886.05	214.16
886.36	214.17
886.67	214.11
886.98	214.20
887.28	214.25
887.59	214.28
887.90	214.32
888.20	214.32
888.51	214.38
888.82	214.35
889.13	214.37
889.43	214.56
889.74	214.53
890.05	214.49
890.35	214.50
890.66	214.47
890.97	214.46
891.28	214.42
891.58	214.47
891.89	214.43
892.20	214.43
892.50	214.42
892.81	214.42
893.12	214.43
893.42	214.30
893.73	214.30
894.04	214.26
894.34	214.28
894.65	214.29
894.95	214.27
895.26	214.27
895.57	214.35
895.87	214.15
896.18	214.21
896.48	214.25
896.79	214.23
897.10	214.26
897.40	214.25
897.71	214.31
898.01	214.26
898.32	214.34
898.63	214.36
898.93	214.38
899.24	214.37
899.54	214.34
899.85	214.35
900.15	214.33
900.46	214.31
900.76	214.30
901.07	214.28
901.38	214.25
901.68	214.27
901.99	214.16
902.29	214.17
902.60	214.17
902.90	214.15
903.21	214.15
903.51	214.12
903.82	214.19
904.12	214.19
904.43	214.19
904.73	214.12
905.03	214.10
905.34	214.31
905.64	214.31
905.95	214.32
906.25	214.30
906.56	214.31
906.86	214.32
907.17	214.32
907.47	214.34
907.77	214.33
908.08	214.28
908.38	214.29
908.69	214.28
908.99	214.30
909.30	214.32
909.60	214.30
909.90	214.35
910.21	214.27
910.51	214.20
910.81	214.20
911.12	214.22
911.42	214.23
911.73	214.01
912.03	214.02
912.33	214.06
912.64	214.08
912.94	214.08
913.24	214.06
913.55	214.04
913.85	214.03
914.15	214.08
914.46	214.12
914.76	214.13
915.06	214.13
915.37	214.10
915.67	214.08
915.97	214.09
916.27	213.99
916.58	214.01
916.88	214.05
917.18	214.05
917.49	214.20
917.79	214.20
918.09	214.20
918.39	214.24
918.70	214.25
919.00	214.26
919.30	214.34
919.60	214.33
919.91	214.29
920.21	214.30
920.51	214.25
920.81	214.23
921.12	214.24
921.42	214.24
921.72	214.22
922.02	214.23
922.32	214.26
922.63	214.29
922.93	214.40
923.23	214.40
923.53	214.37
923.83	214.23
924.13	214.24
924.44	214.25
924.74	214.29
925.04	214.33
925.34	214.31
925.64	214.21
925.94	214.22
926.24	214.34
926.55	214.34
926.85	214.35
927.15	214.36
927.45	214.37
927.75	214.38
928.05	214.43
928.35	214.40
928.65	214.42
928.95	214.43
929.26	214.33
929.56	214.36
929.86	214.40
930.16	214.38
930.46	214.35
930.76	214.38
931.06	214.30
931.36	214.22
931.66	214.24
931.96	214.23
932.26	214.22
932.56	214.18
932.86	214.19
933.16	214.18
933.46	214.16
933.76	214.13
934.06	214.17
934.36	214.22
934.66	214.21
934.96	214.22
935.26	214.22
935.56	214.21
935.86	214.17
936.16	214.14
936.46	214.13
936.76	214.14
937.06	214.08
937.36	214.06
937.66	214.08
937.96	214.10
938.26	214.08
938.56	214.03
938.86	214.00
939.16	214.04
939.46	214.08
939.76	214.09
940.06	214.06
940.35	214.01
940.65	213.92
940.95	213.93
941.25	213.87
941.55	213.86
941.85	213.87
942.15	213.92
942.45	214.01
942.75	214.01
943.04	214.01
943.34	214.07
943.64	214.06
943.94	214.01
944.24	213.99
944.54	214.05
944.84	214.08
945.13	214.05
945.43	214.00
945.73	213.96
946.03	213.95
946.33	213.95
946.62	213.93
946.92	213.89
947.22	213.92
947.52	213.90
947.82	213.89
948.11	213.88
948.41	213.80
948.71	213.71
949.01	213.72
949.31	213.68
949.60	213.64
949.90	213.67
950.20	213.68
950.50	213.71
950.79	213.67
951.09	213.70
951.39	213.67
951.69	213.65
951.98	213.73
952.28	213.75
952.58	213.76
952.87	213.78
953.17	213.84
953.47	213.81
953.76	213.85
954.06	213.82
954.36	213.82
954.66	213.81
954.95	213.88
955.25	213.91
955.55	213.96
955.84	213.94
956.14	213.97
956.44	213.94
956.73	213.87
957.03	213.90
957.32	213.89
957.62	213.93
957.92	213.97
958.21	213.91
958.51	214.15
958.81	214.17
959.10	214.18
959.40	214.22
959.69	214.23
959.99	214.24
960.29	214.30
960.58	214.29
960.88	214.39
961.17	214.34
961.47	214.32
961.76	214.26
962.06	214.30
962.36	214.27
962.65	214.30
962.95	214.33
963.24	214.29
963.54	214.28
963.83	214.26
964.13	214.22
964.42	214.20
964.72	214.02
965.01	214.01
965.31	213.99
965.60	213.92
965.90	214.02
966.19	213.99
966.49	213.94
966.78	213.91
967.08	213.87
967.37	213.89
967.67	213.85
967.96	213.92
968.26	213.91
968.55	213.91
968.85	213.92
969.14	213.95
969.43	213.97
969.73	213.93
970.02	213.96
970.32	213.98
970.61	213.98
970.91	213.93
971.20	213.90
971.49	213.90
971.79	213.93
972.08	213.80
972.38	213.81
972.67	213.82
972.96	213.87
973.26	213.86
973.55	213.92
973.85	213.93
974.14	213.90
974.43	213.92
974.73	213.90
975.02	213.84
975.31	213.84
975.61	213.80
975.90	213.81
976.19	213.76
976.49	213.75
976.78	213.77
977.07	213.74
977.37	213.79
977.66	213.78
977.95	213.76
978.24	213.79
978.54	213.82
978.83	213.81
979.12	213.79
979.42	213.79
979.71	213.73
980.00	213.70
980.29	213.70
980.59	213.64
980.88	213.67
981.17	213.68
981.46	213.64
981.76	213.66
982.05	213.76
982.34	213.81
982.63	213.82
982.93	213.81
983.22	213.88
983.51	213.89
983.80	213.92
984.09	213.97
984.39	213.97
984.68	213.95
984.97	213.98
985.26	213.96
985.55	213.97
985.85	213.92
986.14	214.00
986.43	214.04
986.72	214.07
987.01	214.01
987.30	214.02
987.59	214.05
987.89	214.06
988.18	214.00
988.47	213.96
988.76	213.95
989.05	213.93
989.34	213.88
989.63	213.93
989.92	213.90
990.22	213.85
990.51	213.82
990.80	213.81
991.09	213.83
991.38	213.87
991.67	213.84
991.96	213.86
992.25	213.86
992.54	213.82
992.83	213.79
993.12	213.78
993.41	213.82
993.70	213.87
993.99	213.92
994.28	213.91
994.58	213.99
994.87	213.96
995.16	213.98
995.45	214.00
995.74	213.89
996.03	213.94
996.32	213.95
996.61	214.00
996.90	213.99
997.19	213.96
997.48	213.95
997.77	213.94
998.06	213.95
998.34	213.94
998.63	213.91
998.92	213.93
999.21	213.98
999.50	213.95
999.79	213.87
1000.08	213.86
1000.37	213.89
1000.66	213.81
1000.95	213.85
1001.24	213.86
1001.53	213.84
1001.82	213.82
1002.11	213.77
1002.40	213.82
1002.68	213.85
1002.97	213.97
1003.26	213.93
1003.55	213.95
1003.84	213.93
1004.13	214.01
1004.42	213.98
1004.71	214.02
1004.99	214.01
1005.28	214.08
1005.57	214.12
1005.86	214.12
1006.15	214.04
1006.44	214.01
1006.72	214.04
1007.01	214.03
1007.30	214.03
1007.59	214.05
1007.88	214.06
1008.17	214.06
1008.45	214.00
1008.74	213.92
1009.03	213.85
1009.32	213.88
1009.60	213.87
1009.89	213.87
1010.18	213.77
1010.47	213.74
1010.76	213.71
1011.04	213.72
1011.33	213.71
1011.62	213.73
1011.91	213.77
1012.19	213.82
1012.48	213.82
1012.77	213.82
1013.05	213.92
1013.34	213.92
1013.63	213.89
1013.92	213.91
1014.20	213.91
1014.49	213.93
1014.78	213.97
1015.06	213.88
1015.35	213.87
1015.64	213.86
1015.92	213.91
1016.21	213.93
1016.50	213.96
1016.78	214.02
1017.07	214.03
1017.36	213.96
1017.64	213.90
1017.93	213.90
1018.22	213.90
1018.50	213.90
1018.79	213.92
1019.08	213.79
1019.36	213.80
1019.65	213.78
1019.93	213.85
1020.22	213.91
1020.51	214.03
1020.79	214.01
1021.08	214.01
1021.36	213.36
1021.65	214.47
1021.94	213.48
1022.22	213.65
1022.51	213.61
1022.79	214.91
1023.08	214.85
1023.36	216.56
1023.65	213.62
>>>>>End Processed Spectral Data<<<<<
