SpectraSuite Data File
++++++++++++++++++++++++++++++++++++
Date: Tue Jan 29 16:36:16 EST 2013
User: group
Dark Spectrum Present: No
Reference Spectrum Present: No
Number of Sampled Component Spectra: 1
Spectrometers: USB2E7196
Integration Time (usec): 65000 (USB2E7196)
Spectra Averaged: 100 (USB2E7196)
Boxcar Smoothing: 10 (USB2E7196)
Correct for Electrical Dark: No (USB2E7196)
Strobe/Lamp Enabled: No (USB2E7196)
Correct for Detector Non-linearity: No (USB2E7196)
Correct for Stray Light: No (USB2E7196)
Number of Pixels in Processed Spectrum: 2048
>>>>>Begin Processed Spectral Data<<<<<
339.09	0.00
339.48	201.14
339.86	203.88
340.24	204.75
340.63	205.92
341.01	210.13
341.39	208.57
341.78	211.03
342.16	211.89
342.54	212.58
342.93	201.27
343.31	211.45
343.69	212.04
344.07	212.46
344.46	212.93
344.84	213.33
345.22	213.55
345.60	213.85
345.99	214.03
346.37	214.14
346.75	214.21
347.13	214.27
347.52	214.35
347.90	214.46
348.28	214.47
348.66	214.53
349.05	214.48
349.43	214.52
349.81	214.56
350.19	214.61
350.57	214.69
350.96	214.76
351.34	214.84
351.72	214.91
352.10	215.05
352.48	215.10
352.87	215.16
353.25	215.18
353.63	215.19
354.01	215.24
354.39	215.32
354.77	215.39
355.15	215.51
355.54	215.52
355.92	215.52
356.30	215.60
356.68	215.79
357.06	215.89
357.44	215.93
357.82	215.97
358.20	216.06
358.58	216.12
358.97	216.20
359.35	216.28
359.73	216.38
360.11	216.44
360.49	216.48
360.87	216.51
361.25	216.58
361.63	216.70
362.01	216.71
362.39	216.72
362.77	216.79
363.15	216.80
363.53	216.85
363.91	216.88
364.29	216.91
364.67	216.72
365.05	216.70
365.43	216.73
365.81	216.78
366.19	216.88
366.57	216.97
366.95	216.97
367.33	216.95
367.71	216.94
368.09	216.94
368.47	216.93
368.85	216.92
369.23	216.97
369.61	216.88
369.99	217.00
370.37	217.04
370.75	217.12
371.13	217.09
371.51	217.03
371.89	217.02
372.27	217.00
372.65	216.99
373.03	216.98
373.41	216.96
373.78	216.93
374.16	216.78
374.54	216.67
374.92	216.58
375.30	216.55
375.68	216.45
376.06	216.41
376.44	216.35
376.82	216.33
377.19	216.28
377.57	216.28
377.95	216.15
378.33	216.10
378.71	215.91
379.09	215.89
379.47	215.90
379.84	215.84
380.22	215.77
380.60	215.71
380.98	215.68
381.36	215.60
381.73	215.53
382.11	215.54
382.49	215.51
382.87	215.47
383.25	215.44
383.62	215.69
384.00	215.61
384.38	215.59
384.76	215.62
385.13	215.68
385.51	215.64
385.89	215.57
386.27	215.53
386.64	215.57
387.02	215.52
387.40	215.45
387.78	215.46
388.15	215.45
388.53	215.42
388.91	215.38
389.29	215.35
389.66	215.35
390.04	215.32
390.42	215.36
390.79	215.35
391.17	215.34
391.55	215.08
391.92	215.10
392.30	215.11
392.68	215.02
393.05	214.98
393.43	214.96
393.81	214.98
394.18	214.99
394.56	214.96
394.94	215.02
395.31	215.05
395.69	215.12
396.06	215.17
396.44	215.22
396.82	215.23
397.19	215.36
397.57	215.36
397.95	215.40
398.32	215.32
398.70	215.38
399.07	215.44
399.45	215.49
399.82	215.55
400.20	215.61
400.58	215.69
400.95	215.68
401.33	215.81
401.70	216.03
402.08	216.11
402.45	216.24
402.83	216.38
403.20	216.47
403.58	216.56
403.95	216.71
404.33	216.86
404.71	217.00
405.08	217.28
405.46	217.46
405.83	217.67
406.21	217.93
406.58	218.14
406.96	218.37
407.33	218.61
407.70	218.90
408.08	219.35
408.45	219.69
408.83	220.09
409.20	220.41
409.58	220.66
409.95	221.13
410.33	221.60
410.70	222.03
411.08	222.61
411.45	223.14
411.82	223.69
412.20	224.37
412.57	225.23
412.95	225.78
413.32	226.62
413.69	227.42
414.07	228.33
414.44	229.33
414.82	230.34
415.19	231.52
415.56	232.73
415.94	233.90
416.31	235.35
416.68	236.76
417.06	238.38
417.43	239.98
417.81	241.71
418.18	243.52
418.55	245.46
418.93	247.46
419.30	249.59
419.67	251.86
420.04	254.15
420.42	256.53
420.79	259.38
421.16	262.16
421.54	265.10
421.91	268.13
422.28	271.24
422.66	274.55
423.03	277.83
423.40	281.19
423.77	284.82
424.15	288.46
424.52	292.30
424.89	296.49
425.26	300.56
425.64	304.46
426.01	308.73
426.38	313.25
426.75	317.77
427.13	322.54
427.50	327.50
427.87	332.73
428.24	337.94
428.61	342.91
428.99	348.42
429.36	354.45
429.73	360.29
430.10	366.15
430.47	372.27
430.85	378.58
431.22	385.33
431.59	392.43
431.96	399.26
432.33	406.78
432.70	414.04
433.08	422.59
433.45	430.64
433.82	438.66
434.19	447.49
434.56	456.30
434.93	464.58
435.30	472.84
435.68	481.96
436.05	490.91
436.42	499.86
436.79	508.02
437.16	516.82
437.53	526.13
437.90	535.36
438.27	544.31
438.64	553.55
439.01	562.01
439.38	569.56
439.75	576.94
440.13	585.36
440.50	593.32
440.87	599.78
441.24	606.36
441.61	613.73
441.98	619.16
442.35	625.44
442.72	631.85
443.09	637.97
443.46	641.77
443.83	644.36
444.20	646.58
444.57	649.79
444.94	651.23
445.31	652.73
445.68	654.09
446.05	654.71
446.42	653.87
446.79	652.97
447.16	651.96
447.53	651.19
447.90	647.85
448.27	644.56
448.64	639.87
449.01	636.66
449.37	630.75
449.74	625.06
450.11	618.20
450.48	610.78
450.85	603.33
451.22	596.80
451.59	590.64
451.96	584.77
452.33	576.86
452.70	569.75
453.07	561.17
453.43	552.55
453.80	544.27
454.17	536.33
454.54	528.76
454.91	520.53
455.28	512.52
455.65	505.15
456.02	497.65
456.38	491.28
456.75	483.33
457.12	476.71
457.49	470.18
457.86	463.93
458.23	458.48
458.59	452.50
458.96	446.48
459.33	441.16
459.70	435.82
460.07	431.56
460.43	426.65
460.80	422.12
461.17	418.11
461.54	413.87
461.91	409.82
462.27	405.71
462.64	402.32
463.01	398.50
463.38	394.79
463.74	391.04
464.11	387.80
464.48	384.98
464.85	381.90
465.21	379.46
465.58	376.83
465.95	373.71
466.32	371.11
466.68	368.53
467.05	365.92
467.42	363.36
467.78	360.63
468.15	358.06
468.52	356.13
468.88	353.66
469.25	351.40
469.62	349.60
469.98	347.64
470.35	345.79
470.72	344.13
471.08	342.30
471.45	340.80
471.82	339.26
472.18	337.58
472.55	336.31
472.92	334.97
473.28	333.77
473.65	332.60
474.02	331.45
474.38	330.51
474.75	329.70
475.11	328.85
475.48	328.26
475.85	327.78
476.21	327.25
476.58	326.87
476.94	326.58
477.31	326.26
477.67	325.98
478.04	325.80
478.41	325.74
478.77	325.87
479.14	325.82
479.50	325.98
479.87	326.30
480.23	326.69
480.60	326.92
480.96	327.16
481.33	327.79
481.69	328.35
482.06	328.88
482.42	329.40
482.79	329.99
483.15	330.86
483.52	331.80
483.88	332.73
484.25	333.69
484.61	334.78
484.98	335.82
485.34	337.15
485.71	338.50
486.07	339.93
486.44	341.28
486.80	342.93
487.17	344.59
487.53	346.41
487.90	348.28
488.26	350.30
488.62	352.52
488.99	354.55
489.35	356.72
489.72	359.12
490.08	361.68
490.44	364.27
490.81	366.97
491.17	369.68
491.54	372.62
491.90	375.67
492.26	378.89
492.63	382.31
492.99	385.78
493.36	389.48
493.72	393.34
494.08	397.34
494.45	401.49
494.81	405.84
495.17	410.29
495.54	414.96
495.90	419.78
496.26	424.68
496.63	429.92
496.99	435.30
497.35	440.86
497.72	446.69
498.08	452.69
498.44	458.80
498.80	465.26
499.17	471.78
499.53	478.50
499.89	485.44
500.26	492.44
500.62	499.54
500.98	506.95
501.34	514.47
501.71	522.21
502.07	530.04
502.43	538.09
502.79	546.22
503.16	554.64
503.52	563.24
503.88	571.90
504.24	580.76
504.60	589.97
504.97	599.21
505.33	608.49
505.69	618.30
506.05	628.13
506.41	638.00
506.78	648.10
507.14	658.37
507.50	668.86
507.86	679.51
508.22	690.38
508.59	701.11
508.95	712.25
509.31	723.65
509.67	735.17
510.03	746.65
510.39	758.46
510.75	770.39
511.12	782.38
511.48	794.60
511.84	807.06
512.20	819.35
512.56	832.06
512.92	844.94
513.28	857.66
513.64	870.49
514.00	883.39
514.37	896.44
514.73	909.62
515.09	922.70
515.45	935.72
515.81	948.81
516.17	962.21
516.53	975.46
516.89	988.61
517.25	1001.91
517.61	1015.54
517.97	1029.06
518.33	1042.22
518.69	1055.87
519.05	1069.71
519.41	1083.44
519.77	1097.44
520.13	1110.88
520.49	1124.17
520.85	1137.63
521.21	1151.06
521.57	1164.85
521.93	1177.94
522.29	1191.78
522.65	1205.44
523.01	1219.24
523.37	1232.55
523.73	1246.09
524.09	1259.42
524.45	1273.09
524.81	1286.73
525.17	1300.13
525.53	1313.46
525.89	1326.94
526.25	1340.19
526.61	1353.18
526.97	1366.39
527.33	1379.42
527.68	1393.04
528.04	1406.58
528.40	1419.87
528.76	1433.33
529.12	1446.32
529.48	1459.75
529.84	1472.04
530.20	1484.83
530.56	1497.48
530.91	1510.81
531.27	1523.70
531.63	1536.55
531.99	1549.36
532.35	1561.65
532.71	1574.23
533.07	1587.06
533.42	1599.43
533.78	1611.70
534.14	1623.93
534.50	1635.21
534.86	1646.93
535.21	1657.89
535.57	1669.45
535.93	1680.80
536.29	1692.03
536.65	1703.65
537.00	1714.86
537.36	1726.59
537.72	1737.85
538.08	1749.39
538.44	1760.47
538.79	1771.59
539.15	1782.64
539.51	1793.40
539.87	1804.76
540.22	1815.61
540.58	1826.81
540.94	1837.72
541.29	1848.02
541.65	1857.92
542.01	1868.54
542.37	1878.65
542.72	1888.95
543.08	1898.96
543.44	1909.64
543.79	1919.08
544.15	1928.53
544.51	1938.56
544.87	1948.36
545.22	1957.57
545.58	1966.48
545.94	1975.52
546.29	1984.08
546.65	1992.46
547.01	2000.77
547.36	2008.58
547.72	2016.46
548.07	2024.20
548.43	2032.04
548.79	2040.01
549.14	2048.20
549.50	2056.68
549.86	2064.71
550.21	2072.14
550.57	2079.87
550.92	2086.78
551.28	2094.34
551.64	2101.66
551.99	2109.29
552.35	2116.61
552.70	2123.61
553.06	2130.46
553.41	2136.72
553.77	2143.45
554.13	2149.88
554.48	2156.93
554.84	2164.07
555.19	2170.72
555.55	2177.20
555.90	2183.64
556.26	2190.53
556.61	2196.56
556.97	2201.41
557.32	2207.22
557.68	2213.67
558.03	2219.46
558.39	2224.67
558.74	2230.71
559.10	2236.21
559.45	2241.64
559.81	2247.15
560.16	2252.67
560.52	2258.51
560.87	2264.95
561.23	2270.74
561.58	2277.36
561.94	2282.51
562.29	2287.19
562.64	2293.17
563.00	2298.80
563.35	2304.41
563.71	2310.16
564.06	2315.93
564.42	2322.09
564.77	2327.22
565.12	2332.48
565.48	2337.57
565.83	2343.10
566.19	2348.51
566.54	2354.04
566.89	2358.74
567.25	2363.35
567.60	2369.09
567.96	2374.18
568.31	2378.66
568.66	2383.18
569.02	2387.17
569.37	2391.08
569.72	2395.53
570.08	2398.89
570.43	2401.86
570.78	2404.80
571.14	2407.24
571.49	2410.22
571.84	2413.57
572.20	2416.40
572.55	2419.29
572.90	2421.56
573.26	2424.41
573.61	2426.81
573.96	2428.86
574.31	2430.71
574.67	2432.57
575.02	2433.27
575.37	2434.66
575.72	2435.42
576.08	2436.73
576.43	2436.74
576.78	2437.07
577.13	2438.57
577.49	2439.71
577.84	2440.66
578.19	2441.98
578.54	2442.44
578.90	2443.05
579.25	2442.97
579.60	2442.78
579.95	2441.97
580.30	2442.00
580.66	2441.14
581.01	2439.34
581.36	2436.88
581.71	2435.53
582.06	2434.15
582.42	2433.20
582.77	2430.89
583.12	2429.16
583.47	2427.53
583.82	2426.90
584.17	2425.55
584.53	2423.16
584.88	2420.94
585.23	2418.98
585.58	2416.58
585.93	2414.55
586.28	2412.29
586.63	2409.69
586.98	2407.34
587.34	2405.35
587.69	2402.80
588.04	2400.73
588.39	2399.19
588.74	2396.65
589.09	2393.75
589.44	2390.52
589.79	2387.97
590.14	2385.93
590.49	2382.99
590.84	2379.07
591.19	2375.77
591.54	2372.61
591.89	2368.55
592.25	2365.40
592.60	2360.99
592.95	2356.66
593.30	2352.28
593.65	2347.91
594.00	2343.34
594.35	2340.26
594.70	2335.42
595.05	2330.82
595.40	2325.15
595.75	2319.29
596.10	2315.62
596.45	2310.78
596.80	2306.21
597.15	2300.82
597.50	2294.82
597.85	2289.86
598.19	2284.66
598.54	2278.89
598.89	2273.60
599.24	2269.04
599.59	2262.79
599.94	2257.12
600.29	2250.95
600.64	2245.06
600.99	2238.06
601.34	2232.61
601.69	2225.70
602.04	2219.37
602.39	2212.52
602.74	2206.51
603.08	2201.05
603.43	2194.41
603.78	2187.56
604.13	2180.50
604.48	2173.27
604.83	2167.15
605.18	2160.87
605.53	2153.93
605.87	2146.78
606.22	2139.74
606.57	2131.79
606.92	2123.75
607.27	2116.71
607.62	2110.34
607.96	2103.34
608.31	2096.89
608.66	2088.92
609.01	2081.30
609.36	2074.09
609.70	2066.51
610.05	2058.56
610.40	2050.05
610.75	2041.71
611.10	2033.77
611.44	2024.73
611.79	2016.03
612.14	2005.99
612.49	1995.30
612.83	1985.86
613.18	1976.68
613.53	1967.37
613.88	1957.74
614.22	1949.15
614.57	1939.21
614.92	1928.55
615.27	1918.19
615.61	1907.97
615.96	1898.36
616.31	1888.59
616.65	1879.10
617.00	1869.26
617.35	1859.63
617.70	1850.07
618.04	1840.08
618.39	1829.98
618.74	1820.40
619.08	1810.52
619.43	1801.70
619.78	1793.37
620.12	1784.83
620.47	1775.07
620.82	1764.73
621.16	1754.88
621.51	1744.87
621.85	1735.07
622.20	1724.84
622.55	1714.30
622.89	1704.52
623.24	1694.79
623.59	1684.98
623.93	1674.83
624.28	1664.97
624.62	1654.82
624.97	1644.47
625.32	1634.65
625.66	1625.79
626.01	1616.98
626.35	1607.77
626.70	1597.82
627.04	1587.75
627.39	1577.56
627.73	1568.42
628.08	1559.54
628.43	1550.03
628.77	1540.90
629.12	1532.00
629.46	1523.98
629.81	1515.68
630.15	1506.08
630.50	1496.23
630.84	1485.77
631.19	1475.85
631.53	1466.73
631.88	1456.60
632.22	1446.55
632.57	1437.25
632.91	1427.17
633.26	1417.29
633.60	1407.72
633.95	1398.37
634.29	1388.92
634.64	1379.74
634.98	1369.66
635.32	1360.37
635.67	1351.89
636.01	1342.60
636.36	1332.83
636.70	1323.35
637.05	1314.04
637.39	1305.22
637.73	1296.62
638.08	1289.12
638.42	1280.94
638.77	1272.03
639.11	1263.79
639.45	1255.96
639.80	1247.35
640.14	1238.56
640.49	1229.67
640.83	1220.86
641.17	1212.61
641.52	1204.48
641.86	1195.75
642.20	1187.96
642.55	1179.40
642.89	1170.52
643.23	1161.78
643.58	1153.64
643.92	1144.61
644.26	1135.77
644.61	1127.23
644.95	1118.47
645.29	1109.16
645.64	1100.00
645.98	1091.49
646.32	1083.53
646.66	1074.94
647.01	1066.52
647.35	1058.34
647.69	1050.01
648.04	1041.69
648.38	1032.84
648.72	1024.06
649.06	1015.58
649.41	1007.29
649.75	999.19
650.09	991.21
650.43	983.25
650.78	974.92
651.12	967.19
651.46	959.80
651.80	952.56
652.14	945.21
652.49	937.64
652.83	930.30
653.17	922.52
653.51	914.86
653.85	907.63
654.20	900.37
654.54	892.92
654.88	885.64
655.22	878.39
655.56	871.31
655.90	864.44
656.25	857.81
656.59	850.93
656.93	843.84
657.27	836.67
657.61	829.51
657.95	823.45
658.29	817.46
658.64	811.24
658.98	804.74
659.32	798.15
659.66	792.00
660.00	785.62
660.34	779.56
660.68	773.41
661.02	767.03
661.36	761.01
661.70	755.10
662.05	749.50
662.39	743.93
662.73	738.56
663.07	733.12
663.41	727.42
663.75	721.64
664.09	715.96
664.43	710.57
664.77	705.33
665.11	699.39
665.45	693.44
665.79	687.66
666.13	681.90
666.47	676.34
666.81	670.71
667.15	665.26
667.49	660.06
667.83	654.79
668.17	649.57
668.51	644.43
668.85	639.56
669.19	634.55
669.53	629.58
669.87	624.42
670.21	619.58
670.55	614.81
670.89	610.32
671.23	606.01
671.57	601.54
671.91	597.08
672.25	592.90
672.58	588.74
672.92	584.54
673.26	580.59
673.60	576.68
673.94	572.92
674.28	569.33
674.62	565.55
674.96	561.77
675.30	558.17
675.64	554.49
675.97	550.82
676.31	547.13
676.65	543.45
676.99	540.05
677.33	536.22
677.67	532.52
678.01	528.62
678.34	524.95
678.68	521.40
679.02	517.88
679.36	514.15
679.70	510.42
680.04	506.94
680.37	503.49
680.71	500.13
681.05	496.88
681.39	493.51
681.73	490.24
682.06	487.20
682.40	484.12
682.74	480.90
683.08	477.61
683.42	474.42
683.75	471.39
684.09	468.27
684.43	465.44
684.77	462.53
685.10	459.63
685.44	456.68
685.78	453.75
686.12	450.93
686.45	448.13
686.79	445.44
687.13	442.82
687.46	440.09
687.80	437.37
688.14	434.50
688.48	431.86
688.81	429.20
689.15	426.55
689.49	423.89
689.82	421.32
690.16	418.73
690.50	416.29
690.83	413.73
691.17	411.16
691.51	408.62
691.84	406.27
692.18	404.02
692.52	401.77
692.85	399.65
693.19	397.48
693.52	395.34
693.86	393.13
694.20	390.94
694.53	388.77
694.87	386.57
695.21	384.43
695.54	382.24
695.88	380.02
696.21	377.79
696.55	375.64
696.88	373.55
697.22	371.56
697.56	369.58
697.89	367.67
698.23	365.93
698.56	364.12
698.90	362.36
699.23	360.49
699.57	358.54
699.90	356.56
700.24	354.65
700.58	352.87
700.91	351.21
701.25	349.63
701.58	347.99
701.92	346.30
702.25	344.67
702.59	343.00
702.92	341.46
703.26	339.87
703.59	338.34
703.93	337.03
704.26	335.56
704.60	334.06
704.93	332.57
705.26	330.97
705.60	329.47
705.93	327.93
706.27	326.57
706.60	325.33
706.94	324.13
707.27	322.77
707.61	321.37
707.94	319.97
708.27	318.40
708.61	316.93
708.94	315.58
709.28	314.25
709.61	313.01
709.94	311.78
710.28	310.55
710.61	309.39
710.95	307.90
711.28	306.78
711.61	305.63
711.95	304.45
712.28	303.26
712.61	302.07
712.95	301.00
713.28	299.92
713.61	298.76
713.95	297.57
714.28	296.53
714.61	295.47
714.95	294.47
715.28	293.41
715.61	292.40
715.95	291.44
716.28	290.46
716.61	289.48
716.95	288.45
717.28	287.51
717.61	286.49
717.94	285.64
718.28	284.61
718.61	283.66
718.94	282.73
719.27	281.89
719.61	281.03
719.94	280.13
720.27	279.16
720.60	278.26
720.94	277.43
721.27	276.67
721.60	275.98
721.93	275.23
722.27	274.62
722.60	273.94
722.93	273.22
723.26	272.56
723.59	271.87
723.93	271.21
724.26	270.54
724.59	269.90
724.92	269.29
725.25	268.73
725.59	268.14
725.92	267.62
726.25	267.05
726.58	266.47
726.91	265.86
727.24	265.31
727.57	264.74
727.91	264.13
728.24	263.59
728.57	262.96
728.90	262.40
729.23	261.73
729.56	261.26
729.89	260.69
730.22	260.11
730.55	259.54
730.89	259.00
731.22	258.47
731.55	257.97
731.88	257.42
732.21	256.89
732.54	256.32
732.87	255.82
733.20	255.29
733.53	254.80
733.86	254.34
734.19	253.82
734.52	253.41
734.85	253.12
735.18	252.59
735.51	252.22
735.84	251.74
736.17	251.34
736.50	250.81
736.83	250.67
737.16	250.27
737.49	249.90
737.82	249.48
738.15	249.08
738.48	248.65
738.81	248.26
739.14	247.82
739.47	247.44
739.80	247.03
740.13	246.67
740.46	246.28
740.79	245.86
741.12	245.51
741.45	245.10
741.78	244.65
742.11	244.40
742.44	244.01
742.77	243.73
743.10	243.40
743.43	243.04
743.75	242.43
744.08	242.36
744.41	242.01
744.74	241.64
745.07	241.26
745.40	241.00
745.73	240.74
746.06	240.42
746.39	240.09
746.71	239.69
747.04	239.34
747.37	239.04
747.70	238.78
748.03	238.48
748.36	238.23
748.68	237.91
749.01	237.50
749.34	237.17
749.67	236.87
750.00	236.62
750.33	236.53
750.65	236.28
750.98	235.76
751.31	235.51
751.64	235.27
751.97	235.17
752.29	234.86
752.62	234.52
752.95	234.25
753.28	234.02
753.60	233.81
753.93	233.63
754.26	233.40
754.59	233.14
754.91	232.86
755.24	232.60
755.57	232.39
755.90	232.22
756.22	232.01
756.55	231.73
756.88	231.49
757.20	231.12
757.53	230.84
757.86	230.63
758.19	230.43
758.51	230.20
758.84	229.88
759.17	229.70
759.49	229.52
759.82	229.46
760.15	229.26
760.47	229.09
760.80	228.81
761.13	228.67
761.45	228.41
761.78	228.24
762.11	228.06
762.43	227.85
762.76	227.64
763.08	227.49
763.41	227.35
763.74	227.18
764.06	227.02
764.39	226.86
764.71	226.70
765.04	226.51
765.37	226.39
765.69	226.29
766.02	226.10
766.34	225.94
766.67	225.72
767.00	225.62
767.32	225.57
767.65	225.59
767.97	225.44
768.30	225.33
768.62	225.22
768.95	225.08
769.27	224.96
769.60	224.86
769.92	224.71
770.25	224.55
770.57	224.40
770.90	224.28
771.22	224.15
771.55	224.04
771.87	223.93
772.20	223.83
772.52	223.86
772.85	224.03
773.17	223.92
773.50	223.80
773.82	223.69
774.15	223.49
774.47	223.26
774.80	223.10
775.12	223.03
775.45	222.94
775.77	222.87
776.09	222.79
776.42	222.72
776.74	222.67
777.07	222.56
777.39	222.46
777.72	222.35
778.04	222.30
778.36	222.20
778.69	222.12
779.01	222.04
779.33	221.75
779.66	221.41
779.98	221.32
780.31	221.23
780.63	221.21
780.95	221.16
781.28	221.09
781.60	221.03
781.92	220.98
782.25	220.92
782.57	220.85
782.89	220.74
783.22	220.64
783.54	220.55
783.86	220.50
784.19	220.43
784.51	220.42
784.83	220.35
785.16	220.26
785.48	220.23
785.80	220.14
786.12	220.11
786.45	220.04
786.77	219.99
787.09	219.92
787.42	219.80
787.74	219.75
788.06	219.67
788.38	219.60
788.71	219.51
789.03	219.43
789.35	219.38
789.67	219.36
789.99	219.33
790.32	219.25
790.64	219.23
790.96	219.34
791.28	219.23
791.61	219.16
791.93	219.13
792.25	219.06
792.57	219.13
792.89	219.02
793.21	219.02
793.54	218.95
793.86	218.94
794.18	218.91
794.50	218.86
794.82	218.82
795.14	218.83
795.47	218.83
795.79	218.79
796.11	218.70
796.43	218.58
796.75	218.53
797.07	218.51
797.39	218.47
797.71	218.28
798.04	218.28
798.36	218.23
798.68	218.19
799.00	218.18
799.32	218.04
799.64	218.09
799.96	218.03
800.28	218.03
800.60	217.96
800.92	217.90
801.24	217.86
801.56	217.83
801.89	217.75
802.21	217.72
802.53	217.64
802.85	217.67
803.17	217.76
803.49	217.68
803.81	217.63
804.13	217.58
804.45	217.53
804.77	217.52
805.09	217.48
805.41	217.44
805.73	217.37
806.05	217.30
806.37	217.25
806.69	217.20
807.01	217.16
807.33	217.14
807.65	217.04
807.97	217.09
808.28	217.08
808.60	217.07
808.92	217.00
809.24	217.12
809.56	217.07
809.88	216.96
810.20	216.97
810.52	216.98
810.84	216.91
811.16	216.85
811.48	216.80
811.80	216.86
812.12	216.83
812.43	216.84
812.75	216.84
813.07	216.80
813.39	216.83
813.71	216.79
814.03	216.75
814.35	216.73
814.67	216.65
814.98	216.60
815.30	216.54
815.62	216.51
815.94	216.34
816.26	216.29
816.58	216.28
816.89	216.27
817.21	216.20
817.53	216.22
817.85	216.21
818.17	216.18
818.48	216.09
818.80	216.12
819.12	216.05
819.44	215.97
819.76	215.91
820.07	215.86
820.39	215.83
820.71	215.81
821.03	215.81
821.34	215.78
821.66	215.79
821.98	215.83
822.30	215.82
822.61	215.95
822.93	215.96
823.25	215.93
823.57	215.89
823.88	215.93
824.20	215.92
824.52	215.96
824.83	215.92
825.15	215.89
825.47	215.84
825.79	215.85
826.10	215.84
826.42	215.82
826.74	215.85
827.05	215.81
827.37	215.81
827.69	215.80
828.00	215.76
828.32	215.75
828.64	215.72
828.95	215.82
829.27	215.74
829.58	215.72
829.90	215.73
830.22	215.74
830.53	215.65
830.85	215.61
831.17	215.55
831.48	215.56
831.80	215.53
832.11	215.53
832.43	215.49
832.75	215.48
833.06	215.60
833.38	215.51
833.69	215.49
834.01	215.48
834.32	215.50
834.64	215.49
834.96	215.48
835.27	215.43
835.59	215.34
835.90	215.27
836.22	215.26
836.53	215.21
836.85	215.19
837.16	215.43
837.48	215.44
837.79	215.54
838.11	215.54
838.42	215.55
838.74	215.58
839.05	215.58
839.37	215.56
839.68	215.40
840.00	215.42
840.31	215.48
840.63	215.48
840.94	215.40
841.26	215.39
841.57	215.39
841.88	215.42
842.20	215.37
842.51	215.38
842.83	215.36
843.14	215.51
843.46	215.49
843.77	215.33
844.08	215.29
844.40	215.19
844.71	215.15
845.03	215.12
845.34	215.07
845.65	215.04
845.97	215.07
846.28	215.11
846.60	215.12
846.91	215.07
847.22	215.05
847.54	215.11
847.85	215.13
848.16	215.08
848.48	215.06
848.79	215.14
849.10	215.12
849.42	215.13
849.73	214.96
850.04	214.98
850.36	214.93
850.67	214.96
850.98	214.97
851.30	214.98
851.61	214.98
851.92	215.00
852.23	215.07
852.55	215.09
852.86	215.10
853.17	215.07
853.49	215.11
853.80	215.13
854.11	215.13
854.42	215.13
854.74	215.11
855.05	215.12
855.36	215.05
855.67	215.07
855.99	215.08
856.30	215.30
856.61	215.28
856.92	215.23
857.23	215.21
857.55	215.16
857.86	215.14
858.17	215.21
858.48	215.14
858.79	215.08
859.11	215.04
859.42	215.01
859.73	215.00
860.04	214.95
860.35	214.89
860.66	214.84
860.98	214.82
861.29	214.83
861.60	214.79
861.91	214.79
862.22	214.76
862.53	214.74
862.84	214.50
863.16	214.55
863.47	214.55
863.78	214.52
864.09	214.58
864.40	214.60
864.71	214.55
865.02	214.57
865.33	214.54
865.64	214.53
865.95	214.54
866.27	214.66
866.58	214.71
866.89	214.74
867.20	214.70
867.51	214.66
867.82	214.65
868.13	214.75
868.44	214.69
868.75	214.72
869.06	214.71
869.37	214.69
869.68	214.61
869.99	214.64
870.30	214.70
870.61	214.69
870.92	214.67
871.23	214.66
871.54	214.67
871.85	214.73
872.16	214.75
872.47	214.72
872.78	214.61
873.09	214.57
873.40	214.53
873.71	214.59
874.02	214.60
874.33	214.60
874.64	214.52
874.95	214.54
875.26	214.52
875.56	214.51
875.87	214.52
876.18	214.51
876.49	214.71
876.80	214.67
877.11	214.66
877.42	214.65
877.73	214.67
878.04	214.68
878.35	214.67
878.66	214.68
878.96	214.68
879.27	214.67
879.58	214.65
879.89	214.63
880.20	214.70
880.51	214.70
880.82	214.69
881.12	214.70
881.43	214.69
881.74	214.64
882.05	214.67
882.36	214.72
882.67	214.78
882.97	214.52
883.28	214.49
883.59	214.47
883.90	214.49
884.21	214.51
884.51	214.50
884.82	214.44
885.13	214.42
885.44	214.41
885.74	214.40
886.05	214.43
886.36	214.45
886.67	214.35
886.98	214.49
887.28	214.49
887.59	214.48
887.90	214.48
888.20	214.50
888.51	214.48
888.82	214.41
889.13	214.41
889.43	214.58
889.74	214.56
890.05	214.55
890.35	214.50
890.66	214.45
890.97	214.44
891.28	214.43
891.58	214.45
891.89	214.45
892.20	214.45
892.50	214.42
892.81	214.45
893.12	214.45
893.42	214.32
893.73	214.34
894.04	214.34
894.34	214.37
894.65	214.35
894.95	214.32
895.26	214.32
895.57	214.42
895.87	214.24
896.18	214.28
896.48	214.29
896.79	214.31
897.10	214.33
897.40	214.32
897.71	214.33
898.01	214.30
898.32	214.32
898.63	214.29
898.93	214.29
899.24	214.26
899.54	214.22
899.85	214.22
900.15	214.19
900.46	214.23
900.76	214.23
901.07	214.23
901.38	214.26
901.68	214.30
901.99	214.16
902.29	214.17
902.60	214.15
902.90	214.11
903.21	214.14
903.51	214.12
903.82	214.18
904.12	214.21
904.43	214.18
904.73	214.18
905.03	214.22
905.34	214.44
905.64	214.41
905.95	214.43
906.25	214.42
906.56	214.42
906.86	214.40
907.17	214.40
907.47	214.42
907.77	214.38
908.08	214.31
908.38	214.34
908.69	214.35
908.99	214.40
909.30	214.45
909.60	214.42
909.90	214.44
910.21	214.35
910.51	214.32
910.81	214.34
911.12	214.36
911.42	214.35
911.73	214.14
912.03	214.16
912.33	214.22
912.64	214.20
912.94	214.20
913.24	214.17
913.55	214.14
913.85	214.11
914.15	214.15
914.46	214.20
914.76	214.15
915.06	214.15
915.37	214.11
915.67	214.08
915.97	214.11
916.27	214.07
916.58	214.12
916.88	214.10
917.18	214.10
917.49	214.25
917.79	214.23
918.09	214.29
918.39	214.35
918.70	214.32
919.00	214.32
919.30	214.40
919.60	214.38
919.91	214.35
920.21	214.41
920.51	214.38
920.81	214.38
921.12	214.45
921.42	214.44
921.72	214.44
922.02	214.46
922.32	214.45
922.63	214.45
922.93	214.54
923.23	214.57
923.53	214.54
923.83	214.41
924.13	214.45
924.44	214.39
924.74	214.39
925.04	214.43
925.34	214.45
925.64	214.37
925.94	214.38
926.24	214.52
926.55	214.51
926.85	214.52
927.15	214.50
927.45	214.49
927.75	214.46
928.05	214.50
928.35	214.50
928.65	214.54
928.95	214.55
929.26	214.45
929.56	214.45
929.86	214.49
930.16	214.48
930.46	214.45
930.76	214.47
931.06	214.38
931.36	214.33
931.66	214.38
931.96	214.38
932.26	214.37
932.56	214.27
932.86	214.25
933.16	214.27
933.46	214.26
933.76	214.20
934.06	214.26
934.36	214.31
934.66	214.27
934.96	214.24
935.26	214.25
935.56	214.30
935.86	214.25
936.16	214.20
936.46	214.15
936.76	214.14
937.06	214.11
937.36	214.15
937.66	214.17
937.96	214.13
938.26	214.11
938.56	214.12
938.86	214.13
939.16	214.18
939.46	214.19
939.76	214.20
940.06	214.21
940.35	214.18
940.65	214.06
940.95	214.10
941.25	214.07
941.55	214.07
941.85	214.04
942.15	214.11
942.45	214.17
942.75	214.18
943.04	214.17
943.34	214.20
943.64	214.16
943.94	214.12
944.24	214.11
944.54	214.11
944.84	214.10
945.13	214.08
945.43	214.04
945.73	214.02
946.03	213.97
946.33	213.97
946.62	213.93
946.92	213.95
947.22	213.96
947.52	213.99
947.82	213.98
948.11	213.96
948.41	213.91
948.71	213.85
949.01	213.86
949.31	213.86
949.60	213.85
949.90	213.88
950.20	213.89
950.50	213.91
950.79	213.91
951.09	213.91
951.39	213.88
951.69	213.85
951.98	213.90
952.28	213.94
952.58	213.94
952.87	213.94
953.17	213.94
953.47	213.91
953.76	213.90
954.06	213.86
954.36	213.83
954.66	213.83
954.95	213.88
955.25	213.90
955.55	213.92
955.84	213.89
956.14	213.90
956.44	213.92
956.73	213.88
957.03	213.91
957.32	213.92
957.62	213.95
957.92	214.01
958.21	213.96
958.51	214.17
958.81	214.20
959.10	214.23
959.40	214.28
959.69	214.28
959.99	214.30
960.29	214.32
960.58	214.35
960.88	214.43
961.17	214.40
961.47	214.41
961.76	214.39
962.06	214.43
962.36	214.40
962.65	214.40
962.95	214.41
963.24	214.38
963.54	214.38
963.83	214.40
964.13	214.37
964.42	214.37
964.72	214.23
965.01	214.23
965.31	214.22
965.60	214.17
965.90	214.30
966.19	214.25
966.49	214.26
966.78	214.24
967.08	214.22
967.37	214.22
967.67	214.19
967.96	214.23
968.26	214.21
968.55	214.24
968.85	214.21
969.14	214.22
969.43	214.22
969.73	214.21
970.02	214.20
970.32	214.17
970.61	214.13
970.91	214.05
971.20	214.03
971.49	214.02
971.79	214.04
972.08	213.91
972.38	213.97
972.67	213.97
972.96	214.01
973.26	213.98
973.55	214.05
973.85	214.05
974.14	214.03
974.43	214.03
974.73	213.99
975.02	214.00
975.31	214.01
975.61	213.97
975.90	213.96
976.19	213.93
976.49	213.96
976.78	213.99
977.07	213.98
977.37	213.99
977.66	214.02
977.95	214.03
978.24	214.01
978.54	214.03
978.83	214.01
979.12	213.98
979.42	214.00
979.71	213.98
980.00	213.97
980.29	213.96
980.59	213.92
980.88	213.98
981.17	213.97
981.46	213.98
981.76	214.02
982.05	214.07
982.34	214.07
982.63	214.07
982.93	214.05
983.22	214.11
983.51	214.11
983.80	214.13
984.09	214.17
984.39	214.16
984.68	214.14
984.97	214.16
985.26	214.12
985.55	214.11
985.85	214.06
986.14	214.13
986.43	214.20
986.72	214.21
987.01	214.15
987.30	214.11
987.59	214.08
987.89	214.07
988.18	214.02
988.47	214.00
988.76	213.98
989.05	213.99
989.34	213.96
989.63	214.00
989.92	213.96
990.22	213.91
990.51	213.91
990.80	213.87
991.09	213.88
991.38	213.91
991.67	213.88
991.96	213.85
992.25	213.83
992.54	213.76
992.83	213.76
993.12	213.78
993.41	213.86
993.70	213.97
993.99	213.98
994.28	214.02
994.58	214.07
994.87	214.05
995.16	214.04
995.45	214.01
995.74	213.96
996.03	214.02
996.32	214.06
996.61	214.09
996.90	214.12
997.19	214.08
997.48	214.09
997.77	214.08
998.06	214.09
998.34	214.06
998.63	214.08
998.92	214.07
999.21	214.05
999.50	214.03
999.79	213.95
1000.08	213.97
1000.37	213.95
1000.66	213.92
1000.95	213.96
1001.24	213.98
1001.53	214.02
1001.82	214.01
1002.11	213.95
1002.40	213.95
1002.68	213.97
1002.97	214.09
1003.26	214.07
1003.55	214.08
1003.84	214.08
1004.13	214.16
1004.42	214.16
1004.71	214.14
1004.99	214.12
1005.28	214.19
1005.57	214.16
1005.86	214.14
1006.15	214.13
1006.44	214.10
1006.72	214.11
1007.01	214.09
1007.30	214.08
1007.59	214.04
1007.88	214.00
1008.17	214.02
1008.45	214.01
1008.74	213.94
1009.03	213.84
1009.32	213.87
1009.60	213.84
1009.89	213.83
1010.18	213.73
1010.47	213.72
1010.76	213.72
1011.04	213.73
1011.33	213.74
1011.62	213.74
1011.91	213.76
1012.19	213.72
1012.48	213.75
1012.77	213.76
1013.05	213.86
1013.34	213.86
1013.63	213.88
1013.92	213.94
1014.20	213.91
1014.49	213.92
1014.78	213.98
1015.06	213.93
1015.35	213.93
1015.64	213.93
1015.92	213.97
1016.21	213.99
1016.50	214.01
1016.78	214.01
1017.07	214.02
1017.36	213.99
1017.64	213.97
1017.93	214.00
1018.22	214.01
1018.50	214.01
1018.79	214.01
1019.08	213.91
1019.36	213.91
1019.65	213.87
1019.93	213.91
1020.22	213.92
1020.51	214.03
1020.79	213.97
1021.08	213.52
1021.36	214.08
1021.65	214.01
1021.94	213.69
1022.22	213.82
1022.51	213.26
1022.79	214.84
1023.08	213.78
1023.36	216.77
1023.65	213.47
>>>>>End Processed Spectral Data<<<<<
