SpectraSuite Data File
++++++++++++++++++++++++++++++++++++
Date: Tue Jan 29 16:01:47 EST 2013
User: group
Dark Spectrum Present: No
Reference Spectrum Present: No
Number of Sampled Component Spectra: 1
Spectrometers: USB2E7196
Integration Time (usec): 65000 (USB2E7196)
Spectra Averaged: 100 (USB2E7196)
Boxcar Smoothing: 10 (USB2E7196)
Correct for Electrical Dark: No (USB2E7196)
Strobe/Lamp Enabled: No (USB2E7196)
Correct for Detector Non-linearity: No (USB2E7196)
Correct for Stray Light: No (USB2E7196)
Number of Pixels in Processed Spectrum: 2048
>>>>>Begin Processed Spectral Data<<<<<
339.09	0.00
339.48	203.04
339.86	204.29
340.24	206.13
340.63	206.91
341.01	212.03
341.39	209.82
341.78	211.56
342.16	212.27
342.54	213.16
342.93	202.23
343.31	212.45
343.69	212.98
344.07	213.44
344.46	213.88
344.84	214.33
345.22	214.50
345.60	214.77
345.99	214.95
346.37	215.11
346.75	215.22
347.13	215.29
347.52	215.36
347.90	215.46
348.28	215.44
348.66	215.48
349.05	215.44
349.43	215.47
349.81	215.52
350.19	215.56
350.57	215.62
350.96	215.69
351.34	215.79
351.72	215.89
352.10	216.02
352.48	216.07
352.87	216.09
353.25	216.14
353.63	216.16
354.01	216.22
354.39	216.29
354.77	216.33
355.15	216.44
355.54	216.48
355.92	216.47
356.30	216.55
356.68	216.73
357.06	216.83
357.44	216.83
357.82	216.87
358.20	216.94
358.58	216.97
358.97	217.02
359.35	217.09
359.73	217.17
360.11	217.22
360.49	217.25
360.87	217.32
361.25	217.39
361.63	217.52
362.01	217.56
362.39	217.54
362.77	217.59
363.15	217.62
363.53	217.65
363.91	217.71
364.29	217.73
364.67	217.58
365.05	217.56
365.43	217.60
365.81	217.64
366.19	217.71
366.57	217.84
366.95	217.85
367.33	217.81
367.71	217.80
368.09	217.85
368.47	217.86
368.85	217.82
369.23	217.84
369.61	217.73
369.99	217.83
370.37	217.86
370.75	217.92
371.13	217.86
371.51	217.83
371.89	217.82
372.27	217.82
372.65	217.78
373.03	217.76
373.41	217.73
373.78	217.71
374.16	217.59
374.54	217.48
374.92	217.40
375.30	217.39
375.68	217.30
376.06	217.25
376.44	217.19
376.82	217.17
377.19	217.10
377.57	217.08
377.95	216.95
378.33	216.89
378.71	216.76
379.09	216.77
379.47	216.77
379.84	216.71
380.22	216.63
380.60	216.60
380.98	216.56
381.36	216.54
381.73	216.47
382.11	216.50
382.49	216.46
382.87	216.41
383.25	216.36
383.62	216.60
384.00	216.55
384.38	216.50
384.76	216.52
385.13	216.56
385.51	216.50
385.89	216.45
386.27	216.45
386.64	216.45
387.02	216.37
387.40	216.30
387.78	216.32
388.15	216.34
388.53	216.30
388.91	216.27
389.29	216.22
389.66	216.23
390.04	216.15
390.42	216.18
390.79	216.19
391.17	216.18
391.55	215.93
391.92	215.86
392.30	215.88
392.68	215.80
393.05	215.79
393.43	215.84
393.81	215.85
394.18	215.80
394.56	215.79
394.94	215.85
395.31	215.84
395.69	215.86
396.06	215.88
396.44	215.89
396.82	215.89
397.19	216.02
397.57	216.00
397.95	216.10
398.32	216.07
398.70	216.11
399.07	216.21
399.45	216.24
399.82	216.32
400.20	216.34
400.58	216.41
400.95	216.40
401.33	216.50
401.70	216.72
402.08	216.85
402.45	216.96
402.83	217.08
403.20	217.20
403.58	217.29
403.95	217.46
404.33	217.64
404.71	217.79
405.08	218.08
405.46	218.24
405.83	218.40
406.21	218.57
406.58	218.82
406.96	219.01
407.33	219.28
407.70	219.58
408.08	220.07
408.45	220.43
408.83	220.81
409.20	221.11
409.58	221.35
409.95	221.80
410.33	222.24
410.70	222.64
411.08	223.19
411.45	223.73
411.82	224.28
412.20	224.94
412.57	225.72
412.95	226.22
413.32	227.06
413.69	227.85
414.07	228.75
414.44	229.70
414.82	230.69
415.19	231.84
415.56	232.98
415.94	234.08
416.31	235.41
416.68	236.75
417.06	238.30
417.43	239.80
417.81	241.47
418.18	243.19
418.55	245.11
418.93	247.06
419.30	249.14
419.67	251.26
420.04	253.44
420.42	255.78
420.79	258.53
421.16	261.20
421.54	263.99
421.91	266.87
422.28	269.85
422.66	273.05
423.03	276.20
423.40	279.43
423.77	282.91
424.15	286.45
424.52	290.15
424.89	294.21
425.26	298.12
425.64	301.86
426.01	306.02
426.38	310.28
426.75	314.65
427.13	319.19
427.50	323.97
427.87	329.01
428.24	333.99
428.61	338.74
428.99	344.06
429.36	349.89
429.73	355.56
430.10	361.19
430.47	367.03
430.85	373.08
431.22	379.57
431.59	386.44
431.96	393.04
432.33	400.36
432.70	407.33
433.08	415.54
433.45	423.34
433.82	431.04
434.19	439.67
434.56	448.03
434.93	456.07
435.30	464.07
435.68	472.88
436.05	481.52
436.42	490.12
436.79	498.01
437.16	506.47
437.53	515.42
437.90	524.27
438.27	532.86
438.64	541.70
439.01	549.93
439.38	557.20
439.75	564.25
440.13	572.30
440.50	579.91
440.87	586.13
441.24	592.52
441.61	599.57
441.98	604.74
442.35	610.80
442.72	616.84
443.09	622.64
443.46	626.19
443.83	628.57
444.20	630.69
444.57	633.62
444.94	634.99
445.31	636.31
445.68	637.63
446.05	638.23
446.42	637.48
446.79	636.46
447.16	635.43
447.53	634.69
447.90	631.48
448.27	628.30
448.64	623.85
449.01	620.59
449.37	614.89
449.74	609.35
450.11	602.69
450.48	595.56
450.85	588.36
451.22	582.12
451.59	576.24
451.96	570.60
452.33	563.04
452.70	556.18
453.07	548.05
453.43	539.74
453.80	531.69
454.17	524.06
454.54	516.78
454.91	508.87
455.28	501.18
455.65	494.04
456.02	486.89
456.38	480.80
456.75	473.28
457.12	467.02
457.49	460.78
457.86	454.87
458.23	449.75
458.59	444.11
458.96	438.39
459.33	433.34
459.70	428.16
460.07	424.13
460.43	419.46
460.80	415.08
461.17	411.27
461.54	407.28
461.91	403.38
462.27	399.48
462.64	396.21
463.01	392.59
463.38	389.01
463.74	385.40
464.11	382.26
464.48	379.51
464.85	376.51
465.21	374.20
465.58	371.70
465.95	368.69
466.32	366.16
466.68	363.63
467.05	361.14
467.42	358.77
467.78	356.18
468.15	353.77
468.52	351.96
468.88	349.55
469.25	347.47
469.62	345.76
469.98	343.93
470.35	342.21
470.72	340.61
471.08	338.91
471.45	337.54
471.82	336.07
472.18	334.47
472.55	333.29
472.92	331.99
473.28	330.85
473.65	329.76
474.02	328.71
474.38	327.89
474.75	327.19
475.11	326.41
475.48	325.89
475.85	325.41
476.21	324.97
476.58	324.68
476.94	324.47
477.31	324.21
477.67	323.99
478.04	323.83
478.41	323.80
478.77	324.02
479.14	324.02
479.50	324.18
479.87	324.50
480.23	324.92
480.60	325.20
480.96	325.49
481.33	326.16
481.69	326.75
482.06	327.34
482.42	327.81
482.79	328.45
483.15	329.25
483.52	330.27
483.88	331.18
484.25	332.14
484.61	333.16
484.98	334.20
485.34	335.50
485.71	336.95
486.07	338.37
486.44	339.65
486.80	341.25
487.17	342.90
487.53	344.72
487.90	346.53
488.26	348.60
488.62	350.71
488.99	352.73
489.35	354.86
489.72	357.18
490.08	359.70
490.44	362.23
490.81	364.96
491.17	367.60
491.54	370.55
491.90	373.57
492.26	376.85
492.63	380.28
492.99	383.80
493.36	387.42
493.72	391.33
494.08	395.35
494.45	399.54
494.81	403.87
495.17	408.27
495.54	413.00
495.90	417.72
496.26	422.71
496.63	427.88
496.99	433.29
497.35	438.88
497.72	444.65
498.08	450.59
498.44	456.60
498.80	463.01
499.17	469.43
499.53	476.12
499.89	482.93
500.26	489.87
500.62	496.83
500.98	504.16
501.34	511.55
501.71	519.32
502.07	527.05
502.43	535.03
502.79	543.15
503.16	551.42
503.52	560.06
503.88	568.68
504.24	577.61
504.60	586.61
504.97	595.79
505.33	605.05
505.69	614.88
506.05	624.73
506.41	634.53
506.78	644.57
507.14	654.77
507.50	665.29
507.86	675.97
508.22	686.83
508.59	697.47
508.95	708.53
509.31	719.77
509.67	731.27
510.03	742.66
510.39	754.38
510.75	766.23
511.12	777.96
511.48	789.99
511.84	802.17
512.20	814.49
512.56	827.05
512.92	839.82
513.28	852.28
513.64	864.95
514.00	877.70
514.37	890.62
514.73	903.51
515.09	916.24
515.45	929.00
515.81	941.83
516.17	955.08
516.53	968.15
516.89	981.13
517.25	994.06
517.61	1007.48
517.97	1020.74
518.33	1033.71
518.69	1047.09
519.05	1060.70
519.41	1074.20
519.77	1087.82
520.13	1100.83
520.49	1113.78
520.85	1127.01
521.21	1140.17
521.57	1153.65
521.93	1166.55
522.29	1180.20
522.65	1193.75
523.01	1207.15
523.37	1220.17
523.73	1233.24
524.09	1246.12
524.45	1259.28
524.81	1272.60
525.17	1285.70
525.53	1298.57
525.89	1311.61
526.25	1324.58
526.61	1337.05
526.97	1349.86
527.33	1362.46
527.68	1375.73
528.04	1388.95
528.40	1401.83
528.76	1414.83
529.12	1427.37
529.48	1440.42
529.84	1452.54
530.20	1464.97
530.56	1477.36
530.91	1490.31
531.27	1503.00
531.63	1515.51
531.99	1528.03
532.35	1539.99
532.71	1552.05
533.07	1564.59
533.42	1576.55
533.78	1588.33
534.14	1600.16
534.50	1611.03
534.86	1622.49
535.21	1633.05
535.57	1644.16
535.93	1655.23
536.29	1666.14
536.65	1677.36
537.00	1687.94
537.36	1698.95
537.72	1709.75
538.08	1720.73
538.44	1731.28
538.79	1741.88
539.15	1752.36
539.51	1762.57
539.87	1773.47
540.22	1784.05
540.58	1794.71
540.94	1805.25
541.29	1815.27
541.65	1824.75
542.01	1835.16
542.37	1844.70
542.72	1854.70
543.08	1864.31
543.44	1874.44
543.79	1883.42
544.15	1892.55
544.51	1902.27
544.87	1911.72
545.22	1920.42
545.58	1929.08
545.94	1937.71
546.29	1946.08
546.65	1954.32
547.01	1962.49
547.36	1970.03
547.72	1977.46
548.07	1984.79
548.43	1992.18
548.79	1999.78
549.14	2007.73
549.50	2015.70
549.86	2023.36
550.21	2030.47
550.57	2037.57
550.92	2044.04
551.28	2051.34
551.64	2058.53
551.99	2065.76
552.35	2072.67
552.70	2079.36
553.06	2085.85
553.41	2091.94
553.77	2098.25
554.13	2104.39
554.48	2111.12
554.84	2117.96
555.19	2124.30
555.55	2130.61
555.90	2136.93
556.26	2143.40
556.61	2149.19
556.97	2154.01
557.32	2159.97
557.68	2166.30
558.03	2172.10
558.39	2177.26
558.74	2183.11
559.10	2188.49
559.45	2194.06
559.81	2199.63
560.16	2205.16
560.52	2211.05
560.87	2217.43
561.23	2223.38
561.58	2230.09
561.94	2235.40
562.29	2240.24
562.64	2246.44
563.00	2252.13
563.35	2257.77
563.71	2263.88
564.06	2269.51
564.42	2275.50
564.77	2280.54
565.12	2285.83
565.48	2291.16
565.83	2296.86
566.19	2302.42
566.54	2307.78
566.89	2312.43
567.25	2317.11
567.60	2322.88
567.96	2328.09
568.31	2332.75
568.66	2336.96
569.02	2340.84
569.37	2344.62
569.72	2349.05
570.08	2352.52
570.43	2355.60
570.78	2358.69
571.14	2361.27
571.49	2364.63
571.84	2368.22
572.20	2371.12
572.55	2374.15
572.90	2376.39
573.26	2379.47
573.61	2381.92
573.96	2384.34
574.31	2386.43
574.67	2388.44
575.02	2389.42
575.37	2390.96
575.72	2391.85
576.08	2393.58
576.43	2393.96
576.78	2394.84
577.13	2396.83
577.49	2398.19
577.84	2399.74
578.19	2401.55
578.54	2402.41
578.90	2403.68
579.25	2403.87
579.60	2404.12
579.95	2403.75
580.30	2404.31
580.66	2403.74
581.01	2402.25
581.36	2400.36
581.71	2399.44
582.06	2398.75
582.42	2398.15
582.77	2396.22
583.12	2394.95
583.47	2393.91
583.82	2393.54
584.17	2392.50
584.53	2390.31
584.88	2388.62
585.23	2386.61
585.58	2384.40
585.93	2382.35
586.28	2380.10
586.63	2377.98
586.98	2376.11
587.34	2374.40
587.69	2372.29
588.04	2370.41
588.39	2369.31
588.74	2367.01
589.09	2364.56
589.44	2361.62
589.79	2359.45
590.14	2357.90
590.49	2355.21
590.84	2351.53
591.19	2348.88
591.54	2345.64
591.89	2341.79
592.25	2338.56
592.60	2334.60
592.95	2330.71
593.30	2326.65
593.65	2322.48
594.00	2318.10
594.35	2314.94
594.70	2310.51
595.05	2305.99
595.40	2300.65
595.75	2295.31
596.10	2291.63
596.45	2286.85
596.80	2282.42
597.15	2277.15
597.50	2271.16
597.85	2266.23
598.19	2261.09
598.54	2255.25
598.89	2250.30
599.24	2245.96
599.59	2239.95
599.94	2234.71
600.29	2228.87
600.64	2223.23
600.99	2216.69
601.34	2211.44
601.69	2204.64
602.04	2198.13
602.39	2191.86
602.74	2186.12
603.08	2180.43
603.43	2173.97
603.78	2167.16
604.13	2160.05
604.48	2152.96
604.83	2147.01
605.18	2140.93
605.53	2134.09
605.87	2127.07
606.22	2120.25
606.57	2112.54
606.92	2104.82
607.27	2097.70
607.62	2091.10
607.96	2084.09
608.31	2077.53
608.66	2069.74
609.01	2062.24
609.36	2055.21
609.70	2047.34
610.05	2039.51
610.40	2031.32
610.75	2023.21
611.10	2015.62
611.44	2006.98
611.79	1998.31
612.14	1988.22
612.49	1977.71
612.83	1968.52
613.18	1959.61
613.53	1950.38
613.88	1940.80
614.22	1932.24
614.57	1922.29
614.92	1911.90
615.27	1901.93
615.61	1892.03
615.96	1882.50
616.31	1872.97
616.65	1863.65
617.00	1853.78
617.35	1844.24
617.70	1834.52
618.04	1824.37
618.39	1814.05
618.74	1804.29
619.08	1794.82
619.43	1786.25
619.78	1778.05
620.12	1769.26
620.47	1759.42
620.82	1749.22
621.16	1739.42
621.51	1729.30
621.85	1719.44
622.20	1708.88
622.55	1698.20
622.89	1688.34
623.24	1678.62
623.59	1668.76
623.93	1658.58
624.28	1648.98
624.62	1638.66
624.97	1628.34
625.32	1618.68
625.66	1609.88
626.01	1600.97
626.35	1591.43
626.70	1581.23
627.04	1570.96
627.39	1560.92
627.73	1551.47
628.08	1542.30
628.43	1532.67
628.77	1523.54
629.12	1514.71
629.46	1506.85
629.81	1498.34
630.15	1488.65
630.50	1478.71
630.84	1468.34
631.19	1458.34
631.53	1448.79
631.88	1438.68
632.22	1428.69
632.57	1419.25
632.91	1409.09
633.26	1399.32
633.60	1389.67
633.95	1380.33
634.29	1370.98
634.64	1361.63
634.98	1351.77
635.32	1342.43
635.67	1333.82
636.01	1324.58
636.36	1314.72
636.70	1305.17
637.05	1295.87
637.39	1286.83
637.73	1278.15
638.08	1270.39
638.42	1262.11
638.77	1253.33
639.11	1245.13
639.45	1237.19
639.80	1228.42
640.14	1219.80
640.49	1210.85
640.83	1202.00
641.17	1193.88
641.52	1185.71
641.86	1177.07
642.20	1169.22
642.55	1160.58
642.89	1151.66
643.23	1142.89
643.58	1134.79
643.92	1125.64
644.26	1116.94
644.61	1108.53
644.95	1099.75
645.29	1090.53
645.64	1081.38
645.98	1073.08
646.32	1065.11
646.66	1056.71
647.01	1048.39
647.35	1040.22
647.69	1031.86
648.04	1023.58
648.38	1014.63
648.72	1005.77
649.06	997.33
649.41	989.13
649.75	981.18
650.09	973.39
650.43	965.43
650.78	957.23
651.12	949.66
651.46	942.32
651.80	935.10
652.14	927.86
652.49	920.38
652.83	913.12
653.17	905.29
653.51	897.64
653.85	890.29
654.20	883.09
654.54	875.37
654.88	868.17
655.22	861.04
655.56	854.08
655.90	847.34
656.25	840.67
656.59	833.66
656.93	826.74
657.27	819.70
657.61	812.78
657.95	806.68
658.29	800.86
658.64	794.63
658.98	788.16
659.32	781.59
659.66	775.45
660.00	769.20
660.34	763.26
660.68	757.21
661.02	751.04
661.36	745.18
661.70	739.56
662.05	733.95
662.39	728.47
662.73	723.15
663.07	717.82
663.41	712.30
663.75	706.77
664.09	701.12
664.43	695.74
664.77	690.43
665.11	684.59
665.45	678.62
665.79	672.92
666.13	667.27
666.47	661.86
666.81	656.42
667.15	651.12
667.49	645.95
667.83	640.72
668.17	635.49
668.51	630.47
668.85	625.57
669.19	620.70
669.53	615.74
669.87	610.72
670.21	606.04
670.55	601.33
670.89	596.97
671.23	592.80
671.57	588.48
671.91	584.20
672.25	580.19
672.58	576.13
672.92	572.19
673.26	568.35
673.60	564.54
673.94	560.86
674.28	557.21
674.62	553.52
674.96	549.85
675.30	546.43
675.64	542.80
675.97	539.25
676.31	535.74
676.65	532.23
676.99	528.79
677.33	524.99
677.67	521.38
678.01	517.54
678.34	513.88
678.68	510.39
679.02	506.81
679.36	503.12
679.70	499.52
680.04	495.98
680.37	492.61
680.71	489.28
681.05	486.10
681.39	482.97
681.73	479.89
682.06	476.89
682.40	473.86
682.74	470.70
683.08	467.56
683.42	464.42
683.75	461.47
684.09	458.56
684.43	455.78
684.77	452.91
685.10	450.14
685.44	447.27
685.78	444.37
686.12	441.71
686.45	439.03
686.79	436.44
687.13	433.99
687.46	431.38
687.80	428.78
688.14	426.02
688.48	423.44
688.81	420.74
689.15	418.22
689.49	415.60
689.82	413.11
690.16	410.59
690.50	408.16
690.83	405.69
691.17	403.21
691.51	400.79
691.84	398.62
692.18	396.43
692.52	394.28
692.85	392.25
693.19	390.16
693.52	388.04
693.86	385.84
694.20	383.64
694.53	381.52
694.87	379.34
695.21	377.32
695.54	375.19
695.88	373.11
696.21	370.95
696.55	368.85
696.88	366.86
697.22	364.92
697.56	363.07
697.89	361.25
698.23	359.60
698.56	357.89
698.90	356.12
699.23	354.24
699.57	352.40
699.90	350.55
700.24	348.77
700.58	347.06
700.91	345.48
701.25	343.95
701.58	342.41
701.92	340.90
702.25	339.31
702.59	337.73
702.92	336.25
703.26	334.78
703.59	333.39
703.93	332.12
704.26	330.74
704.60	329.29
704.93	327.84
705.26	326.31
705.60	324.85
705.93	323.39
706.27	322.16
706.60	320.96
706.94	319.73
707.27	318.36
707.61	317.07
707.94	315.74
708.27	314.29
708.61	312.91
708.94	311.54
709.28	310.22
709.61	309.01
709.94	307.80
710.28	306.58
710.61	305.42
710.95	304.04
711.28	302.94
711.61	301.78
711.95	300.67
712.28	299.48
712.61	298.34
712.95	297.35
713.28	296.33
713.61	295.17
713.95	294.06
714.28	293.06
714.61	292.02
714.95	291.02
715.28	290.02
715.61	288.99
715.95	288.05
716.28	287.14
716.61	286.20
716.95	285.25
717.28	284.38
717.61	283.45
717.94	282.59
718.28	281.63
718.61	280.79
718.94	279.95
719.27	279.16
719.61	278.33
719.94	277.44
720.27	276.50
720.60	275.68
720.94	274.93
721.27	274.18
721.60	273.54
721.93	272.88
722.27	272.31
722.60	271.71
722.93	271.06
723.26	270.46
723.59	269.79
723.93	269.17
724.26	268.52
724.59	267.91
724.92	267.32
725.25	266.80
725.59	266.26
725.92	265.75
726.25	265.19
726.58	264.66
726.91	264.11
727.24	263.59
727.57	263.06
727.91	262.42
728.24	261.93
728.57	261.34
728.90	260.77
729.23	260.11
729.56	259.69
729.89	259.14
730.22	258.57
730.55	258.06
730.89	257.57
731.22	257.04
731.55	256.54
731.88	255.99
732.21	255.43
732.54	254.88
732.87	254.38
733.20	253.91
733.53	253.45
733.86	253.03
734.19	252.57
734.52	252.17
734.85	251.91
735.18	251.43
735.51	251.06
735.84	250.63
736.17	250.29
736.50	249.77
736.83	249.70
737.16	249.32
737.49	248.97
737.82	248.56
738.15	248.24
738.48	247.86
738.81	247.54
739.14	247.16
739.47	246.80
739.80	246.42
740.13	246.07
740.46	245.70
740.79	245.29
741.12	244.94
741.45	244.57
741.78	244.18
742.11	243.93
742.44	243.56
742.77	243.32
743.10	242.99
743.43	242.66
743.75	242.08
744.08	242.04
744.41	241.68
744.74	241.35
745.07	241.01
745.40	240.73
745.73	240.47
746.06	240.17
746.39	239.88
746.71	239.55
747.04	239.19
747.37	238.86
747.70	238.62
748.03	238.34
748.36	238.08
748.68	237.77
749.01	237.39
749.34	237.11
749.67	236.81
750.00	236.56
750.33	236.41
750.65	236.15
750.98	235.65
751.31	235.37
751.64	235.13
751.97	235.00
752.29	234.76
752.62	234.45
752.95	234.17
753.28	233.90
753.60	233.67
753.93	233.54
754.26	233.34
754.59	233.04
754.91	232.80
755.24	232.57
755.57	232.33
755.90	232.10
756.22	231.85
756.55	231.62
756.88	231.36
757.20	231.02
757.53	230.78
757.86	230.54
758.19	230.38
758.51	230.18
758.84	229.87
759.17	229.65
759.49	229.51
759.82	229.45
760.15	229.33
760.47	229.14
760.80	228.88
761.13	228.75
761.45	228.57
761.78	228.42
762.11	228.25
762.43	228.07
762.76	227.91
763.08	227.77
763.41	227.62
763.74	227.47
764.06	227.32
764.39	227.16
764.71	227.03
765.04	226.88
765.37	226.72
765.69	226.60
766.02	226.47
766.34	226.32
766.67	226.13
767.00	225.99
767.32	225.98
767.65	225.99
767.97	225.83
768.30	225.72
768.62	225.57
768.95	225.44
769.27	225.28
769.60	225.21
769.92	225.08
770.25	224.87
770.57	224.75
770.90	224.63
771.22	224.50
771.55	224.41
771.87	224.34
772.20	224.23
772.52	224.26
772.85	224.39
773.17	224.28
773.50	224.19
773.82	224.06
774.15	223.87
774.47	223.65
774.80	223.54
775.12	223.48
775.45	223.39
775.77	223.34
776.09	223.27
776.42	223.19
776.74	223.17
777.07	223.12
777.39	223.05
777.72	222.96
778.04	222.89
778.36	222.79
778.69	222.70
779.01	222.62
779.33	222.34
779.66	222.03
779.98	221.93
780.31	221.83
780.63	221.86
780.95	221.78
781.28	221.72
781.60	221.62
781.92	221.52
782.25	221.47
782.57	221.38
782.89	221.34
783.22	221.27
783.54	221.12
783.86	221.07
784.19	221.03
784.51	221.02
784.83	220.95
785.16	220.86
785.48	220.82
785.80	220.77
786.12	220.75
786.45	220.69
786.77	220.65
787.09	220.60
787.42	220.46
787.74	220.45
788.06	220.39
788.38	220.37
788.71	220.30
789.03	220.29
789.35	220.25
789.67	220.17
789.99	220.10
790.32	220.04
790.64	220.01
790.96	220.11
791.28	220.03
791.61	219.96
791.93	219.97
792.25	219.87
792.57	219.98
792.89	219.91
793.21	219.87
793.54	219.81
793.86	219.75
794.18	219.74
794.50	219.64
794.82	219.57
795.14	219.54
795.47	219.55
795.79	219.46
796.11	219.39
796.43	219.37
796.75	219.33
797.07	219.31
797.39	219.27
797.71	219.10
798.04	219.06
798.36	219.03
798.68	218.95
799.00	218.92
799.32	218.78
799.64	218.80
799.96	218.75
800.28	218.75
800.60	218.70
800.92	218.66
801.24	218.63
801.56	218.64
801.89	218.57
802.21	218.58
802.53	218.52
802.85	218.51
803.17	218.58
803.49	218.54
803.81	218.50
804.13	218.45
804.45	218.39
804.77	218.35
805.09	218.34
805.41	218.29
805.73	218.23
806.05	218.14
806.37	218.06
806.69	218.05
807.01	217.99
807.33	217.97
807.65	217.88
807.97	217.94
808.28	217.89
808.60	217.88
808.92	217.79
809.24	217.88
809.56	217.86
809.88	217.73
810.20	217.70
810.52	217.71
810.84	217.67
811.16	217.64
811.48	217.61
811.80	217.65
812.12	217.61
812.43	217.66
812.75	217.66
813.07	217.65
813.39	217.59
813.71	217.55
814.03	217.51
814.35	217.52
814.67	217.42
814.98	217.39
815.30	217.36
815.62	217.31
815.94	217.18
816.26	217.18
816.58	217.15
816.89	217.14
817.21	217.05
817.53	217.04
817.85	217.05
818.17	217.04
818.48	216.95
818.80	217.00
819.12	216.94
819.44	216.86
819.76	216.84
820.07	216.86
820.39	216.85
820.71	216.90
821.03	216.86
821.34	216.83
821.66	216.83
821.98	216.85
822.30	216.82
822.61	216.90
822.93	216.82
823.25	216.82
823.57	216.81
823.88	216.88
824.20	216.84
824.52	216.80
824.83	216.78
825.15	216.76
825.47	216.74
825.79	216.72
826.10	216.75
826.42	216.71
826.74	216.72
827.05	216.71
827.37	216.65
827.69	216.65
828.00	216.62
828.32	216.60
828.64	216.55
828.95	216.67
829.27	216.59
829.58	216.60
829.90	216.62
830.22	216.58
830.53	216.52
830.85	216.49
831.17	216.46
831.48	216.45
831.80	216.44
832.11	216.41
832.43	216.38
832.75	216.34
833.06	216.45
833.38	216.34
833.69	216.31
834.01	216.35
834.32	216.31
834.64	216.31
834.96	216.30
835.27	216.32
835.59	216.24
835.90	216.18
836.22	216.17
836.53	216.12
836.85	216.11
837.16	216.28
837.48	216.30
837.79	216.38
838.11	216.37
838.42	216.39
838.74	216.40
839.05	216.38
839.37	216.35
839.68	216.24
840.00	216.25
840.31	216.28
840.63	216.21
840.94	216.20
841.26	216.16
841.57	216.18
841.88	216.19
842.20	216.16
842.51	216.15
842.83	216.16
843.14	216.31
843.46	216.31
843.77	216.18
844.08	216.13
844.40	216.06
844.71	216.04
845.03	215.98
845.34	215.93
845.65	215.91
845.97	215.94
846.28	215.94
846.60	215.96
846.91	215.93
847.22	215.97
847.54	216.00
847.85	216.04
848.16	215.96
848.48	215.89
848.79	215.98
849.10	215.97
849.42	215.93
849.73	215.75
850.04	215.73
850.36	215.70
850.67	215.72
850.98	215.72
851.30	215.74
851.61	215.74
851.92	215.75
852.23	215.84
852.55	215.84
852.86	215.85
853.17	215.86
853.49	215.88
853.80	215.87
854.11	215.88
854.42	215.85
854.74	215.86
855.05	215.88
855.36	215.75
855.67	215.78
855.99	215.78
856.30	216.03
856.61	216.02
856.92	216.00
857.23	216.02
857.55	216.00
857.86	215.96
858.17	216.02
858.48	216.01
858.79	215.96
859.11	215.99
859.42	215.96
859.73	215.93
860.04	215.91
860.35	215.86
860.66	215.79
860.98	215.83
861.29	215.83
861.60	215.81
861.91	215.87
862.22	215.83
862.53	215.83
862.84	215.56
863.16	215.61
863.47	215.57
863.78	215.54
864.09	215.53
864.40	215.58
864.71	215.53
865.02	215.54
865.33	215.51
865.64	215.47
865.95	215.48
866.27	215.63
866.58	215.61
866.89	215.64
867.20	215.64
867.51	215.59
867.82	215.59
868.13	215.66
868.44	215.61
868.75	215.68
869.06	215.66
869.37	215.72
869.68	215.65
869.99	215.70
870.30	215.69
870.61	215.71
870.92	215.64
871.23	215.63
871.54	215.63
871.85	215.68
872.16	215.70
872.47	215.63
872.78	215.50
873.09	215.52
873.40	215.49
873.71	215.49
874.02	215.47
874.33	215.47
874.64	215.39
874.95	215.42
875.26	215.36
875.56	215.35
875.87	215.32
876.18	215.31
876.49	215.52
876.80	215.51
877.11	215.47
877.42	215.51
877.73	215.50
878.04	215.48
878.35	215.47
878.66	215.48
878.96	215.52
879.27	215.49
879.58	215.49
879.89	215.48
880.20	215.53
880.51	215.56
880.82	215.55
881.12	215.57
881.43	215.51
881.74	215.49
882.05	215.49
882.36	215.49
882.67	215.51
882.97	215.26
883.28	215.24
883.59	215.26
883.90	215.26
884.21	215.29
884.51	215.26
884.82	215.23
885.13	215.18
885.44	215.14
885.74	215.15
886.05	215.13
886.36	215.11
886.67	215.07
886.98	215.18
887.28	215.21
887.59	215.20
887.90	215.23
888.20	215.24
888.51	215.32
888.82	215.30
889.13	215.29
889.43	215.50
889.74	215.50
890.05	215.53
890.35	215.52
890.66	215.50
890.97	215.53
891.28	215.49
891.58	215.55
891.89	215.59
892.20	215.59
892.50	215.59
892.81	215.60
893.12	215.59
893.42	215.48
893.73	215.50
894.04	215.48
894.34	215.50
894.65	215.49
894.95	215.41
895.26	215.41
895.57	215.49
895.87	215.24
896.18	215.32
896.48	215.29
896.79	215.27
897.10	215.30
897.40	215.28
897.71	215.32
898.01	215.27
898.32	215.24
898.63	215.24
898.93	215.25
899.24	215.24
899.54	215.22
899.85	215.18
900.15	215.16
900.46	215.18
900.76	215.19
901.07	215.19
901.38	215.16
901.68	215.19
901.99	215.13
902.29	215.18
902.60	215.12
902.90	215.12
903.21	215.13
903.51	215.11
903.82	215.16
904.12	215.16
904.43	215.17
904.73	215.18
905.03	215.15
905.34	215.32
905.64	215.32
905.95	215.33
906.25	215.36
906.56	215.33
906.86	215.33
907.17	215.31
907.47	215.33
907.77	215.35
908.08	215.30
908.38	215.28
908.69	215.28
908.99	215.30
909.30	215.30
909.60	215.29
909.90	215.29
910.21	215.22
910.51	215.19
910.81	215.19
911.12	215.18
911.42	215.21
911.73	215.01
912.03	215.02
912.33	215.08
912.64	215.06
912.94	215.04
913.24	215.00
913.55	214.97
913.85	214.94
914.15	214.98
914.46	215.00
914.76	215.01
915.06	215.00
915.37	214.99
915.67	215.01
915.97	215.03
916.27	214.99
916.58	214.99
916.88	215.01
917.18	215.01
917.49	215.15
917.79	215.14
918.09	215.19
918.39	215.22
918.70	215.17
919.00	215.17
919.30	215.27
919.60	215.25
919.91	215.24
920.21	215.26
920.51	215.20
920.81	215.17
921.12	215.20
921.42	215.19
921.72	215.18
922.02	215.17
922.32	215.18
922.63	215.19
922.93	215.32
923.23	215.31
923.53	215.29
923.83	215.17
924.13	215.20
924.44	215.20
924.74	215.26
925.04	215.31
925.34	215.34
925.64	215.24
925.94	215.25
926.24	215.36
926.55	215.33
926.85	215.40
927.15	215.42
927.45	215.41
927.75	215.38
928.05	215.41
928.35	215.38
928.65	215.43
928.95	215.47
929.26	215.37
929.56	215.43
929.86	215.44
930.16	215.40
930.46	215.36
930.76	215.35
931.06	215.21
931.36	215.17
931.66	215.18
931.96	215.23
932.26	215.27
932.56	215.18
932.86	215.17
933.16	215.16
933.46	215.14
933.76	215.10
934.06	215.19
934.36	215.26
934.66	215.26
934.96	215.22
935.26	215.22
935.56	215.22
935.86	215.18
936.16	215.17
936.46	215.20
936.76	215.21
937.06	215.18
937.36	215.24
937.66	215.26
937.96	215.26
938.26	215.22
938.56	215.19
938.86	215.21
939.16	215.29
939.46	215.29
939.76	215.29
940.06	215.30
940.35	215.22
940.65	215.11
940.95	215.13
941.25	215.09
941.55	215.10
941.85	215.09
942.15	215.10
942.45	215.10
942.75	215.07
943.04	215.09
943.34	215.13
943.64	215.10
943.94	215.05
944.24	215.07
944.54	215.09
944.84	215.05
945.13	215.01
945.43	214.96
945.73	214.94
946.03	214.96
946.33	214.93
946.62	214.93
946.92	214.93
947.22	214.93
947.52	214.94
947.82	214.93
948.11	214.94
948.41	214.89
948.71	214.88
949.01	214.89
949.31	214.87
949.60	214.86
949.90	214.88
950.20	214.86
950.50	214.86
950.79	214.84
951.09	214.91
951.39	214.91
951.69	214.90
951.98	214.97
952.28	214.96
952.58	214.96
952.87	214.96
953.17	214.98
953.47	214.94
953.76	214.93
954.06	214.90
954.36	214.83
954.66	214.83
954.95	214.88
955.25	214.89
955.55	214.90
955.84	214.86
956.14	214.85
956.44	214.88
956.73	214.83
957.03	214.84
957.32	214.85
957.62	214.86
957.92	214.87
958.21	214.81
958.51	215.03
958.81	215.02
959.10	215.05
959.40	215.08
959.69	215.11
959.99	215.14
960.29	215.14
960.58	215.16
960.88	215.27
961.17	215.24
961.47	215.28
961.76	215.28
962.06	215.31
962.36	215.29
962.65	215.27
962.95	215.25
963.24	215.21
963.54	215.20
963.83	215.23
964.13	215.23
964.42	215.18
964.72	215.03
965.01	215.03
965.31	215.02
965.60	214.96
965.90	215.08
966.19	215.05
966.49	215.08
966.78	215.06
967.08	215.01
967.37	215.01
967.67	214.97
967.96	214.98
968.26	214.98
968.55	215.01
968.85	215.04
969.14	215.09
969.43	215.12
969.73	215.08
970.02	215.04
970.32	215.01
970.61	215.03
970.91	214.97
971.20	214.97
971.49	214.94
971.79	214.96
972.08	214.83
972.38	214.83
972.67	214.79
972.96	214.84
973.26	214.83
973.55	214.87
973.85	214.84
974.14	214.82
974.43	214.80
974.73	214.76
975.02	214.75
975.31	214.73
975.61	214.71
975.90	214.72
976.19	214.73
976.49	214.74
976.78	214.78
977.07	214.78
977.37	214.82
977.66	214.85
977.95	214.83
978.24	214.86
978.54	214.91
978.83	214.90
979.12	214.87
979.42	214.87
979.71	214.82
980.00	214.84
980.29	214.84
980.59	214.86
980.88	214.92
981.17	214.89
981.46	214.90
981.76	214.92
982.05	214.99
982.34	215.00
982.63	215.02
982.93	215.00
983.22	215.05
983.51	215.03
983.80	215.06
984.09	215.10
984.39	215.03
984.68	215.01
984.97	215.05
985.26	215.03
985.55	215.01
985.85	215.01
986.14	215.03
986.43	215.04
986.72	215.00
987.01	214.93
987.30	214.92
987.59	214.92
987.89	214.92
988.18	214.86
988.47	214.83
988.76	214.81
989.05	214.81
989.34	214.79
989.63	214.82
989.92	214.77
990.22	214.78
990.51	214.77
990.80	214.76
991.09	214.74
991.38	214.78
991.67	214.75
991.96	214.75
992.25	214.75
992.54	214.72
992.83	214.70
993.12	214.69
993.41	214.74
993.70	214.79
993.99	214.81
994.28	214.85
994.58	214.86
994.87	214.85
995.16	214.84
995.45	214.81
995.74	214.79
996.03	214.83
996.32	214.83
996.61	214.92
996.90	214.91
997.19	214.92
997.48	214.91
997.77	214.90
998.06	214.88
998.34	214.90
998.63	214.92
998.92	214.97
999.21	215.02
999.50	215.03
999.79	214.98
1000.08	214.97
1000.37	214.95
1000.66	214.92
1000.95	214.95
1001.24	214.95
1001.53	214.98
1001.82	214.94
1002.11	214.88
1002.40	214.86
1002.68	214.90
1002.97	215.04
1003.26	214.98
1003.55	214.96
1003.84	215.01
1004.13	215.08
1004.42	215.07
1004.71	215.07
1004.99	215.03
1005.28	215.03
1005.57	215.02
1005.86	215.00
1006.15	215.00
1006.44	214.98
1006.72	215.04
1007.01	215.01
1007.30	215.03
1007.59	215.00
1007.88	215.02
1008.17	215.02
1008.45	215.01
1008.74	214.90
1009.03	214.80
1009.32	214.84
1009.60	214.84
1009.89	214.80
1010.18	214.72
1010.47	214.71
1010.76	214.71
1011.04	214.72
1011.33	214.72
1011.62	214.73
1011.91	214.72
1012.19	214.70
1012.48	214.72
1012.77	214.74
1013.05	214.88
1013.34	214.84
1013.63	214.85
1013.92	214.87
1014.20	214.90
1014.49	214.92
1014.78	214.95
1015.06	214.88
1015.35	214.84
1015.64	214.87
1015.92	214.92
1016.21	214.92
1016.50	214.90
1016.78	214.93
1017.07	214.94
1017.36	214.91
1017.64	214.87
1017.93	214.88
1018.22	214.88
1018.50	214.85
1018.79	214.83
1019.08	214.67
1019.36	214.72
1019.65	214.69
1019.93	214.74
1020.22	214.75
1020.51	214.83
1020.79	214.84
1021.08	214.68
1021.36	214.16
1021.65	215.02
1021.94	214.51
1022.22	215.16
1022.51	214.40
1022.79	216.26
1023.08	215.15
1023.36	217.35
1023.65	214.61
>>>>>End Processed Spectral Data<<<<<
