SpectraSuite Data File
++++++++++++++++++++++++++++++++++++
Date: Tue Jan 29 16:14:04 EST 2013
User: group
Dark Spectrum Present: No
Reference Spectrum Present: No
Number of Sampled Component Spectra: 1
Spectrometers: USB2E7196
Integration Time (usec): 65000 (USB2E7196)
Spectra Averaged: 100 (USB2E7196)
Boxcar Smoothing: 10 (USB2E7196)
Correct for Electrical Dark: No (USB2E7196)
Strobe/Lamp Enabled: No (USB2E7196)
Correct for Detector Non-linearity: No (USB2E7196)
Correct for Stray Light: No (USB2E7196)
Number of Pixels in Processed Spectrum: 2048
>>>>>Begin Processed Spectral Data<<<<<
339.09	0.00
339.48	202.18
339.86	203.78
340.24	205.27
340.63	207.07
341.01	211.50
341.39	209.40
341.78	211.39
342.16	212.47
342.54	212.57
342.93	201.72
343.31	211.91
343.69	212.48
344.07	212.92
344.46	213.38
344.84	213.78
345.22	213.92
345.60	214.19
345.99	214.37
346.37	214.50
346.75	214.60
347.13	214.70
347.52	214.80
347.90	214.90
348.28	214.92
348.66	214.98
349.05	214.95
349.43	215.03
349.81	215.09
350.19	215.15
350.57	215.22
350.96	215.27
351.34	215.37
351.72	215.45
352.10	215.57
352.48	215.59
352.87	215.61
353.25	215.65
353.63	215.72
354.01	215.79
354.39	215.86
354.77	215.93
355.15	216.02
355.54	216.07
355.92	216.07
356.30	216.13
356.68	216.32
357.06	216.42
357.44	216.43
357.82	216.49
358.20	216.60
358.58	216.67
358.97	216.75
359.35	216.89
359.73	217.01
360.11	217.06
360.49	217.16
360.87	217.18
361.25	217.29
361.63	217.39
362.01	217.43
362.39	217.48
362.77	217.53
363.15	217.55
363.53	217.55
363.91	217.55
364.29	217.59
364.67	217.42
365.05	217.43
365.43	217.50
365.81	217.55
366.19	217.62
366.57	217.67
366.95	217.65
367.33	217.57
367.71	217.53
368.09	217.60
368.47	217.58
368.85	217.58
369.23	217.62
369.61	217.54
369.99	217.58
370.37	217.60
370.75	217.65
371.13	217.63
371.51	217.60
371.89	217.63
372.27	217.63
372.65	217.62
373.03	217.62
373.41	217.58
373.78	217.52
374.16	217.38
374.54	217.34
374.92	217.30
375.30	217.29
375.68	217.18
376.06	217.11
376.44	217.08
376.82	217.07
377.19	217.01
377.57	216.98
377.95	216.87
378.33	216.77
378.71	216.64
379.09	216.62
379.47	216.61
379.84	216.54
380.22	216.49
380.60	216.40
380.98	216.33
381.36	216.28
381.73	216.22
382.11	216.19
382.49	216.12
382.87	216.04
383.25	215.97
383.62	216.22
384.00	216.12
384.38	216.11
384.76	216.14
385.13	216.18
385.51	216.16
385.89	216.12
386.27	216.12
386.64	216.13
387.02	216.04
387.40	216.00
387.78	216.01
388.15	216.00
388.53	216.00
388.91	215.97
389.29	215.91
389.66	215.93
390.04	215.91
390.42	215.91
390.79	215.93
391.17	215.89
391.55	215.68
391.92	215.70
392.30	215.73
392.68	215.65
393.05	215.62
393.43	215.61
393.81	215.61
394.18	215.58
394.56	215.57
394.94	215.65
395.31	215.61
395.69	215.66
396.06	215.71
396.44	215.69
396.82	215.71
397.19	215.86
397.57	215.86
397.95	215.91
398.32	215.87
398.70	215.91
399.07	216.03
399.45	216.05
399.82	216.07
400.20	216.07
400.58	216.13
400.95	216.10
401.33	216.20
401.70	216.45
402.08	216.54
402.45	216.62
402.83	216.75
403.20	216.84
403.58	216.95
403.95	217.07
404.33	217.28
404.71	217.41
405.08	217.64
405.46	217.79
405.83	217.98
406.21	218.22
406.58	218.45
406.96	218.65
407.33	218.90
407.70	219.18
408.08	219.61
408.45	219.98
408.83	220.40
409.20	220.73
409.58	220.97
409.95	221.43
410.33	221.89
410.70	222.27
411.08	222.83
411.45	223.36
411.82	223.91
412.20	224.57
412.57	225.40
412.95	225.96
413.32	226.78
413.69	227.58
414.07	228.44
414.44	229.39
414.82	230.38
415.19	231.50
415.56	232.70
415.94	233.85
416.31	235.21
416.68	236.53
417.06	238.10
417.43	239.55
417.81	241.22
418.18	242.95
418.55	244.85
418.93	246.80
419.30	248.82
419.67	250.96
420.04	253.13
420.42	255.41
420.79	258.13
421.16	260.81
421.54	263.62
421.91	266.53
422.28	269.51
422.66	272.67
423.03	275.82
423.40	279.05
423.77	282.49
424.15	286.04
424.52	289.77
424.89	293.78
425.26	297.75
425.64	301.52
426.01	305.66
426.38	309.94
426.75	314.34
427.13	318.89
427.50	323.69
427.87	328.71
428.24	333.75
428.61	338.56
428.99	343.93
429.36	349.75
429.73	355.48
430.10	361.17
430.47	367.06
430.85	373.17
431.22	379.63
431.59	386.54
431.96	393.12
432.33	400.36
432.70	407.35
433.08	415.60
433.45	423.38
433.82	431.15
434.19	439.79
434.56	448.21
434.93	456.27
435.30	464.25
435.68	473.14
436.05	481.82
436.42	490.43
436.79	498.28
437.16	506.69
437.53	515.59
437.90	524.44
438.27	533.08
438.64	542.01
439.01	550.25
439.38	557.54
439.75	564.56
440.13	572.76
440.50	580.42
440.87	586.56
441.24	592.97
441.61	600.09
441.98	605.20
442.35	611.30
442.72	617.44
443.09	623.31
443.46	626.82
443.83	629.23
444.20	631.35
444.57	634.41
444.94	635.84
445.31	637.27
445.68	638.57
446.05	639.12
446.42	638.37
446.79	637.46
447.16	636.42
447.53	635.72
447.90	632.44
448.27	629.24
448.64	624.80
449.01	621.60
449.37	615.85
449.74	610.43
450.11	603.79
450.48	596.60
450.85	589.42
451.22	583.22
451.59	577.32
451.96	571.62
452.33	564.02
452.70	557.14
453.07	548.94
453.43	540.59
453.80	532.66
454.17	524.90
454.54	517.60
454.91	509.70
455.28	502.02
455.65	494.83
456.02	487.63
456.38	481.55
456.75	473.98
457.12	467.65
457.49	461.41
457.86	455.45
458.23	450.29
458.59	444.56
458.96	438.75
459.33	433.63
459.70	428.45
460.07	424.34
460.43	419.66
460.80	415.23
461.17	411.44
461.54	407.36
461.91	403.53
462.27	399.63
462.64	396.37
463.01	392.68
463.38	389.19
463.74	385.64
464.11	382.52
464.48	379.72
464.85	376.74
465.21	374.37
465.58	371.82
465.95	368.81
466.32	366.29
466.68	363.80
467.05	361.32
467.42	358.94
467.78	356.37
468.15	353.90
468.52	352.09
468.88	349.69
469.25	347.56
469.62	345.80
469.98	343.85
470.35	342.08
470.72	340.51
471.08	338.73
471.45	337.30
471.82	335.83
472.18	334.28
472.55	333.17
472.92	331.83
473.28	330.67
473.65	329.63
474.02	328.63
474.38	327.83
474.75	327.05
475.11	326.26
475.48	325.65
475.85	325.22
476.21	324.76
476.58	324.47
476.94	324.26
477.31	323.98
477.67	323.76
478.04	323.64
478.41	323.62
478.77	323.80
479.14	323.78
479.50	323.95
479.87	324.26
480.23	324.58
480.60	324.87
480.96	325.18
481.33	325.80
481.69	326.30
482.06	326.81
482.42	327.38
482.79	328.00
483.15	328.82
483.52	329.81
483.88	330.71
484.25	331.64
484.61	332.66
484.98	333.73
485.34	335.11
485.71	336.47
486.07	337.88
486.44	339.21
486.80	340.82
487.17	342.45
487.53	344.28
487.90	346.09
488.26	348.10
488.62	350.19
488.99	352.16
489.35	354.38
489.72	356.80
490.08	359.28
490.44	361.80
490.81	364.56
491.17	367.27
491.54	370.24
491.90	373.25
492.26	376.52
492.63	379.94
492.99	383.35
493.36	387.00
493.72	390.88
494.08	394.90
494.45	399.05
494.81	403.42
495.17	407.83
495.54	412.53
495.90	417.30
496.26	422.23
496.63	427.46
496.99	432.80
497.35	438.33
497.72	444.13
498.08	450.09
498.44	456.13
498.80	462.47
499.17	468.91
499.53	475.59
499.89	482.41
500.26	489.37
500.62	496.47
500.98	503.83
501.34	511.20
501.71	518.84
502.07	526.65
502.43	534.59
502.79	542.66
503.16	550.97
503.52	559.49
503.88	568.14
504.24	577.01
504.60	585.98
504.97	595.14
505.33	604.38
505.69	614.13
506.05	623.88
506.41	633.64
506.78	643.65
507.14	653.77
507.50	664.09
507.86	674.71
508.22	685.45
508.59	696.13
508.95	707.16
509.31	718.47
509.67	729.84
510.03	741.21
510.39	752.87
510.75	764.60
511.12	776.45
511.48	788.50
511.84	800.59
512.20	812.84
512.56	825.33
512.92	837.94
513.28	850.47
513.64	863.13
514.00	875.79
514.37	888.61
514.73	901.62
515.09	914.55
515.45	927.27
515.81	940.11
516.17	953.14
516.53	966.13
516.89	978.93
517.25	991.98
517.61	1005.15
517.97	1018.34
518.33	1031.32
518.69	1044.67
519.05	1058.15
519.41	1071.59
519.77	1085.27
520.13	1098.37
520.49	1111.30
520.85	1124.41
521.21	1137.49
521.57	1150.99
521.93	1163.84
522.29	1177.37
522.65	1190.64
523.01	1203.99
523.37	1216.91
523.73	1229.98
524.09	1242.95
524.45	1256.14
524.81	1269.25
525.17	1282.44
525.53	1295.40
525.89	1308.51
526.25	1321.23
526.61	1333.82
526.97	1346.74
527.33	1359.33
527.68	1372.52
528.04	1385.82
528.40	1398.64
528.76	1411.63
529.12	1424.20
529.48	1437.17
529.84	1449.07
530.20	1461.55
530.56	1473.76
530.91	1486.64
531.27	1499.16
531.63	1511.63
531.99	1524.13
532.35	1536.06
532.71	1548.19
533.07	1560.62
533.42	1572.43
533.78	1584.35
534.14	1596.07
534.50	1606.97
534.86	1618.29
535.21	1628.80
535.57	1639.87
535.93	1650.99
536.29	1661.90
536.65	1673.00
537.00	1683.72
537.36	1694.88
537.72	1705.54
538.08	1716.73
538.44	1727.40
538.79	1738.19
539.15	1748.68
539.51	1758.93
539.87	1769.86
540.22	1780.33
540.58	1790.82
540.94	1801.39
541.29	1811.40
541.65	1820.90
542.01	1831.01
542.37	1840.75
542.72	1850.64
543.08	1860.22
543.44	1870.25
543.79	1879.26
544.15	1888.45
544.51	1898.12
544.87	1907.60
545.22	1916.44
545.58	1924.95
545.94	1933.64
546.29	1941.97
546.65	1950.09
547.01	1958.14
547.36	1965.70
547.72	1973.14
548.07	1980.72
548.43	1988.23
548.79	1995.71
549.14	2003.66
549.50	2011.88
549.86	2019.43
550.21	2026.58
550.57	2033.95
550.92	2040.50
551.28	2047.84
551.64	2054.93
551.99	2062.22
552.35	2069.22
552.70	2075.92
553.06	2082.43
553.41	2088.40
553.77	2094.60
554.13	2100.78
554.48	2107.70
554.84	2114.52
555.19	2120.87
555.55	2127.11
555.90	2133.34
556.26	2139.94
556.61	2145.68
556.97	2150.49
557.32	2156.41
557.68	2162.77
558.03	2168.50
558.39	2173.71
558.74	2179.38
559.10	2184.78
559.45	2190.13
559.81	2195.54
560.16	2201.12
560.52	2207.02
560.87	2213.40
561.23	2219.48
561.58	2226.10
561.94	2231.30
562.29	2236.13
562.64	2242.14
563.00	2247.71
563.35	2253.16
563.71	2259.15
564.06	2264.74
564.42	2270.71
564.77	2275.71
565.12	2280.92
565.48	2286.11
565.83	2291.68
566.19	2297.27
566.54	2302.67
566.89	2307.36
567.25	2311.91
567.60	2317.59
567.96	2322.69
568.31	2327.38
568.66	2331.46
569.02	2335.46
569.37	2339.26
569.72	2343.66
570.08	2347.26
570.43	2350.31
570.78	2353.58
571.14	2356.15
571.49	2359.42
571.84	2362.93
572.20	2365.81
572.55	2368.89
572.90	2371.09
573.26	2374.11
573.61	2376.49
573.96	2378.71
574.31	2380.86
574.67	2382.93
575.02	2383.91
575.37	2385.38
575.72	2386.16
576.08	2387.86
576.43	2388.13
576.78	2388.83
577.13	2390.66
577.49	2391.87
577.84	2393.29
578.19	2394.70
578.54	2395.55
578.90	2396.66
579.25	2396.76
579.60	2396.98
579.95	2396.23
580.30	2396.68
580.66	2396.20
581.01	2394.80
581.36	2392.83
581.71	2391.57
582.06	2390.56
582.42	2389.86
582.77	2387.87
583.12	2386.53
583.47	2385.41
583.82	2384.87
584.17	2383.66
584.53	2381.58
584.88	2379.80
585.23	2378.04
585.58	2376.01
585.93	2373.96
586.28	2371.98
586.63	2369.64
586.98	2367.54
587.34	2365.98
587.69	2363.78
588.04	2361.74
588.39	2360.60
588.74	2358.27
589.09	2355.91
589.44	2353.11
589.79	2350.86
590.14	2349.11
590.49	2346.29
590.84	2342.60
591.19	2339.90
591.54	2336.80
591.89	2332.91
592.25	2329.91
592.60	2325.85
592.95	2321.74
593.30	2317.71
593.65	2313.21
594.00	2309.06
594.35	2306.05
594.70	2301.38
595.05	2296.78
595.40	2291.47
595.75	2285.82
596.10	2282.20
596.45	2277.38
596.80	2272.75
597.15	2267.55
597.50	2261.81
597.85	2257.09
598.19	2251.97
598.54	2246.13
598.89	2241.08
599.24	2236.66
599.59	2230.55
599.94	2225.05
600.29	2219.26
600.64	2213.49
600.99	2207.06
601.34	2201.66
601.69	2194.78
602.04	2188.55
602.39	2182.15
602.74	2176.42
603.08	2170.87
603.43	2164.50
603.78	2157.77
604.13	2150.88
604.48	2143.76
604.83	2137.77
605.18	2131.50
605.53	2124.61
605.87	2117.71
606.22	2111.08
606.57	2103.33
606.92	2095.61
607.27	2088.58
607.62	2082.13
607.96	2075.20
608.31	2068.67
608.66	2060.91
609.01	2053.47
609.36	2046.55
609.70	2038.84
610.05	2031.10
610.40	2023.06
610.75	2014.91
611.10	2007.33
611.44	1998.59
611.79	1989.92
612.14	1979.92
612.49	1969.50
612.83	1960.38
613.18	1951.39
613.53	1942.12
613.88	1932.60
614.22	1924.05
614.57	1914.19
614.92	1903.69
615.27	1893.65
615.61	1883.74
615.96	1874.19
616.31	1864.61
616.65	1855.20
617.00	1845.53
617.35	1835.91
617.70	1826.15
618.04	1815.89
618.39	1805.67
618.74	1795.95
619.08	1786.50
619.43	1777.95
619.78	1769.76
620.12	1760.97
620.47	1751.23
620.82	1740.95
621.16	1731.12
621.51	1721.13
621.85	1711.44
622.20	1700.94
622.55	1690.34
622.89	1680.39
623.24	1670.73
623.59	1661.02
623.93	1650.88
624.28	1641.13
624.62	1630.97
624.97	1620.73
625.32	1611.22
625.66	1602.48
626.01	1593.71
626.35	1584.29
626.70	1574.10
627.04	1564.06
627.39	1554.09
627.73	1544.84
628.08	1535.78
628.43	1526.28
628.77	1517.19
629.12	1508.28
629.46	1500.63
629.81	1492.27
630.15	1482.68
630.50	1472.82
630.84	1462.46
631.19	1452.61
631.53	1443.28
631.88	1433.24
632.22	1423.33
632.57	1414.05
632.91	1403.87
633.26	1394.15
633.60	1384.60
633.95	1375.33
634.29	1365.87
634.64	1356.57
634.98	1346.73
635.32	1337.49
635.67	1329.07
636.01	1319.73
636.36	1309.98
636.70	1300.40
637.05	1291.14
637.39	1282.30
637.73	1273.75
638.08	1266.22
638.42	1258.03
638.77	1249.20
639.11	1240.89
639.45	1232.95
639.80	1224.32
640.14	1215.65
640.49	1206.72
640.83	1197.94
641.17	1189.98
641.52	1181.80
641.86	1173.19
642.20	1165.33
642.55	1156.83
642.89	1147.98
643.23	1139.37
643.58	1131.37
643.92	1122.38
644.26	1113.64
644.61	1105.24
644.95	1096.49
645.29	1087.27
645.64	1078.23
645.98	1069.98
646.32	1062.08
646.66	1053.64
647.01	1045.33
647.35	1037.25
647.69	1028.99
648.04	1020.75
648.38	1011.75
648.72	1003.00
649.06	994.66
649.41	986.47
649.75	978.41
650.09	970.56
650.43	962.56
650.78	954.33
651.12	946.72
651.46	939.50
651.80	932.35
652.14	925.20
652.49	917.68
652.83	910.38
653.17	902.66
653.51	895.09
653.85	887.98
654.20	880.77
654.54	873.30
654.88	866.21
655.22	859.08
655.56	852.29
655.90	845.59
656.25	839.07
656.59	832.15
656.93	825.32
657.27	818.30
657.61	811.46
657.95	805.34
658.29	799.54
658.64	793.37
658.98	786.93
659.32	780.36
659.66	774.19
660.00	767.85
660.34	761.89
660.68	755.84
661.02	749.61
661.36	743.74
661.70	738.08
662.05	732.50
662.39	727.13
662.73	721.79
663.07	716.53
663.41	710.92
663.75	705.44
664.09	699.91
664.43	694.58
664.77	689.30
665.11	683.64
665.45	677.74
665.79	672.00
666.13	666.37
666.47	661.00
666.81	655.71
667.15	650.49
667.49	645.40
667.83	640.23
668.17	635.11
668.51	630.04
668.85	625.15
669.19	620.30
669.53	615.34
669.87	610.29
670.21	605.60
670.55	600.94
670.89	596.53
671.23	592.33
671.57	588.01
671.91	583.81
672.25	579.73
672.58	575.70
672.92	571.71
673.26	567.85
673.60	564.13
673.94	560.39
674.28	556.80
674.62	553.08
674.96	549.42
675.30	545.87
675.64	542.35
675.97	538.89
676.31	535.33
676.65	531.75
676.99	528.37
677.33	524.53
677.67	520.96
678.01	517.20
678.34	513.53
678.68	510.05
679.02	506.43
679.36	502.80
679.70	499.23
680.04	495.82
680.37	492.47
680.71	489.17
681.05	486.00
681.39	482.82
681.73	479.76
682.06	476.76
682.40	473.72
682.74	470.53
683.08	467.35
683.42	464.26
683.75	461.36
684.09	458.39
684.43	455.66
684.77	452.71
685.10	449.91
685.44	447.10
685.78	444.23
686.12	441.57
686.45	438.91
686.79	436.34
687.13	433.83
687.46	431.23
687.80	428.55
688.14	425.81
688.48	423.24
688.81	420.56
689.15	418.01
689.49	415.47
689.82	413.01
690.16	410.43
690.50	407.95
690.83	405.51
691.17	403.02
691.51	400.61
691.84	398.48
692.18	396.29
692.52	394.14
692.85	392.06
693.19	389.98
693.52	387.84
693.86	385.62
694.20	383.45
694.53	381.37
694.87	379.27
695.21	377.13
695.54	375.06
695.88	372.94
696.21	370.84
696.55	368.73
696.88	366.74
697.22	364.89
697.56	363.09
697.89	361.25
698.23	359.55
698.56	357.83
698.90	356.11
699.23	354.21
699.57	352.34
699.90	350.53
700.24	348.75
700.58	347.03
700.91	345.39
701.25	343.86
701.58	342.29
701.92	340.67
702.25	339.14
702.59	337.53
702.92	336.07
703.26	334.55
703.59	333.17
703.93	331.92
704.26	330.53
704.60	329.06
704.93	327.57
705.26	326.10
705.60	324.69
705.93	323.24
706.27	321.96
706.60	320.73
706.94	319.51
707.27	318.15
707.61	316.83
707.94	315.57
708.27	314.05
708.61	312.64
708.94	311.33
709.28	310.07
709.61	308.85
709.94	307.63
710.28	306.45
710.61	305.29
710.95	303.90
711.28	302.85
711.61	301.74
711.95	300.68
712.28	299.54
712.61	298.38
712.95	297.35
713.28	296.36
713.61	295.26
713.95	294.13
714.28	293.17
714.61	292.15
714.95	291.12
715.28	290.14
715.61	289.15
715.95	288.24
716.28	287.29
716.61	286.35
716.95	285.39
717.28	284.48
717.61	283.56
717.94	282.70
718.28	281.70
718.61	280.78
718.94	279.85
719.27	279.02
719.61	278.18
719.94	277.27
720.27	276.33
720.60	275.48
720.94	274.74
721.27	273.96
721.60	273.31
721.93	272.60
722.27	272.04
722.60	271.45
722.93	270.76
723.26	270.13
723.59	269.46
723.93	268.89
724.26	268.28
724.59	267.63
724.92	267.04
725.25	266.48
725.59	265.94
725.92	265.43
726.25	264.90
726.58	264.37
726.91	263.83
727.24	263.32
727.57	262.82
727.91	262.20
728.24	261.67
728.57	261.11
728.90	260.61
729.23	259.97
729.56	259.51
729.89	258.99
730.22	258.42
730.55	257.90
730.89	257.36
731.22	256.85
731.55	256.33
731.88	255.82
732.21	255.32
732.54	254.81
732.87	254.32
733.20	253.85
733.53	253.39
733.86	252.92
734.19	252.49
734.52	252.06
734.85	251.78
735.18	251.32
735.51	250.92
735.84	250.48
736.17	250.07
736.50	249.54
736.83	249.38
737.16	249.03
737.49	248.65
737.82	248.29
738.15	247.91
738.48	247.59
738.81	247.24
739.14	246.84
739.47	246.48
739.80	246.13
740.13	245.78
740.46	245.39
740.79	245.05
741.12	244.67
741.45	244.34
741.78	243.88
742.11	243.60
742.44	243.25
742.77	242.99
743.10	242.69
743.43	242.33
743.75	241.79
744.08	241.70
744.41	241.33
744.74	240.98
745.07	240.63
745.40	240.33
745.73	240.06
746.06	239.76
746.39	239.47
746.71	239.11
747.04	238.77
747.37	238.46
747.70	238.19
748.03	237.93
748.36	237.67
748.68	237.40
749.01	237.05
749.34	236.77
749.67	236.45
750.00	236.19
750.33	236.10
750.65	235.87
750.98	235.37
751.31	235.18
751.64	234.91
751.97	234.80
752.29	234.51
752.62	234.17
752.95	233.93
753.28	233.64
753.60	233.42
753.93	233.26
754.26	233.07
754.59	232.79
754.91	232.51
755.24	232.25
755.57	232.03
755.90	231.85
756.22	231.60
756.55	231.36
756.88	231.14
757.20	230.81
757.53	230.52
757.86	230.34
758.19	230.13
758.51	229.94
758.84	229.61
759.17	229.43
759.49	229.28
759.82	229.21
760.15	229.08
760.47	228.88
760.80	228.61
761.13	228.41
761.45	228.23
761.78	228.10
762.11	227.93
762.43	227.77
762.76	227.58
763.08	227.47
763.41	227.32
763.74	227.19
764.06	227.02
764.39	226.93
764.71	226.77
765.04	226.59
765.37	226.41
765.69	226.27
766.02	226.14
766.34	226.01
766.67	225.79
767.00	225.70
767.32	225.72
767.65	225.72
767.97	225.61
768.30	225.49
768.62	225.33
768.95	225.16
769.27	225.02
769.60	224.94
769.92	224.79
770.25	224.66
770.57	224.49
770.90	224.35
771.22	224.18
771.55	224.07
771.87	223.98
772.20	223.89
772.52	223.99
772.85	224.12
773.17	224.00
773.50	223.88
773.82	223.76
774.15	223.54
774.47	223.34
774.80	223.22
775.12	223.15
775.45	223.06
775.77	222.99
776.09	222.89
776.42	222.84
776.74	222.81
777.07	222.71
777.39	222.62
777.72	222.57
778.04	222.56
778.36	222.47
778.69	222.39
779.01	222.35
779.33	222.08
779.66	221.77
779.98	221.65
780.31	221.62
780.63	221.60
780.95	221.56
781.28	221.48
781.60	221.39
781.92	221.32
782.25	221.26
782.57	221.22
782.89	221.16
783.22	221.04
783.54	220.94
783.86	220.89
784.19	220.84
784.51	220.79
784.83	220.68
785.16	220.62
785.48	220.55
785.80	220.48
786.12	220.43
786.45	220.38
786.77	220.35
787.09	220.27
787.42	220.14
787.74	220.08
788.06	220.05
788.38	220.04
788.71	219.97
789.03	219.94
789.35	219.90
789.67	219.83
789.99	219.82
790.32	219.76
790.64	219.76
790.96	219.88
791.28	219.79
791.61	219.73
791.93	219.68
792.25	219.64
792.57	219.72
792.89	219.64
793.21	219.60
793.54	219.57
793.86	219.51
794.18	219.49
794.50	219.42
794.82	219.39
795.14	219.38
795.47	219.36
795.79	219.30
796.11	219.20
796.43	219.15
796.75	219.11
797.07	219.08
797.39	219.00
797.71	218.83
798.04	218.79
798.36	218.81
798.68	218.78
799.00	218.78
799.32	218.66
799.64	218.70
799.96	218.68
800.28	218.66
800.60	218.63
800.92	218.61
801.24	218.56
801.56	218.54
801.89	218.43
802.21	218.41
802.53	218.34
802.85	218.40
803.17	218.48
803.49	218.40
803.81	218.33
804.13	218.27
804.45	218.21
804.77	218.19
805.09	218.11
805.41	218.06
805.73	217.96
806.05	217.85
806.37	217.78
806.69	217.73
807.01	217.69
807.33	217.67
807.65	217.59
807.97	217.67
808.28	217.58
808.60	217.58
808.92	217.52
809.24	217.63
809.56	217.54
809.88	217.42
810.20	217.43
810.52	217.46
810.84	217.41
811.16	217.34
811.48	217.33
811.80	217.41
812.12	217.37
812.43	217.40
812.75	217.41
813.07	217.38
813.39	217.36
813.71	217.30
814.03	217.24
814.35	217.21
814.67	217.09
814.98	217.07
815.30	217.04
815.62	216.98
815.94	216.81
816.26	216.81
816.58	216.76
816.89	216.73
817.21	216.65
817.53	216.67
817.85	216.67
818.17	216.61
818.48	216.51
818.80	216.50
819.12	216.45
819.44	216.40
819.76	216.34
820.07	216.33
820.39	216.31
820.71	216.34
821.03	216.32
821.34	216.32
821.66	216.34
821.98	216.36
822.30	216.38
822.61	216.49
822.93	216.45
823.25	216.44
823.57	216.42
823.88	216.47
824.20	216.41
824.52	216.45
824.83	216.47
825.15	216.45
825.47	216.45
825.79	216.45
826.10	216.41
826.42	216.41
826.74	216.40
827.05	216.39
827.37	216.33
827.69	216.32
828.00	216.27
828.32	216.27
828.64	216.21
828.95	216.32
829.27	216.26
829.58	216.26
829.90	216.30
830.22	216.30
830.53	216.24
830.85	216.22
831.17	216.16
831.48	216.16
831.80	216.13
832.11	216.10
832.43	216.05
832.75	216.06
833.06	216.18
833.38	216.09
833.69	216.07
834.01	216.08
834.32	216.08
834.64	216.05
834.96	216.00
835.27	216.00
835.59	215.91
835.90	215.87
836.22	215.84
836.53	215.75
836.85	215.70
837.16	215.89
837.48	215.87
837.79	215.92
838.11	215.90
838.42	215.91
838.74	215.94
839.05	215.90
839.37	215.90
839.68	215.75
840.00	215.75
840.31	215.80
840.63	215.80
840.94	215.73
841.26	215.74
841.57	215.78
841.88	215.78
842.20	215.71
842.51	215.70
842.83	215.69
843.14	215.88
843.46	215.90
843.77	215.78
844.08	215.78
844.40	215.72
844.71	215.67
845.03	215.63
845.34	215.63
845.65	215.64
845.97	215.63
846.28	215.64
846.60	215.62
846.91	215.58
847.22	215.56
847.54	215.64
847.85	215.65
848.16	215.62
848.48	215.57
848.79	215.64
849.10	215.65
849.42	215.66
849.73	215.49
850.04	215.47
850.36	215.38
850.67	215.43
850.98	215.43
851.30	215.46
851.61	215.45
851.92	215.41
852.23	215.50
852.55	215.49
852.86	215.49
853.17	215.53
853.49	215.56
853.80	215.62
854.11	215.61
854.42	215.65
854.74	215.59
855.05	215.60
855.36	215.49
855.67	215.51
855.99	215.50
856.30	215.72
856.61	215.70
856.92	215.71
857.23	215.65
857.55	215.64
857.86	215.59
858.17	215.65
858.48	215.62
858.79	215.55
859.11	215.57
859.42	215.59
859.73	215.55
860.04	215.53
860.35	215.45
860.66	215.40
860.98	215.33
861.29	215.40
861.60	215.37
861.91	215.44
862.22	215.38
862.53	215.39
862.84	215.15
863.16	215.22
863.47	215.21
863.78	215.22
864.09	215.25
864.40	215.30
864.71	215.29
865.02	215.30
865.33	215.28
865.64	215.25
865.95	215.23
866.27	215.38
866.58	215.36
866.89	215.39
867.20	215.37
867.51	215.38
867.82	215.36
868.13	215.44
868.44	215.39
868.75	215.42
869.06	215.41
869.37	215.43
869.68	215.35
869.99	215.37
870.30	215.40
870.61	215.43
870.92	215.41
871.23	215.38
871.54	215.43
871.85	215.47
872.16	215.50
872.47	215.47
872.78	215.34
873.09	215.37
873.40	215.36
873.71	215.38
874.02	215.36
874.33	215.35
874.64	215.27
874.95	215.30
875.26	215.27
875.56	215.24
875.87	215.25
876.18	215.23
876.49	215.42
876.80	215.38
877.11	215.32
877.42	215.32
877.73	215.36
878.04	215.32
878.35	215.30
878.66	215.30
878.96	215.29
879.27	215.28
879.58	215.23
879.89	215.19
880.20	215.25
880.51	215.25
880.82	215.22
881.12	215.23
881.43	215.21
881.74	215.19
882.05	215.19
882.36	215.18
882.67	215.20
882.97	214.99
883.28	215.00
883.59	215.00
883.90	215.02
884.21	215.02
884.51	215.00
884.82	214.96
885.13	214.94
885.44	214.97
885.74	214.94
886.05	214.95
886.36	214.97
886.67	214.90
886.98	215.01
887.28	215.04
887.59	215.03
887.90	215.05
888.20	215.04
888.51	215.09
888.82	215.07
889.13	215.10
889.43	215.30
889.74	215.24
890.05	215.21
890.35	215.17
890.66	215.14
890.97	215.13
891.28	215.12
891.58	215.11
891.89	215.10
892.20	215.08
892.50	215.06
892.81	215.05
893.12	215.03
893.42	214.92
893.73	214.90
894.04	214.92
894.34	214.94
894.65	214.96
894.95	214.93
895.26	214.92
895.57	215.02
895.87	214.81
896.18	214.87
896.48	214.90
896.79	214.93
897.10	214.96
897.40	214.97
897.71	215.02
898.01	215.04
898.32	215.05
898.63	215.06
898.93	215.08
899.24	215.09
899.54	215.08
899.85	215.05
900.15	215.07
900.46	215.08
900.76	215.08
901.07	215.07
901.38	215.04
901.68	215.04
901.99	214.91
902.29	214.89
902.60	214.87
902.90	214.86
903.21	214.81
903.51	214.80
903.82	214.84
904.12	214.84
904.43	214.84
904.73	214.82
905.03	214.83
905.34	215.04
905.64	215.02
905.95	215.03
906.25	215.03
906.56	215.05
906.86	215.03
907.17	215.01
907.47	215.04
907.77	215.02
908.08	215.00
908.38	215.05
908.69	215.06
908.99	215.09
909.30	215.09
909.60	215.09
909.90	215.08
910.21	215.01
910.51	214.96
910.81	214.93
911.12	214.95
911.42	214.96
911.73	214.74
912.03	214.75
912.33	214.83
912.64	214.83
912.94	214.78
913.24	214.75
913.55	214.74
913.85	214.69
914.15	214.74
914.46	214.76
914.76	214.69
915.06	214.66
915.37	214.62
915.67	214.61
915.97	214.62
916.27	214.60
916.58	214.64
916.88	214.64
917.18	214.66
917.49	214.81
917.79	214.81
918.09	214.83
918.39	214.91
918.70	214.86
919.00	214.85
919.30	215.00
919.60	215.00
919.91	214.96
920.21	214.99
920.51	214.95
920.81	214.93
921.12	214.96
921.42	214.97
921.72	214.98
922.02	214.99
922.32	215.05
922.63	215.05
922.93	215.08
923.23	215.10
923.53	215.08
923.83	214.92
924.13	214.92
924.44	214.91
924.74	214.92
925.04	214.96
925.34	214.96
925.64	214.85
925.94	214.83
926.24	214.96
926.55	214.93
926.85	214.94
927.15	214.95
927.45	214.98
927.75	214.96
928.05	214.97
928.35	214.94
928.65	214.93
928.95	214.94
929.26	214.92
929.56	214.95
929.86	214.96
930.16	214.96
930.46	214.95
930.76	214.97
931.06	214.87
931.36	214.80
931.66	214.84
931.96	214.85
932.26	214.89
932.56	214.81
932.86	214.82
933.16	214.83
933.46	214.81
933.76	214.80
934.06	214.89
934.36	214.96
934.66	214.99
934.96	214.97
935.26	214.98
935.56	215.00
935.86	214.96
936.16	214.93
936.46	214.89
936.76	214.89
937.06	214.85
937.36	214.85
937.66	214.86
937.96	214.83
938.26	214.81
938.56	214.78
938.86	214.78
939.16	214.84
939.46	214.89
939.76	214.90
940.06	214.89
940.35	214.83
940.65	214.74
940.95	214.75
941.25	214.70
941.55	214.70
941.85	214.69
942.15	214.75
942.45	214.82
942.75	214.84
943.04	214.84
943.34	214.89
943.64	214.85
943.94	214.85
944.24	214.85
944.54	214.81
944.84	214.81
945.13	214.76
945.43	214.71
945.73	214.65
946.03	214.66
946.33	214.64
946.62	214.60
946.92	214.59
947.22	214.56
947.52	214.58
947.82	214.61
948.11	214.55
948.41	214.47
948.71	214.40
949.01	214.45
949.31	214.42
949.60	214.40
949.90	214.49
950.20	214.46
950.50	214.45
950.79	214.48
951.09	214.51
951.39	214.50
951.69	214.52
951.98	214.58
952.28	214.56
952.58	214.53
952.87	214.56
953.17	214.60
953.47	214.59
953.76	214.58
954.06	214.53
954.36	214.51
954.66	214.53
954.95	214.60
955.25	214.57
955.55	214.60
955.84	214.57
956.14	214.58
956.44	214.62
956.73	214.62
957.03	214.63
957.32	214.64
957.62	214.64
957.92	214.66
958.21	214.64
958.51	214.90
958.81	214.95
959.10	214.98
959.40	215.03
959.69	215.05
959.99	215.07
960.29	215.09
960.58	215.09
960.88	215.17
961.17	215.13
961.47	215.14
961.76	215.11
962.06	215.16
962.36	215.14
962.65	215.12
962.95	215.11
963.24	215.09
963.54	215.08
963.83	215.13
964.13	215.12
964.42	215.05
964.72	214.89
965.01	214.89
965.31	214.90
965.60	214.82
965.90	214.98
966.19	214.93
966.49	214.94
966.78	214.95
967.08	214.94
967.37	214.96
967.67	214.93
967.96	215.00
968.26	214.96
968.55	214.97
968.85	214.96
969.14	214.97
969.43	214.96
969.73	214.95
970.02	214.94
970.32	214.93
970.61	214.91
970.91	214.82
971.20	214.79
971.49	214.77
971.79	214.81
972.08	214.62
972.38	214.66
972.67	214.65
972.96	214.67
973.26	214.61
973.55	214.68
973.85	214.67
974.14	214.62
974.43	214.62
974.73	214.58
975.02	214.57
975.31	214.56
975.61	214.57
975.90	214.55
976.19	214.52
976.49	214.56
976.78	214.61
977.07	214.63
977.37	214.63
977.66	214.62
977.95	214.58
978.24	214.59
978.54	214.62
978.83	214.61
979.12	214.61
979.42	214.63
979.71	214.57
980.00	214.61
980.29	214.63
980.59	214.61
980.88	214.67
981.17	214.66
981.46	214.68
981.76	214.66
982.05	214.71
982.34	214.74
982.63	214.73
982.93	214.72
983.22	214.74
983.51	214.74
983.80	214.78
984.09	214.82
984.39	214.82
984.68	214.79
984.97	214.80
985.26	214.75
985.55	214.77
985.85	214.72
986.14	214.72
986.43	214.74
986.72	214.71
987.01	214.64
987.30	214.66
987.59	214.63
987.89	214.67
988.18	214.61
988.47	214.56
988.76	214.53
989.05	214.49
989.34	214.46
989.63	214.49
989.92	214.43
990.22	214.39
990.51	214.36
990.80	214.33
991.09	214.32
991.38	214.35
991.67	214.29
991.96	214.29
992.25	214.31
992.54	214.26
992.83	214.27
993.12	214.27
993.41	214.30
993.70	214.36
993.99	214.37
994.28	214.42
994.58	214.47
994.87	214.45
995.16	214.45
995.45	214.46
995.74	214.41
996.03	214.44
996.32	214.49
996.61	214.56
996.90	214.56
997.19	214.56
997.48	214.56
997.77	214.57
998.06	214.55
998.34	214.53
998.63	214.52
998.92	214.51
999.21	214.53
999.50	214.48
999.79	214.42
1000.08	214.42
1000.37	214.39
1000.66	214.33
1000.95	214.40
1001.24	214.42
1001.53	214.45
1001.82	214.43
1002.11	214.41
1002.40	214.45
1002.68	214.49
1002.97	214.68
1003.26	214.69
1003.55	214.65
1003.84	214.68
1004.13	214.76
1004.42	214.75
1004.71	214.72
1004.99	214.69
1005.28	214.75
1005.57	214.79
1005.86	214.79
1006.15	214.76
1006.44	214.73
1006.72	214.78
1007.01	214.75
1007.30	214.75
1007.59	214.71
1007.88	214.71
1008.17	214.70
1008.45	214.66
1008.74	214.59
1009.03	214.45
1009.32	214.44
1009.60	214.45
1009.89	214.43
1010.18	214.35
1010.47	214.34
1010.76	214.41
1011.04	214.46
1011.33	214.48
1011.62	214.47
1011.91	214.48
1012.19	214.50
1012.48	214.54
1012.77	214.53
1013.05	214.62
1013.34	214.60
1013.63	214.59
1013.92	214.64
1014.20	214.64
1014.49	214.61
1014.78	214.62
1015.06	214.56
1015.35	214.56
1015.64	214.62
1015.92	214.65
1016.21	214.65
1016.50	214.69
1016.78	214.69
1017.07	214.74
1017.36	214.70
1017.64	214.69
1017.93	214.71
1018.22	214.69
1018.50	214.66
1018.79	214.64
1019.08	214.51
1019.36	214.55
1019.65	214.54
1019.93	214.56
1020.22	214.58
1020.51	214.69
1020.79	214.65
1021.08	214.00
1021.36	214.15
1021.65	214.26
1021.94	213.82
1022.22	214.81
1022.51	213.80
1022.79	215.53
1023.08	214.32
1023.36	216.92
1023.65	213.80
>>>>>End Processed Spectral Data<<<<<
