SpectraSuite Data File
++++++++++++++++++++++++++++++++++++
Date: Tue Jan 29 15:55:57 EST 2013
User: group
Dark Spectrum Present: No
Reference Spectrum Present: No
Number of Sampled Component Spectra: 1
Spectrometers: USB2E7196
Integration Time (usec): 65000 (USB2E7196)
Spectra Averaged: 100 (USB2E7196)
Boxcar Smoothing: 10 (USB2E7196)
Correct for Electrical Dark: No (USB2E7196)
Strobe/Lamp Enabled: No (USB2E7196)
Correct for Detector Non-linearity: No (USB2E7196)
Correct for Stray Light: No (USB2E7196)
Number of Pixels in Processed Spectrum: 2048
>>>>>Begin Processed Spectral Data<<<<<
339.09	0.00
339.48	202.62
339.86	203.59
340.24	205.68
340.63	207.29
341.01	212.02
341.39	209.57
341.78	211.43
342.16	212.44
342.54	212.89
342.93	202.00
343.31	212.21
343.69	212.79
344.07	213.28
344.46	213.71
344.84	214.14
345.22	214.27
345.60	214.58
345.99	214.79
346.37	214.94
346.75	215.07
347.13	215.16
347.52	215.26
347.90	215.39
348.28	215.43
348.66	215.49
349.05	215.48
349.43	215.54
349.81	215.59
350.19	215.68
350.57	215.73
350.96	215.79
351.34	215.89
351.72	215.99
352.10	216.12
352.48	216.18
352.87	216.21
353.25	216.30
353.63	216.35
354.01	216.38
354.39	216.48
354.77	216.53
355.15	216.65
355.54	216.69
355.92	216.69
356.30	216.78
356.68	217.01
357.06	217.08
357.44	217.11
357.82	217.18
358.20	217.25
358.58	217.30
358.97	217.38
359.35	217.48
359.73	217.57
360.11	217.59
360.49	217.67
360.87	217.72
361.25	217.80
361.63	217.93
362.01	218.00
362.39	218.01
362.77	218.10
363.15	218.11
363.53	218.15
363.91	218.20
364.29	218.20
364.67	218.03
365.05	218.05
365.43	218.10
365.81	218.20
366.19	218.28
366.57	218.39
366.95	218.41
367.33	218.38
367.71	218.36
368.09	218.42
368.47	218.40
368.85	218.38
369.23	218.42
369.61	218.32
369.99	218.38
370.37	218.42
370.75	218.48
371.13	218.42
371.51	218.39
371.89	218.39
372.27	218.41
372.65	218.44
373.03	218.45
373.41	218.40
373.78	218.32
374.16	218.19
374.54	218.08
374.92	218.03
375.30	217.98
375.68	217.90
376.06	217.86
376.44	217.81
376.82	217.80
377.19	217.70
377.57	217.65
377.95	217.53
378.33	217.45
378.71	217.27
379.09	217.26
379.47	217.24
379.84	217.15
380.22	217.08
380.60	216.97
380.98	216.87
381.36	216.85
381.73	216.78
382.11	216.77
382.49	216.75
382.87	216.65
383.25	216.64
383.62	216.84
384.00	216.76
384.38	216.76
384.76	216.75
385.13	216.82
385.51	216.80
385.89	216.75
386.27	216.72
386.64	216.74
387.02	216.67
387.40	216.61
387.78	216.62
388.15	216.58
388.53	216.56
388.91	216.58
389.29	216.53
389.66	216.53
390.04	216.49
390.42	216.46
390.79	216.50
391.17	216.50
391.55	216.26
391.92	216.25
392.30	216.25
392.68	216.18
393.05	216.17
393.43	216.17
393.81	216.18
394.18	216.16
394.56	216.16
394.94	216.21
395.31	216.24
395.69	216.31
396.06	216.34
396.44	216.36
396.82	216.33
397.19	216.48
397.57	216.50
397.95	216.55
398.32	216.53
398.70	216.56
399.07	216.62
399.45	216.64
399.82	216.72
400.20	216.71
400.58	216.79
400.95	216.74
401.33	216.83
401.70	217.03
402.08	217.12
402.45	217.22
402.83	217.35
403.20	217.44
403.58	217.49
403.95	217.67
404.33	217.82
404.71	218.00
405.08	218.22
405.46	218.37
405.83	218.56
406.21	218.77
406.58	218.98
406.96	219.20
407.33	219.45
407.70	219.71
408.08	220.15
408.45	220.51
408.83	220.93
409.20	221.26
409.58	221.48
409.95	221.94
410.33	222.40
410.70	222.81
411.08	223.36
411.45	223.93
411.82	224.42
412.20	225.07
412.57	225.83
412.95	226.39
413.32	227.18
413.69	227.96
414.07	228.83
414.44	229.79
414.82	230.75
415.19	231.91
415.56	233.06
415.94	234.20
416.31	235.50
416.68	236.80
417.06	238.31
417.43	239.88
417.81	241.49
418.18	243.18
418.55	245.03
418.93	246.93
419.30	248.92
419.67	251.09
420.04	253.29
420.42	255.57
420.79	258.25
421.16	260.93
421.54	263.73
421.91	266.56
422.28	269.52
422.66	272.70
423.03	275.84
423.40	279.08
423.77	282.52
424.15	286.04
424.52	289.70
424.89	293.75
425.26	297.61
425.64	301.34
426.01	305.45
426.38	309.74
426.75	314.12
427.13	318.64
427.50	323.44
427.87	328.39
428.24	333.41
428.61	338.20
428.99	343.52
429.36	349.28
429.73	354.99
430.10	360.62
430.47	366.46
430.85	372.46
431.22	378.89
431.59	385.71
431.96	392.27
432.33	399.47
432.70	406.42
433.08	414.61
433.45	422.35
433.82	430.03
434.19	438.59
434.56	446.88
434.93	454.85
435.30	462.77
435.68	471.51
436.05	480.09
436.42	488.60
436.79	496.38
437.16	504.79
437.53	513.68
437.90	522.42
438.27	530.99
438.64	539.85
439.01	548.02
439.38	555.31
439.75	562.29
440.13	570.41
440.50	577.98
440.87	584.19
441.24	590.51
441.61	597.54
441.98	602.63
442.35	608.69
442.72	614.83
443.09	620.57
443.46	624.18
443.83	626.56
444.20	628.71
444.57	631.70
444.94	633.09
445.31	634.47
445.68	635.79
446.05	636.34
446.42	635.58
446.79	634.66
447.16	633.56
447.53	632.89
447.90	629.64
448.27	626.45
448.64	621.91
449.01	618.74
449.37	613.04
449.74	607.65
450.11	601.08
450.48	593.96
450.85	586.76
451.22	580.50
451.59	574.62
451.96	568.99
452.33	561.45
452.70	554.61
453.07	546.47
453.43	538.28
453.80	530.35
454.17	522.67
454.54	515.39
454.91	507.60
455.28	499.96
455.65	492.89
456.02	485.83
456.38	479.84
456.75	472.39
457.12	466.14
457.49	459.91
457.86	454.01
458.23	448.85
458.59	443.31
458.96	437.60
459.33	432.54
459.70	427.44
460.07	423.40
460.43	418.72
460.80	414.34
461.17	410.50
461.54	406.49
461.91	402.68
462.27	398.75
462.64	395.47
463.01	391.86
463.38	388.31
463.74	384.71
464.11	381.54
464.48	378.80
464.85	375.86
465.21	373.51
465.58	370.97
465.95	367.99
466.32	365.50
466.68	363.05
467.05	360.66
467.42	358.24
467.78	355.71
468.15	353.30
468.52	351.49
468.88	349.13
469.25	347.05
469.62	345.34
469.98	343.54
470.35	341.84
470.72	340.24
471.08	338.57
471.45	337.18
471.82	335.78
472.18	334.18
472.55	333.05
472.92	331.77
473.28	330.65
473.65	329.55
474.02	328.47
474.38	327.65
474.75	326.91
475.11	326.17
475.48	325.65
475.85	325.21
476.21	324.76
476.58	324.45
476.94	324.24
477.31	323.98
477.67	323.74
478.04	323.61
478.41	323.57
478.77	323.75
479.14	323.73
479.50	323.90
479.87	324.25
480.23	324.58
480.60	324.86
480.96	325.12
481.33	325.79
481.69	326.41
482.06	326.94
482.42	327.45
482.79	328.03
483.15	328.77
483.52	329.73
483.88	330.66
484.25	331.59
484.61	332.60
484.98	333.64
485.34	335.01
485.71	336.38
486.07	337.80
486.44	339.13
486.80	340.74
487.17	342.39
487.53	344.18
487.90	346.00
488.26	348.01
488.62	350.19
488.99	352.21
489.35	354.37
489.72	356.79
490.08	359.31
490.44	361.85
490.81	364.60
491.17	367.27
491.54	370.20
491.90	373.25
492.26	376.50
492.63	379.96
492.99	383.39
493.36	387.09
493.72	391.00
494.08	394.98
494.45	399.20
494.81	403.55
495.17	408.01
495.54	412.77
495.90	417.56
496.26	422.50
496.63	427.70
496.99	433.06
497.35	438.57
497.72	444.36
498.08	450.27
498.44	456.32
498.80	462.71
499.17	469.23
499.53	475.91
499.89	482.72
500.26	489.65
500.62	496.71
500.98	504.08
501.34	511.43
501.71	519.21
502.07	526.99
502.43	534.97
502.79	543.08
503.16	551.41
503.52	559.95
503.88	568.60
504.24	577.46
504.60	586.45
504.97	595.66
505.33	604.88
505.69	614.77
506.05	624.62
506.41	634.40
506.78	644.36
507.14	654.58
507.50	665.01
507.86	675.72
508.22	686.49
508.59	697.08
508.95	708.13
509.31	719.24
509.67	730.65
510.03	742.09
510.39	753.79
510.75	765.60
511.12	777.48
511.48	789.52
511.84	801.62
512.20	813.84
512.56	826.40
512.92	839.10
513.28	851.55
513.64	864.25
514.00	877.04
514.37	889.91
514.73	902.84
515.09	915.70
515.45	928.34
515.81	941.12
516.17	954.26
516.53	967.26
516.89	980.19
517.25	993.19
517.61	1006.43
517.97	1019.59
518.33	1032.47
518.69	1045.72
519.05	1059.27
519.41	1072.89
519.77	1086.68
520.13	1099.75
520.49	1112.65
520.85	1125.86
521.21	1138.89
521.57	1152.26
521.93	1165.09
522.29	1178.68
522.65	1192.12
523.01	1205.58
523.37	1218.58
523.73	1231.65
524.09	1244.49
524.45	1257.69
524.81	1270.83
525.17	1283.98
525.53	1296.90
525.89	1309.89
526.25	1322.75
526.61	1335.14
526.97	1347.85
527.33	1360.34
527.68	1373.42
528.04	1386.54
528.40	1399.34
528.76	1412.34
529.12	1424.97
529.48	1437.95
529.84	1449.68
530.20	1461.89
530.56	1474.05
530.91	1487.08
531.27	1499.55
531.63	1512.14
531.99	1524.61
532.35	1536.48
532.71	1548.34
533.07	1560.73
533.42	1572.59
533.78	1584.32
534.14	1596.08
534.50	1606.82
534.86	1618.09
535.21	1628.65
535.57	1639.87
535.93	1650.82
536.29	1661.51
536.65	1672.49
537.00	1683.04
537.36	1694.09
537.72	1704.79
538.08	1715.72
538.44	1726.04
538.79	1736.75
539.15	1747.06
539.51	1757.35
539.87	1768.19
540.22	1778.66
540.58	1789.33
540.94	1799.83
541.29	1809.72
541.65	1819.16
542.01	1829.44
542.37	1839.06
542.72	1849.00
543.08	1858.38
543.44	1868.38
543.79	1877.39
544.15	1886.50
544.51	1896.16
544.87	1905.71
545.22	1914.53
545.58	1923.14
545.94	1931.71
546.29	1939.95
546.65	1948.14
547.01	1955.90
547.36	1963.32
547.72	1970.67
548.07	1977.79
548.43	1985.26
548.79	1992.75
549.14	2000.56
549.50	2008.64
549.86	2016.22
550.21	2023.19
550.57	2030.54
550.92	2037.09
551.28	2044.22
551.64	2051.22
551.99	2058.44
552.35	2065.40
552.70	2071.91
553.06	2078.30
553.41	2084.40
553.77	2090.61
554.13	2096.73
554.48	2103.74
554.84	2110.67
555.19	2117.09
555.55	2123.45
555.90	2129.66
556.26	2136.35
556.61	2142.11
556.97	2146.82
557.32	2152.62
557.68	2158.90
558.03	2164.50
558.39	2169.55
558.74	2175.52
559.10	2180.94
559.45	2186.38
559.81	2191.77
560.16	2197.41
560.52	2203.23
560.87	2209.57
561.23	2215.63
561.58	2222.23
561.94	2227.19
562.29	2231.96
562.64	2238.19
563.00	2243.85
563.35	2249.51
563.71	2255.37
564.06	2261.13
564.42	2267.13
564.77	2272.17
565.12	2277.31
565.48	2282.56
565.83	2288.17
566.19	2293.59
566.54	2299.16
566.89	2303.82
567.25	2308.52
567.60	2314.33
567.96	2319.55
568.31	2323.98
568.66	2328.14
569.02	2332.10
569.37	2336.02
569.72	2340.58
570.08	2343.96
570.43	2347.18
570.78	2350.19
571.14	2352.69
571.49	2355.81
571.84	2359.59
572.20	2362.58
572.55	2365.77
572.90	2368.09
573.26	2371.19
573.61	2373.88
573.96	2376.21
574.31	2378.30
574.67	2380.24
575.02	2381.15
575.37	2382.73
575.72	2383.95
576.08	2385.55
576.43	2385.88
576.78	2386.70
577.13	2388.53
577.49	2390.03
577.84	2391.32
578.19	2392.92
578.54	2393.92
578.90	2395.22
579.25	2395.23
579.60	2395.60
579.95	2395.20
580.30	2395.73
580.66	2395.20
581.01	2393.73
581.36	2391.81
581.71	2390.89
582.06	2390.18
582.42	2389.54
582.77	2387.68
583.12	2386.25
583.47	2385.34
583.82	2385.08
584.17	2384.15
584.53	2382.28
584.88	2380.51
585.23	2378.86
585.58	2376.94
585.93	2375.13
586.28	2373.06
586.63	2370.87
586.98	2368.88
587.34	2367.35
587.69	2365.20
588.04	2363.60
588.39	2362.42
588.74	2360.10
589.09	2357.70
589.44	2354.84
589.79	2352.85
590.14	2351.33
590.49	2348.80
590.84	2345.26
591.19	2342.57
591.54	2339.52
591.89	2335.65
592.25	2332.56
592.60	2328.62
592.95	2324.67
593.30	2320.74
593.65	2316.64
594.00	2312.55
594.35	2309.67
594.70	2305.11
595.05	2300.76
595.40	2295.38
595.75	2290.04
596.10	2286.66
596.45	2282.06
596.80	2277.64
597.15	2272.49
597.50	2266.59
597.85	2261.72
598.19	2256.55
598.54	2250.86
598.89	2245.82
599.24	2241.31
599.59	2235.39
599.94	2229.82
600.29	2223.97
600.64	2218.22
600.99	2211.71
601.34	2206.33
601.69	2199.43
602.04	2193.19
602.39	2186.76
602.74	2180.77
603.08	2175.29
603.43	2168.71
603.78	2161.94
604.13	2154.81
604.48	2147.70
604.83	2141.78
605.18	2135.75
605.53	2129.00
605.87	2122.01
606.22	2115.31
606.57	2107.71
606.92	2099.79
607.27	2092.98
607.62	2086.60
607.96	2079.61
608.31	2073.12
608.66	2065.46
609.01	2057.96
609.36	2050.96
609.70	2043.30
610.05	2035.77
610.40	2027.51
610.75	2019.43
611.10	2011.86
611.44	2003.32
611.79	1994.51
612.14	1984.51
612.49	1973.86
612.83	1964.65
613.18	1955.56
613.53	1946.33
613.88	1936.78
614.22	1928.33
614.57	1918.47
614.92	1907.98
615.27	1897.96
615.61	1887.94
615.96	1878.30
616.31	1868.83
616.65	1859.37
617.00	1849.40
617.35	1839.66
617.70	1829.93
618.04	1819.68
618.39	1809.37
618.74	1799.68
619.08	1790.28
619.43	1781.74
619.78	1773.58
620.12	1765.00
620.47	1755.26
620.82	1745.00
621.16	1735.26
621.51	1725.32
621.85	1715.37
622.20	1704.85
622.55	1694.28
622.89	1684.48
623.24	1674.74
623.59	1664.99
623.93	1654.95
624.28	1645.40
624.62	1635.15
624.97	1624.83
625.32	1615.25
625.66	1606.42
626.01	1597.60
626.35	1588.07
626.70	1577.86
627.04	1567.71
627.39	1557.56
627.73	1548.26
628.08	1539.20
628.43	1529.61
628.77	1520.43
629.12	1511.47
629.46	1503.64
629.81	1495.20
630.15	1485.57
630.50	1475.63
630.84	1464.98
631.19	1455.01
631.53	1445.55
631.88	1435.49
632.22	1425.52
632.57	1416.11
632.91	1405.83
633.26	1395.89
633.60	1386.28
633.95	1376.98
634.29	1367.62
634.64	1358.33
634.98	1348.45
635.32	1339.15
635.67	1330.47
636.01	1321.07
636.36	1311.43
636.70	1301.86
637.05	1292.53
637.39	1283.54
637.73	1275.08
638.08	1267.58
638.42	1259.34
638.77	1250.55
639.11	1242.37
639.45	1234.48
639.80	1225.76
640.14	1217.15
640.49	1208.33
640.83	1199.59
641.17	1191.43
641.52	1183.14
641.86	1174.33
642.20	1166.47
642.55	1157.71
642.89	1148.86
643.23	1140.23
643.58	1132.08
643.92	1123.01
644.26	1114.25
644.61	1105.78
644.95	1096.89
645.29	1087.53
645.64	1078.35
645.98	1069.89
646.32	1061.91
646.66	1053.45
647.01	1045.08
647.35	1036.90
647.69	1028.53
648.04	1020.17
648.38	1011.23
648.72	1002.52
649.06	994.16
649.41	985.86
649.75	978.01
650.09	970.11
650.43	962.07
650.78	953.81
651.12	946.18
651.46	938.76
651.80	931.48
652.14	924.20
652.49	916.78
652.83	909.52
653.17	901.83
653.51	894.24
653.85	887.09
654.20	879.94
654.54	872.46
654.88	865.30
655.22	858.15
655.56	851.24
655.90	844.48
656.25	837.91
656.59	831.09
656.93	824.13
657.27	817.14
657.61	810.30
657.95	804.28
658.29	798.37
658.64	792.34
658.98	786.02
659.32	779.48
659.66	773.31
660.00	767.01
660.34	761.09
660.68	755.06
661.02	748.72
661.36	742.92
661.70	737.24
662.05	731.64
662.39	726.22
662.73	720.92
663.07	715.58
663.41	710.00
663.75	704.37
664.09	698.77
664.43	693.46
664.77	688.19
665.11	682.39
665.45	676.61
665.79	670.84
666.13	665.15
666.47	659.88
666.81	654.45
667.15	649.12
667.49	643.94
667.83	638.75
668.17	633.59
668.51	628.51
668.85	623.65
669.19	618.78
669.53	613.84
669.87	608.81
670.21	604.10
670.55	599.48
670.89	595.13
671.23	590.90
671.57	586.54
671.91	582.26
672.25	578.25
672.58	574.14
672.92	570.10
673.26	566.25
673.60	562.34
673.94	558.65
674.28	555.06
674.62	551.34
674.96	547.69
675.30	544.25
675.64	540.61
675.97	537.04
676.31	533.52
676.65	530.00
676.99	526.64
677.33	522.88
677.67	519.33
678.01	515.54
678.34	511.92
678.68	508.42
679.02	504.85
679.36	501.13
679.70	497.56
680.04	494.16
680.37	490.84
680.71	487.62
681.05	484.46
681.39	481.33
681.73	478.23
682.06	475.19
682.40	472.15
682.74	469.00
683.08	465.85
683.42	462.74
683.75	459.79
684.09	456.85
684.43	454.11
684.77	451.21
685.10	448.45
685.44	445.58
685.78	442.74
686.12	440.07
686.45	437.44
686.79	434.83
687.13	432.33
687.46	429.74
687.80	427.12
688.14	424.40
688.48	421.86
688.81	419.30
689.15	416.87
689.49	414.31
689.82	411.90
690.16	409.43
690.50	407.03
690.83	404.64
691.17	402.09
691.51	399.72
691.84	397.49
692.18	395.33
692.52	393.23
692.85	391.14
693.19	389.04
693.52	386.90
693.86	384.78
694.20	382.64
694.53	380.52
694.87	378.38
695.21	376.31
695.54	374.23
695.88	372.13
696.21	369.93
696.55	367.84
696.88	365.79
697.22	363.87
697.56	362.03
697.89	360.17
698.23	358.54
698.56	356.82
698.90	355.15
699.23	353.28
699.57	351.42
699.90	349.64
700.24	347.93
700.58	346.26
700.91	344.69
701.25	343.16
701.58	341.65
701.92	340.12
702.25	338.58
702.59	336.98
702.92	335.51
703.26	334.07
703.59	332.69
703.93	331.53
704.26	330.18
704.60	328.68
704.93	327.22
705.26	325.71
705.60	324.28
705.93	322.82
706.27	321.55
706.60	320.35
706.94	319.16
707.27	317.78
707.61	316.47
707.94	315.12
708.27	313.66
708.61	312.20
708.94	310.84
709.28	309.61
709.61	308.38
709.94	307.23
710.28	306.03
710.61	304.84
710.95	303.41
711.28	302.32
711.61	301.22
711.95	300.17
712.28	299.05
712.61	297.91
712.95	296.86
713.28	295.87
713.61	294.76
713.95	293.64
714.28	292.68
714.61	291.66
714.95	290.63
715.28	289.69
715.61	288.75
715.95	287.83
716.28	286.85
716.61	285.97
716.95	284.97
717.28	284.06
717.61	283.16
717.94	282.35
718.28	281.33
718.61	280.49
718.94	279.60
719.27	278.78
719.61	278.01
719.94	277.15
720.27	276.20
720.60	275.42
720.94	274.66
721.27	273.91
721.60	273.27
721.93	272.67
722.27	272.05
722.60	271.41
722.93	270.75
723.26	270.15
723.59	269.48
723.93	268.87
724.26	268.22
724.59	267.60
724.92	267.02
725.25	266.56
725.59	266.03
725.92	265.57
726.25	264.99
726.58	264.42
726.91	263.89
727.24	263.39
727.57	262.83
727.91	262.25
728.24	261.73
728.57	261.10
728.90	260.52
729.23	259.89
729.56	259.49
729.89	259.00
730.22	258.46
730.55	257.90
730.89	257.41
731.22	256.93
731.55	256.43
731.88	255.93
732.21	255.40
732.54	254.88
732.87	254.34
733.20	253.87
733.53	253.41
733.86	252.95
734.19	252.49
734.52	252.07
734.85	251.81
735.18	251.36
735.51	251.06
735.84	250.65
736.17	250.28
736.50	249.77
736.83	249.60
737.16	249.20
737.49	248.86
737.82	248.44
738.15	248.12
738.48	247.77
738.81	247.41
739.14	247.00
739.47	246.63
739.80	246.30
740.13	245.99
740.46	245.62
740.79	245.25
741.12	244.91
741.45	244.60
741.78	244.19
742.11	243.97
742.44	243.59
742.77	243.31
743.10	243.01
743.43	242.66
743.75	242.12
744.08	242.05
744.41	241.71
744.74	241.40
745.07	241.02
745.40	240.71
745.73	240.46
746.06	240.14
746.39	239.84
746.71	239.49
747.04	239.12
747.37	238.83
747.70	238.57
748.03	238.30
748.36	238.00
748.68	237.69
749.01	237.31
749.34	237.01
749.67	236.72
750.00	236.48
750.33	236.37
750.65	236.11
750.98	235.61
751.31	235.38
751.64	235.19
751.97	235.05
752.29	234.79
752.62	234.47
752.95	234.21
753.28	233.96
753.60	233.74
753.93	233.58
754.26	233.34
754.59	233.07
754.91	232.84
755.24	232.60
755.57	232.39
755.90	232.18
756.22	231.96
756.55	231.72
756.88	231.48
757.20	231.12
757.53	230.90
757.86	230.73
758.19	230.56
758.51	230.34
758.84	230.09
759.17	229.92
759.49	229.79
759.82	229.75
760.15	229.62
760.47	229.43
760.80	229.22
761.13	229.10
761.45	228.93
761.78	228.73
762.11	228.58
762.43	228.40
762.76	228.23
763.08	228.08
763.41	227.96
763.74	227.81
764.06	227.68
764.39	227.54
764.71	227.36
765.04	227.17
765.37	227.02
765.69	226.85
766.02	226.70
766.34	226.56
766.67	226.34
767.00	226.24
767.32	226.25
767.65	226.24
767.97	226.10
768.30	225.99
768.62	225.90
768.95	225.75
769.27	225.62
769.60	225.57
769.92	225.42
770.25	225.25
770.57	225.11
770.90	224.99
771.22	224.83
771.55	224.73
771.87	224.62
772.20	224.51
772.52	224.59
772.85	224.76
773.17	224.61
773.50	224.48
773.82	224.34
774.15	224.16
774.47	223.94
774.80	223.83
775.12	223.75
775.45	223.65
775.77	223.58
776.09	223.51
776.42	223.37
776.74	223.37
777.07	223.27
777.39	223.20
777.72	223.11
778.04	223.06
778.36	222.99
778.69	222.92
779.01	222.83
779.33	222.55
779.66	222.19
779.98	222.11
780.31	222.06
780.63	222.08
780.95	222.00
781.28	221.93
781.60	221.86
781.92	221.78
782.25	221.71
782.57	221.67
782.89	221.58
783.22	221.52
783.54	221.41
783.86	221.37
784.19	221.29
784.51	221.28
784.83	221.18
785.16	221.11
785.48	221.08
785.80	221.01
786.12	220.98
786.45	220.94
786.77	220.90
787.09	220.84
787.42	220.69
787.74	220.66
788.06	220.63
788.38	220.54
788.71	220.46
789.03	220.39
789.35	220.36
789.67	220.27
789.99	220.21
790.32	220.12
790.64	220.10
790.96	220.25
791.28	220.13
791.61	220.09
791.93	220.05
792.25	219.96
792.57	220.11
792.89	220.02
793.21	219.98
793.54	219.90
793.86	219.82
794.18	219.79
794.50	219.73
794.82	219.67
795.14	219.67
795.47	219.67
795.79	219.62
796.11	219.51
796.43	219.49
796.75	219.45
797.07	219.44
797.39	219.39
797.71	219.22
798.04	219.17
798.36	219.16
798.68	219.13
799.00	219.14
799.32	218.96
799.64	218.99
799.96	218.96
800.28	218.99
800.60	218.96
800.92	218.94
801.24	218.87
801.56	218.89
801.89	218.83
802.21	218.81
802.53	218.78
802.85	218.78
803.17	218.81
803.49	218.77
803.81	218.71
804.13	218.67
804.45	218.59
804.77	218.60
805.09	218.57
805.41	218.50
805.73	218.42
806.05	218.36
806.37	218.30
806.69	218.24
807.01	218.18
807.33	218.16
807.65	218.07
807.97	218.16
808.28	218.07
808.60	218.08
808.92	218.00
809.24	218.09
809.56	218.03
809.88	217.95
810.20	217.92
810.52	217.95
810.84	217.89
811.16	217.85
811.48	217.81
811.80	217.81
812.12	217.82
812.43	217.84
812.75	217.83
813.07	217.79
813.39	217.81
813.71	217.75
814.03	217.73
814.35	217.73
814.67	217.59
814.98	217.56
815.30	217.51
815.62	217.47
815.94	217.30
816.26	217.30
816.58	217.26
816.89	217.26
817.21	217.20
817.53	217.22
817.85	217.20
818.17	217.16
818.48	217.07
818.80	217.07
819.12	217.02
819.44	216.97
819.76	216.93
820.07	216.88
820.39	216.89
820.71	216.92
821.03	216.89
821.34	216.87
821.66	216.89
821.98	216.89
822.30	216.88
822.61	216.99
822.93	216.97
823.25	216.94
823.57	216.93
823.88	216.96
824.20	216.93
824.52	216.95
824.83	216.95
825.15	216.93
825.47	216.90
825.79	216.90
826.10	216.84
826.42	216.85
826.74	216.88
827.05	216.85
827.37	216.78
827.69	216.75
828.00	216.74
828.32	216.72
828.64	216.72
828.95	216.82
829.27	216.77
829.58	216.74
829.90	216.76
830.22	216.74
830.53	216.66
830.85	216.64
831.17	216.58
831.48	216.56
831.80	216.54
832.11	216.51
832.43	216.49
832.75	216.53
833.06	216.64
833.38	216.57
833.69	216.57
834.01	216.60
834.32	216.59
834.64	216.55
834.96	216.54
835.27	216.49
835.59	216.41
835.90	216.37
836.22	216.38
836.53	216.34
836.85	216.29
837.16	216.48
837.48	216.44
837.79	216.47
838.11	216.49
838.42	216.51
838.74	216.53
839.05	216.48
839.37	216.46
839.68	216.29
840.00	216.29
840.31	216.29
840.63	216.26
840.94	216.23
841.26	216.22
841.57	216.22
841.88	216.23
842.20	216.20
842.51	216.15
842.83	216.14
843.14	216.32
843.46	216.34
843.77	216.23
844.08	216.25
844.40	216.21
844.71	216.20
845.03	216.16
845.34	216.14
845.65	216.14
845.97	216.12
846.28	216.12
846.60	216.13
846.91	216.09
847.22	216.09
847.54	216.16
847.85	216.18
848.16	216.16
848.48	216.13
848.79	216.20
849.10	216.24
849.42	216.21
849.73	216.02
850.04	216.01
850.36	215.93
850.67	215.93
850.98	215.93
851.30	215.93
851.61	215.92
851.92	215.94
852.23	216.01
852.55	216.03
852.86	216.06
853.17	216.06
853.49	216.15
853.80	216.18
854.11	216.15
854.42	216.18
854.74	216.14
855.05	216.15
855.36	216.03
855.67	216.02
855.99	216.06
856.30	216.31
856.61	216.30
856.92	216.28
857.23	216.28
857.55	216.28
857.86	216.26
858.17	216.28
858.48	216.22
858.79	216.18
859.11	216.16
859.42	216.13
859.73	216.12
860.04	216.05
860.35	215.98
860.66	215.93
860.98	215.93
861.29	215.96
861.60	215.94
861.91	216.01
862.22	215.99
862.53	215.92
862.84	215.66
863.16	215.72
863.47	215.70
863.78	215.67
864.09	215.67
864.40	215.69
864.71	215.72
865.02	215.72
865.33	215.69
865.64	215.66
865.95	215.67
866.27	215.79
866.58	215.77
866.89	215.80
867.20	215.77
867.51	215.69
867.82	215.67
868.13	215.70
868.44	215.64
868.75	215.64
869.06	215.67
869.37	215.69
869.68	215.60
869.99	215.65
870.30	215.66
870.61	215.68
870.92	215.61
871.23	215.57
871.54	215.60
871.85	215.64
872.16	215.70
872.47	215.70
872.78	215.57
873.09	215.57
873.40	215.55
873.71	215.59
874.02	215.63
874.33	215.60
874.64	215.57
874.95	215.60
875.26	215.55
875.56	215.53
875.87	215.54
876.18	215.57
876.49	215.74
876.80	215.73
877.11	215.68
877.42	215.68
877.73	215.69
878.04	215.68
878.35	215.66
878.66	215.66
878.96	215.60
879.27	215.56
879.58	215.57
879.89	215.54
880.20	215.58
880.51	215.55
880.82	215.55
881.12	215.56
881.43	215.50
881.74	215.51
882.05	215.50
882.36	215.51
882.67	215.54
882.97	215.34
883.28	215.30
883.59	215.33
883.90	215.37
884.21	215.38
884.51	215.35
884.82	215.37
885.13	215.33
885.44	215.38
885.74	215.37
886.05	215.36
886.36	215.38
886.67	215.30
886.98	215.42
887.28	215.45
887.59	215.49
887.90	215.52
888.20	215.52
888.51	215.56
888.82	215.50
889.13	215.49
889.43	215.64
889.74	215.63
890.05	215.60
890.35	215.55
890.66	215.52
890.97	215.51
891.28	215.45
891.58	215.45
891.89	215.45
892.20	215.46
892.50	215.45
892.81	215.46
893.12	215.45
893.42	215.33
893.73	215.33
894.04	215.31
894.34	215.32
894.65	215.32
894.95	215.28
895.26	215.31
895.57	215.40
895.87	215.20
896.18	215.26
896.48	215.28
896.79	215.29
897.10	215.34
897.40	215.36
897.71	215.41
898.01	215.43
898.32	215.44
898.63	215.42
898.93	215.43
899.24	215.45
899.54	215.48
899.85	215.50
900.15	215.49
900.46	215.44
900.76	215.46
901.07	215.45
901.38	215.49
901.68	215.52
901.99	215.42
902.29	215.44
902.60	215.42
902.90	215.40
903.21	215.43
903.51	215.41
903.82	215.45
904.12	215.43
904.43	215.44
904.73	215.42
905.03	215.45
905.34	215.65
905.64	215.60
905.95	215.59
906.25	215.59
906.56	215.59
906.86	215.61
907.17	215.59
907.47	215.62
907.77	215.55
908.08	215.50
908.38	215.51
908.69	215.52
908.99	215.58
909.30	215.59
909.60	215.56
909.90	215.58
910.21	215.52
910.51	215.48
910.81	215.46
911.12	215.50
911.42	215.50
911.73	215.28
912.03	215.31
912.33	215.31
912.64	215.29
912.94	215.23
913.24	215.22
913.55	215.20
913.85	215.14
914.15	215.22
914.46	215.23
914.76	215.21
915.06	215.22
915.37	215.17
915.67	215.13
915.97	215.18
916.27	215.13
916.58	215.15
916.88	215.15
917.18	215.15
917.49	215.27
917.79	215.26
918.09	215.28
918.39	215.35
918.70	215.35
919.00	215.38
919.30	215.51
919.60	215.51
919.91	215.49
920.21	215.54
920.51	215.47
920.81	215.45
921.12	215.50
921.42	215.49
921.72	215.46
922.02	215.48
922.32	215.47
922.63	215.46
922.93	215.56
923.23	215.56
923.53	215.52
923.83	215.40
924.13	215.42
924.44	215.42
924.74	215.41
925.04	215.45
925.34	215.43
925.64	215.35
925.94	215.35
926.24	215.50
926.55	215.49
926.85	215.54
927.15	215.56
927.45	215.53
927.75	215.53
928.05	215.57
928.35	215.58
928.65	215.58
928.95	215.61
929.26	215.54
929.56	215.60
929.86	215.64
930.16	215.61
930.46	215.60
930.76	215.62
931.06	215.55
931.36	215.50
931.66	215.56
931.96	215.58
932.26	215.58
932.56	215.48
932.86	215.49
933.16	215.50
933.46	215.48
933.76	215.45
934.06	215.48
934.36	215.55
934.66	215.51
934.96	215.50
935.26	215.47
935.56	215.50
935.86	215.43
936.16	215.39
936.46	215.34
936.76	215.34
937.06	215.30
937.36	215.31
937.66	215.33
937.96	215.31
938.26	215.28
938.56	215.29
938.86	215.32
939.16	215.35
939.46	215.34
939.76	215.31
940.06	215.33
940.35	215.29
940.65	215.15
940.95	215.17
941.25	215.15
941.55	215.16
941.85	215.12
942.15	215.16
942.45	215.22
942.75	215.24
943.04	215.24
943.34	215.31
943.64	215.28
943.94	215.24
944.24	215.20
944.54	215.23
944.84	215.19
945.13	215.15
945.43	215.10
945.73	215.08
946.03	215.08
946.33	215.05
946.62	215.03
946.92	215.05
947.22	215.05
947.52	215.05
947.82	215.04
948.11	215.01
948.41	214.99
948.71	214.91
949.01	214.95
949.31	214.93
949.60	214.90
949.90	214.95
950.20	214.92
950.50	214.92
950.79	214.88
951.09	214.93
951.39	214.92
951.69	214.89
951.98	214.95
952.28	214.96
952.58	214.93
952.87	214.95
953.17	214.99
953.47	214.99
953.76	214.98
954.06	214.98
954.36	214.96
954.66	214.95
954.95	215.01
955.25	215.05
955.55	215.04
955.84	215.02
956.14	215.00
956.44	215.01
956.73	214.98
957.03	215.01
957.32	215.03
957.62	215.04
957.92	215.10
958.21	215.10
958.51	215.36
958.81	215.41
959.10	215.42
959.40	215.46
959.69	215.47
959.99	215.50
960.29	215.52
960.58	215.57
960.88	215.64
961.17	215.62
961.47	215.62
961.76	215.65
962.06	215.68
962.36	215.69
962.65	215.73
962.95	215.75
963.24	215.73
963.54	215.71
963.83	215.74
964.13	215.73
964.42	215.66
964.72	215.50
965.01	215.52
965.31	215.49
965.60	215.42
965.90	215.54
966.19	215.48
966.49	215.47
966.78	215.41
967.08	215.39
967.37	215.38
967.67	215.35
967.96	215.36
968.26	215.33
968.55	215.34
968.85	215.32
969.14	215.36
969.43	215.36
969.73	215.34
970.02	215.32
970.32	215.30
970.61	215.32
970.91	215.26
971.20	215.20
971.49	215.18
971.79	215.25
972.08	215.10
972.38	215.15
972.67	215.13
972.96	215.18
973.26	215.19
973.55	215.27
973.85	215.25
974.14	215.24
974.43	215.26
974.73	215.21
975.02	215.19
975.31	215.18
975.61	215.18
975.90	215.13
976.19	215.11
976.49	215.14
976.78	215.15
977.07	215.13
977.37	215.16
977.66	215.19
977.95	215.12
978.24	215.16
978.54	215.21
978.83	215.21
979.12	215.21
979.42	215.17
979.71	215.09
980.00	215.10
980.29	215.11
980.59	215.07
980.88	215.16
981.17	215.15
981.46	215.15
981.76	215.14
982.05	215.21
982.34	215.25
982.63	215.24
982.93	215.24
983.22	215.31
983.51	215.31
983.80	215.34
984.09	215.38
984.39	215.33
984.68	215.27
984.97	215.28
985.26	215.24
985.55	215.26
985.85	215.22
986.14	215.24
986.43	215.26
986.72	215.25
987.01	215.19
987.30	215.20
987.59	215.16
987.89	215.15
988.18	215.09
988.47	215.06
988.76	215.00
989.05	214.97
989.34	214.92
989.63	214.97
989.92	214.92
990.22	214.91
990.51	214.94
990.80	214.92
991.09	214.93
991.38	214.95
991.67	214.93
991.96	214.93
992.25	214.93
992.54	214.87
992.83	214.87
993.12	214.82
993.41	214.83
993.70	214.92
993.99	214.95
994.28	214.99
994.58	215.00
994.87	215.01
995.16	215.00
995.45	214.98
995.74	214.90
996.03	214.92
996.32	214.93
996.61	214.96
996.90	214.96
997.19	214.97
997.48	214.96
997.77	214.96
998.06	214.96
998.34	214.97
998.63	214.99
998.92	215.01
999.21	215.08
999.50	215.09
999.79	215.04
1000.08	215.05
1000.37	215.03
1000.66	215.02
1000.95	215.07
1001.24	215.08
1001.53	215.12
1001.82	215.16
1002.11	215.10
1002.40	215.14
1002.68	215.19
1002.97	215.35
1003.26	215.33
1003.55	215.33
1003.84	215.32
1004.13	215.41
1004.42	215.38
1004.71	215.40
1004.99	215.39
1005.28	215.40
1005.57	215.36
1005.86	215.34
1006.15	215.31
1006.44	215.29
1006.72	215.34
1007.01	215.29
1007.30	215.30
1007.59	215.26
1007.88	215.24
1008.17	215.26
1008.45	215.24
1008.74	215.14
1009.03	215.04
1009.32	215.03
1009.60	215.01
1009.89	215.00
1010.18	214.92
1010.47	214.95
1010.76	214.92
1011.04	214.89
1011.33	214.91
1011.62	214.92
1011.91	214.92
1012.19	214.96
1012.48	214.95
1012.77	214.92
1013.05	215.05
1013.34	215.06
1013.63	215.06
1013.92	215.08
1014.20	215.09
1014.49	215.05
1014.78	215.08
1015.06	215.02
1015.35	214.98
1015.64	215.03
1015.92	215.09
1016.21	215.12
1016.50	215.09
1016.78	215.11
1017.07	215.15
1017.36	215.10
1017.64	215.11
1017.93	215.15
1018.22	215.11
1018.50	215.15
1018.79	215.15
1019.08	215.02
1019.36	215.02
1019.65	215.01
1019.93	215.02
1020.22	215.05
1020.51	215.16
1020.79	215.14
1021.08	214.81
1021.36	215.19
1021.65	215.01
1021.94	214.56
1022.22	215.25
1022.51	214.88
1022.79	215.14
1023.08	215.64
1023.36	217.17
1023.65	214.52
>>>>>End Processed Spectral Data<<<<<
