SpectraSuite Data File
++++++++++++++++++++++++++++++++++++
Date: Tue Jan 29 16:28:54 EST 2013
User: group
Dark Spectrum Present: No
Reference Spectrum Present: No
Number of Sampled Component Spectra: 1
Spectrometers: USB2E7196
Integration Time (usec): 65000 (USB2E7196)
Spectra Averaged: 100 (USB2E7196)
Boxcar Smoothing: 10 (USB2E7196)
Correct for Electrical Dark: No (USB2E7196)
Strobe/Lamp Enabled: No (USB2E7196)
Correct for Detector Non-linearity: No (USB2E7196)
Correct for Stray Light: No (USB2E7196)
Number of Pixels in Processed Spectrum: 2048
>>>>>Begin Processed Spectral Data<<<<<
339.09	0.00
339.48	201.97
339.86	203.65
340.24	205.00
340.63	206.03
341.01	211.21
341.39	208.84
341.78	210.65
342.16	212.14
342.54	212.22
342.93	201.36
343.31	211.54
343.69	212.11
344.07	212.60
344.46	213.05
344.84	213.47
345.22	213.62
345.60	213.91
345.99	214.10
346.37	214.24
346.75	214.34
347.13	214.43
347.52	214.53
347.90	214.63
348.28	214.66
348.66	214.74
349.05	214.74
349.43	214.80
349.81	214.85
350.19	214.92
350.57	214.96
350.96	215.02
351.34	215.11
351.72	215.16
352.10	215.24
352.48	215.27
352.87	215.32
353.25	215.39
353.63	215.42
354.01	215.48
354.39	215.53
354.77	215.63
355.15	215.71
355.54	215.72
355.92	215.69
356.30	215.73
356.68	215.91
357.06	215.94
357.44	215.97
357.82	216.02
358.20	216.10
358.58	216.17
358.97	216.23
359.35	216.31
359.73	216.42
360.11	216.47
360.49	216.50
360.87	216.51
361.25	216.57
361.63	216.67
362.01	216.71
362.39	216.74
362.77	216.73
363.15	216.78
363.53	216.82
363.91	216.88
364.29	216.91
364.67	216.73
365.05	216.77
365.43	216.79
365.81	216.84
366.19	216.91
366.57	216.96
366.95	216.97
367.33	216.94
367.71	216.91
368.09	216.96
368.47	216.99
368.85	217.02
369.23	217.07
369.61	216.99
369.99	217.07
370.37	217.06
370.75	217.20
371.13	217.16
371.51	217.10
371.89	217.11
372.27	217.11
372.65	217.12
373.03	217.12
373.41	217.09
373.78	217.08
374.16	216.95
374.54	216.90
374.92	216.82
375.30	216.79
375.68	216.73
376.06	216.66
376.44	216.65
376.82	216.62
377.19	216.55
377.57	216.51
377.95	216.38
378.33	216.32
378.71	216.13
379.09	216.12
379.47	216.15
379.84	216.08
380.22	216.00
380.60	215.91
380.98	215.84
381.36	215.77
381.73	215.69
382.11	215.72
382.49	215.68
382.87	215.64
383.25	215.61
383.62	215.82
384.00	215.76
384.38	215.71
384.76	215.74
385.13	215.75
385.51	215.73
385.89	215.68
386.27	215.69
386.64	215.70
387.02	215.63
387.40	215.59
387.78	215.58
388.15	215.56
388.53	215.54
388.91	215.49
389.29	215.49
389.66	215.48
390.04	215.43
390.42	215.45
390.79	215.48
391.17	215.44
391.55	215.19
391.92	215.21
392.30	215.20
392.68	215.12
393.05	215.13
393.43	215.15
393.81	215.16
394.18	215.12
394.56	215.11
394.94	215.19
395.31	215.16
395.69	215.24
396.06	215.31
396.44	215.37
396.82	215.40
397.19	215.52
397.57	215.53
397.95	215.58
398.32	215.53
398.70	215.58
399.07	215.67
399.45	215.70
399.82	215.75
400.20	215.84
400.58	215.89
400.95	215.87
401.33	215.97
401.70	216.18
402.08	216.30
402.45	216.40
402.83	216.53
403.20	216.63
403.58	216.72
403.95	216.84
404.33	216.99
404.71	217.14
405.08	217.40
405.46	217.58
405.83	217.77
406.21	217.97
406.58	218.19
406.96	218.40
407.33	218.70
407.70	218.99
408.08	219.41
408.45	219.79
408.83	220.16
409.20	220.49
409.58	220.79
409.95	221.21
410.33	221.70
410.70	222.08
411.08	222.68
411.45	223.25
411.82	223.81
412.20	224.51
412.57	225.34
412.95	225.90
413.32	226.75
413.69	227.61
414.07	228.53
414.44	229.56
414.82	230.59
415.19	231.73
415.56	232.95
415.94	234.12
416.31	235.55
416.68	236.95
417.06	238.56
417.43	240.11
417.81	241.92
418.18	243.71
418.55	245.68
418.93	247.67
419.30	249.73
419.67	252.00
420.04	254.29
420.42	256.65
420.79	259.49
421.16	262.27
421.54	265.15
421.91	268.15
422.28	271.21
422.66	274.47
423.03	277.75
423.40	281.10
423.77	284.70
424.15	288.30
424.52	292.12
424.89	296.31
425.26	300.41
425.64	304.27
426.01	308.53
426.38	312.99
426.75	317.57
427.13	322.33
427.50	327.31
427.87	332.52
428.24	337.70
428.61	342.69
428.99	348.19
429.36	354.23
429.73	360.07
430.10	365.96
430.47	372.02
430.85	378.27
431.22	384.98
431.59	392.11
431.96	398.96
432.33	406.46
432.70	413.70
433.08	422.16
433.45	430.19
433.82	438.19
434.19	447.11
434.56	455.77
434.93	464.13
435.30	472.35
435.68	481.41
436.05	490.42
436.42	499.28
436.79	507.44
437.16	516.20
437.53	525.55
437.90	534.67
438.27	543.64
438.64	552.82
439.01	561.30
439.38	568.77
439.75	576.05
440.13	584.49
440.50	592.39
440.87	598.82
441.24	605.41
441.61	612.73
441.98	618.01
442.35	624.32
442.72	630.60
443.09	636.69
443.46	640.42
443.83	642.94
444.20	645.15
444.57	648.28
444.94	649.67
445.31	650.98
445.68	652.35
446.05	652.98
446.42	652.21
446.79	651.26
447.16	650.22
447.53	649.44
447.90	646.11
448.27	642.89
448.64	638.24
449.01	634.98
449.37	629.13
449.74	623.54
450.11	616.66
450.48	609.26
450.85	601.80
451.22	595.33
451.59	589.21
451.96	583.35
452.33	575.47
452.70	568.43
453.07	560.02
453.43	551.46
453.80	543.17
454.17	535.21
454.54	527.71
454.91	519.59
455.28	511.67
455.65	504.28
456.02	496.76
456.38	490.45
456.75	482.57
457.12	476.01
457.49	469.48
457.86	463.30
458.23	457.92
458.59	452.00
458.96	446.04
459.33	440.71
459.70	435.36
460.07	431.12
460.43	426.20
460.80	421.67
461.17	417.66
461.54	413.45
461.91	409.41
462.27	405.29
462.64	401.81
463.01	398.02
463.38	394.30
463.74	390.64
464.11	387.40
464.48	384.53
464.85	381.39
465.21	378.94
465.58	376.31
465.95	373.18
466.32	370.53
466.68	367.96
467.05	365.37
467.42	362.81
467.78	360.12
468.15	357.60
468.52	355.72
468.88	353.23
469.25	351.00
469.62	349.25
469.98	347.27
470.35	345.54
470.72	343.86
471.08	342.12
471.45	340.60
471.82	339.07
472.18	337.42
472.55	336.25
472.92	334.88
473.28	333.70
473.65	332.57
474.02	331.50
474.38	330.61
474.75	329.89
475.11	329.07
475.48	328.48
475.85	327.98
476.21	327.44
476.58	327.05
476.94	326.85
477.31	326.52
477.67	326.24
478.04	326.07
478.41	326.03
478.77	326.13
479.14	326.05
479.50	326.16
479.87	326.44
480.23	326.75
480.60	327.00
480.96	327.28
481.33	327.83
481.69	328.37
482.06	328.86
482.42	329.32
482.79	329.93
483.15	330.73
483.52	331.72
483.88	332.63
484.25	333.61
484.61	334.58
484.98	335.60
485.34	336.92
485.71	338.30
486.07	339.72
486.44	341.06
486.80	342.69
487.17	344.44
487.53	346.30
487.90	348.18
488.26	350.23
488.62	352.37
488.99	354.44
489.35	356.60
489.72	358.98
490.08	361.56
490.44	364.17
490.81	366.91
491.17	369.57
491.54	372.56
491.90	375.60
492.26	378.88
492.63	382.37
492.99	385.91
493.36	389.58
493.72	393.46
494.08	397.45
494.45	401.69
494.81	406.06
495.17	410.51
495.54	415.23
495.90	420.04
496.26	425.01
496.63	430.25
496.99	435.70
497.35	441.32
497.72	447.11
498.08	453.05
498.44	459.16
498.80	465.61
499.17	472.17
499.53	478.94
499.89	485.91
500.26	492.88
500.62	499.99
500.98	507.42
501.34	514.93
501.71	522.83
502.07	530.67
502.43	538.68
502.79	546.89
503.16	555.29
503.52	563.92
503.88	572.65
504.24	581.66
504.60	590.81
504.97	600.10
505.33	609.40
505.69	619.30
506.05	629.29
506.41	639.19
506.78	649.35
507.14	659.59
507.50	670.03
507.86	680.81
508.22	691.69
508.59	702.47
508.95	713.57
509.31	724.85
509.67	736.42
510.03	747.90
510.39	759.75
510.75	771.81
511.12	783.78
511.48	795.96
511.84	808.26
512.20	820.60
512.56	833.38
512.92	846.27
513.28	859.01
513.64	871.80
514.00	884.77
514.37	897.77
514.73	911.03
515.09	924.26
515.45	937.25
515.81	950.29
516.17	963.82
516.53	977.21
516.89	990.41
517.25	1003.69
517.61	1017.35
517.97	1030.70
518.33	1043.83
518.69	1057.52
519.05	1071.44
519.41	1085.24
519.77	1099.36
520.13	1112.76
520.49	1126.09
520.85	1139.60
521.21	1153.06
521.57	1166.78
521.93	1179.92
522.29	1193.74
522.65	1207.39
523.01	1221.15
523.37	1234.53
523.73	1247.88
524.09	1261.13
524.45	1274.71
524.81	1288.23
525.17	1301.66
525.53	1315.06
525.89	1328.53
526.25	1341.79
526.61	1354.70
526.97	1367.89
527.33	1380.94
527.68	1394.40
528.04	1407.91
528.40	1421.14
528.76	1434.58
529.12	1447.67
529.48	1461.11
529.84	1473.45
530.20	1486.33
530.56	1499.04
530.91	1512.46
531.27	1525.38
531.63	1538.27
531.99	1551.15
532.35	1563.57
532.71	1576.10
533.07	1589.14
533.42	1601.46
533.78	1613.64
534.14	1625.87
534.50	1637.19
534.86	1648.89
535.21	1659.92
535.57	1671.71
535.93	1683.22
536.29	1694.43
536.65	1705.93
537.00	1716.98
537.36	1728.49
537.72	1739.56
538.08	1751.16
538.44	1762.20
538.79	1773.47
539.15	1784.51
539.51	1795.45
539.87	1806.79
540.22	1817.84
540.58	1829.01
540.94	1840.13
541.29	1850.45
541.65	1860.42
542.01	1871.08
542.37	1881.15
542.72	1891.53
543.08	1901.33
543.44	1911.82
543.79	1921.11
544.15	1930.68
544.51	1940.88
544.87	1950.86
545.22	1960.08
545.58	1968.99
545.94	1977.99
546.29	1986.56
546.65	1995.01
547.01	2003.26
547.36	2011.01
547.72	2018.73
548.07	2026.16
548.43	2033.80
548.79	2041.75
549.14	2049.78
549.50	2058.32
549.86	2066.39
550.21	2073.86
550.57	2081.74
550.92	2088.65
551.28	2096.30
551.64	2103.76
551.99	2111.26
552.35	2118.49
552.70	2125.53
553.06	2132.17
553.41	2138.46
553.77	2144.98
554.13	2151.39
554.48	2158.46
554.84	2165.72
555.19	2172.23
555.55	2178.70
555.90	2185.10
556.26	2191.98
556.61	2198.31
556.97	2203.07
557.32	2208.86
557.68	2215.25
558.03	2220.79
558.39	2226.00
558.74	2232.10
559.10	2237.59
559.45	2243.17
559.81	2248.83
560.16	2254.42
560.52	2260.42
560.87	2266.98
561.23	2273.04
561.58	2279.74
561.94	2285.01
562.29	2289.66
562.64	2295.86
563.00	2301.77
563.35	2307.43
563.71	2313.34
564.06	2318.95
564.42	2325.13
564.77	2330.41
565.12	2335.74
565.48	2341.01
565.83	2346.67
566.19	2351.96
566.54	2357.36
566.89	2361.88
567.25	2366.43
567.60	2372.12
567.96	2377.24
568.31	2381.78
568.66	2386.00
569.02	2390.04
569.37	2393.80
569.72	2398.37
570.08	2401.89
570.43	2404.87
570.78	2408.05
571.14	2410.57
571.49	2413.61
571.84	2417.03
572.20	2419.75
572.55	2422.74
572.90	2425.16
573.26	2428.08
573.61	2430.81
573.96	2433.00
574.31	2435.13
574.67	2437.06
575.02	2437.90
575.37	2439.33
575.72	2439.97
576.08	2441.47
576.43	2441.58
576.78	2442.00
577.13	2443.52
577.49	2444.67
577.84	2445.77
578.19	2447.05
578.54	2447.65
578.90	2448.48
579.25	2448.53
579.60	2448.48
579.95	2447.77
580.30	2447.81
580.66	2447.02
581.01	2445.29
581.36	2442.91
581.71	2441.57
582.06	2440.44
582.42	2439.60
582.77	2437.51
583.12	2435.78
583.47	2434.40
583.82	2433.76
584.17	2432.58
584.53	2430.40
584.88	2428.24
585.23	2426.31
585.58	2423.95
585.93	2421.96
586.28	2419.74
586.63	2417.13
586.98	2414.92
587.34	2412.97
587.69	2410.35
588.04	2408.17
588.39	2406.70
588.74	2404.20
589.09	2401.47
589.44	2398.34
589.79	2395.80
590.14	2393.69
590.49	2390.93
590.84	2387.00
591.19	2383.81
591.54	2380.65
591.89	2376.63
592.25	2373.38
592.60	2369.17
592.95	2364.99
593.30	2360.63
593.65	2356.20
594.00	2351.77
594.35	2348.74
594.70	2343.97
595.05	2339.52
595.40	2333.99
595.75	2328.19
596.10	2324.46
596.45	2319.57
596.80	2314.86
597.15	2309.59
597.50	2303.62
597.85	2298.68
598.19	2293.37
598.54	2287.54
598.89	2282.21
599.24	2277.60
599.59	2271.39
599.94	2265.49
600.29	2259.56
600.64	2253.55
600.99	2246.69
601.34	2241.21
601.69	2234.08
602.04	2227.67
602.39	2220.87
602.74	2214.89
603.08	2209.28
603.43	2202.77
603.78	2195.92
604.13	2188.87
604.48	2181.55
604.83	2175.39
605.18	2169.11
605.53	2162.21
605.87	2155.09
606.22	2148.05
606.57	2139.96
606.92	2131.94
607.27	2124.90
607.62	2118.27
607.96	2111.30
608.31	2104.83
608.66	2096.96
609.01	2089.23
609.36	2082.08
609.70	2074.42
610.05	2066.47
610.40	2058.10
610.75	2049.73
611.10	2041.83
611.44	2032.80
611.79	2024.07
612.14	2014.03
612.49	2003.24
612.83	1993.77
613.18	1984.45
613.53	1975.13
613.88	1965.58
614.22	1957.00
614.57	1947.12
614.92	1936.44
615.27	1926.12
615.61	1915.89
615.96	1906.12
616.31	1896.50
616.65	1886.87
617.00	1877.08
617.35	1867.32
617.70	1857.58
618.04	1847.55
618.39	1837.33
618.74	1827.51
619.08	1817.80
619.43	1809.18
619.78	1801.02
620.12	1792.35
620.47	1782.80
620.82	1772.39
621.16	1762.50
621.51	1752.44
621.85	1742.65
622.20	1732.15
622.55	1721.50
622.89	1711.46
623.24	1701.73
623.59	1691.88
623.93	1681.73
624.28	1671.92
624.62	1661.83
624.97	1651.55
625.32	1641.46
625.66	1632.57
626.01	1623.89
626.35	1614.41
626.70	1604.08
627.04	1593.76
627.39	1583.62
627.73	1574.28
628.08	1565.32
628.43	1555.74
628.77	1546.54
629.12	1537.60
629.46	1529.71
629.81	1521.45
630.15	1511.92
630.50	1502.06
630.84	1491.58
631.19	1481.65
631.53	1472.24
631.88	1461.98
632.22	1451.82
632.57	1442.62
632.91	1432.42
633.26	1422.50
633.60	1412.86
633.95	1403.52
634.29	1394.06
634.64	1384.64
634.98	1374.47
635.32	1365.12
635.67	1356.49
636.01	1347.13
636.36	1337.25
636.70	1327.69
637.05	1318.07
637.39	1309.17
637.73	1300.43
638.08	1292.91
638.42	1284.66
638.77	1275.75
639.11	1267.49
639.45	1259.70
639.80	1251.09
640.14	1242.22
640.49	1233.25
640.83	1224.23
641.17	1216.04
641.52	1207.85
641.86	1199.27
642.20	1191.46
642.55	1182.77
642.89	1173.86
643.23	1165.14
643.58	1156.96
643.92	1147.82
644.26	1139.13
644.61	1130.46
644.95	1121.54
645.29	1112.06
645.64	1102.73
645.98	1094.12
646.32	1086.11
646.66	1077.41
647.01	1069.00
647.35	1060.85
647.69	1052.37
648.04	1044.14
648.38	1035.25
648.72	1026.33
649.06	1017.77
649.41	1009.44
649.75	1001.44
650.09	993.53
650.43	985.37
650.78	977.02
651.12	969.21
651.46	961.73
651.80	954.48
652.14	947.23
652.49	939.65
652.83	932.29
653.17	924.64
653.51	916.96
653.85	909.60
654.20	902.18
654.54	894.67
654.88	887.42
655.22	880.13
655.56	873.06
655.90	866.18
656.25	859.44
656.59	852.44
656.93	845.35
657.27	838.09
657.61	831.00
657.95	824.81
658.29	818.93
658.64	812.76
658.98	806.23
659.32	799.53
659.66	793.19
660.00	786.87
660.34	780.71
660.68	774.48
661.02	768.13
661.36	762.12
661.70	756.22
662.05	750.53
662.39	744.94
662.73	739.50
663.07	734.10
663.41	728.44
663.75	722.75
664.09	716.94
664.43	711.50
664.77	706.20
665.11	700.25
665.45	694.17
665.79	688.28
666.13	682.43
666.47	676.91
666.81	671.45
667.15	665.97
667.49	660.76
667.83	655.44
668.17	650.17
668.51	644.99
668.85	640.03
669.19	635.11
669.53	630.06
669.87	624.83
670.21	620.03
670.55	615.22
670.89	610.64
671.23	606.30
671.57	601.91
671.91	597.56
672.25	593.38
672.58	589.29
672.92	585.19
673.26	581.21
673.60	577.29
673.94	573.42
674.28	569.76
674.62	565.97
674.96	562.23
675.30	558.65
675.64	554.95
675.97	551.27
676.31	547.57
676.65	543.91
676.99	540.48
677.33	536.59
677.67	532.97
678.01	529.06
678.34	525.42
678.68	521.85
679.02	518.16
679.36	514.43
679.70	510.66
680.04	507.03
680.37	503.56
680.71	500.16
681.05	496.95
681.39	493.62
681.73	490.36
682.06	487.27
682.40	484.11
682.74	480.87
683.08	477.61
683.42	474.35
683.75	471.27
684.09	468.17
684.43	465.36
684.77	462.35
685.10	459.52
685.44	456.48
685.78	453.48
686.12	450.67
686.45	447.89
686.79	445.23
687.13	442.63
687.46	439.97
687.80	437.28
688.14	434.35
688.48	431.68
688.81	428.96
689.15	426.34
689.49	423.70
689.82	421.19
690.16	418.56
690.50	416.11
690.83	413.63
691.17	411.05
691.51	408.49
691.84	406.17
692.18	403.94
692.52	401.73
692.85	399.55
693.19	397.40
693.52	395.19
693.86	392.94
694.20	390.78
694.53	388.63
694.87	386.38
695.21	384.28
695.54	382.09
695.88	379.86
696.21	377.60
696.55	375.42
696.88	373.29
697.22	371.30
697.56	369.39
697.89	367.46
698.23	365.65
698.56	363.85
698.90	362.09
699.23	360.13
699.57	358.27
699.90	356.36
700.24	354.48
700.58	352.71
700.91	351.04
701.25	349.44
701.58	347.77
701.92	346.20
702.25	344.55
702.59	342.91
702.92	341.39
703.26	339.82
703.59	338.34
703.93	337.05
704.26	335.60
704.60	334.05
704.93	332.52
705.26	330.99
705.60	329.48
705.93	327.92
706.27	326.57
706.60	325.23
706.94	323.99
707.27	322.62
707.61	321.21
707.94	319.82
708.27	318.22
708.61	316.77
708.94	315.34
709.28	314.04
709.61	312.75
709.94	311.53
710.28	310.30
710.61	309.12
710.95	307.70
711.28	306.62
711.61	305.39
711.95	304.32
712.28	303.13
712.61	301.92
712.95	300.85
713.28	299.79
713.61	298.66
713.95	297.52
714.28	296.43
714.61	295.41
714.95	294.36
715.28	293.35
715.61	292.32
715.95	291.34
716.28	290.37
716.61	289.42
716.95	288.41
717.28	287.49
717.61	286.46
717.94	285.52
718.28	284.44
718.61	283.58
718.94	282.60
719.27	281.74
719.61	280.88
719.94	280.02
720.27	279.03
720.60	278.14
720.94	277.33
721.27	276.57
721.60	275.85
721.93	275.16
722.27	274.56
722.60	273.91
722.93	273.22
723.26	272.57
723.59	271.85
723.93	271.18
724.26	270.48
724.59	269.85
724.92	269.30
725.25	268.78
725.59	268.20
725.92	267.66
726.25	267.09
726.58	266.48
726.91	265.84
727.24	265.33
727.57	264.77
727.91	264.15
728.24	263.61
728.57	263.00
728.90	262.42
729.23	261.74
729.56	261.29
729.89	260.74
730.22	260.12
730.55	259.56
730.89	259.02
731.22	258.50
731.55	257.99
731.88	257.39
732.21	256.78
732.54	256.24
732.87	255.72
733.20	255.23
733.53	254.80
733.86	254.38
734.19	253.85
734.52	253.43
734.85	253.14
735.18	252.63
735.51	252.25
735.84	251.85
736.17	251.50
736.50	250.94
736.83	250.77
737.16	250.39
737.49	250.01
737.82	249.60
738.15	249.22
738.48	248.84
738.81	248.46
739.14	248.06
739.47	247.68
739.80	247.27
740.13	246.92
740.46	246.51
740.79	246.14
741.12	245.78
741.45	245.40
741.78	244.93
742.11	244.67
742.44	244.27
742.77	243.94
743.10	243.55
743.43	243.22
743.75	242.66
744.08	242.57
744.41	242.19
744.74	241.84
745.07	241.49
745.40	241.17
745.73	240.93
746.06	240.65
746.39	240.32
746.71	240.00
747.04	239.63
747.37	239.31
747.70	239.02
748.03	238.73
748.36	238.45
748.68	238.15
749.01	237.79
749.34	237.52
749.67	237.22
750.00	236.96
750.33	236.84
750.65	236.56
750.98	236.08
751.31	235.84
751.64	235.65
751.97	235.53
752.29	235.26
752.62	234.89
752.95	234.61
753.28	234.36
753.60	234.12
753.93	233.95
754.26	233.73
754.59	233.41
754.91	233.13
755.24	232.90
755.57	232.69
755.90	232.46
756.22	232.21
756.55	231.95
756.88	231.70
757.20	231.35
757.53	231.08
757.86	230.85
758.19	230.63
758.51	230.40
758.84	230.10
759.17	229.88
759.49	229.73
759.82	229.62
760.15	229.44
760.47	229.22
760.80	228.96
761.13	228.83
761.45	228.66
761.78	228.49
762.11	228.31
762.43	228.11
762.76	227.93
763.08	227.77
763.41	227.64
763.74	227.50
764.06	227.32
764.39	227.21
764.71	227.03
765.04	226.90
765.37	226.72
765.69	226.54
766.02	226.40
766.34	226.22
766.67	226.04
767.00	225.93
767.32	225.91
767.65	225.92
767.97	225.72
768.30	225.58
768.62	225.48
768.95	225.30
769.27	225.19
769.60	225.09
769.92	224.97
770.25	224.78
770.57	224.60
770.90	224.48
771.22	224.31
771.55	224.21
771.87	224.12
772.20	223.98
772.52	224.04
772.85	224.17
773.17	224.08
773.50	223.93
773.82	223.85
774.15	223.66
774.47	223.43
774.80	223.34
775.12	223.24
775.45	223.16
775.77	223.08
776.09	222.96
776.42	222.86
776.74	222.82
777.07	222.72
777.39	222.68
777.72	222.57
778.04	222.51
778.36	222.41
778.69	222.29
779.01	222.22
779.33	221.96
779.66	221.66
779.98	221.55
780.31	221.49
780.63	221.48
780.95	221.45
781.28	221.40
781.60	221.31
781.92	221.28
782.25	221.20
782.57	221.12
782.89	221.06
783.22	220.99
783.54	220.85
783.86	220.81
784.19	220.71
784.51	220.72
784.83	220.62
785.16	220.57
785.48	220.53
785.80	220.49
786.12	220.45
786.45	220.36
786.77	220.34
787.09	220.28
787.42	220.14
787.74	220.09
788.06	219.99
788.38	219.93
788.71	219.82
789.03	219.76
789.35	219.78
789.67	219.71
789.99	219.66
790.32	219.59
790.64	219.60
790.96	219.73
791.28	219.59
791.61	219.54
791.93	219.49
792.25	219.43
792.57	219.53
792.89	219.47
793.21	219.45
793.54	219.37
793.86	219.30
794.18	219.25
794.50	219.14
794.82	219.11
795.14	219.09
795.47	219.11
795.79	219.07
796.11	218.99
796.43	218.95
796.75	218.93
797.07	218.92
797.39	218.83
797.71	218.65
798.04	218.65
798.36	218.59
798.68	218.57
799.00	218.51
799.32	218.35
799.64	218.34
799.96	218.32
800.28	218.34
800.60	218.30
800.92	218.27
801.24	218.23
801.56	218.23
801.89	218.20
802.21	218.16
802.53	218.11
802.85	218.10
803.17	218.16
803.49	218.05
803.81	218.00
804.13	217.97
804.45	217.91
804.77	217.88
805.09	217.87
805.41	217.78
805.73	217.72
806.05	217.66
806.37	217.60
806.69	217.53
807.01	217.48
807.33	217.45
807.65	217.36
807.97	217.41
808.28	217.35
808.60	217.33
808.92	217.27
809.24	217.34
809.56	217.25
809.88	217.14
810.20	217.15
810.52	217.16
810.84	217.03
811.16	217.00
811.48	216.95
811.80	216.97
812.12	216.96
812.43	216.97
812.75	216.96
813.07	216.97
813.39	216.94
813.71	216.87
814.03	216.82
814.35	216.80
814.67	216.71
814.98	216.66
815.30	216.63
815.62	216.58
815.94	216.43
816.26	216.42
816.58	216.35
816.89	216.36
817.21	216.30
817.53	216.35
817.85	216.32
818.17	216.28
818.48	216.21
818.80	216.22
819.12	216.19
819.44	216.12
819.76	216.06
820.07	216.06
820.39	216.06
820.71	216.08
821.03	216.10
821.34	216.05
821.66	216.06
821.98	216.03
822.30	216.03
822.61	216.15
822.93	216.12
823.25	216.12
823.57	216.06
823.88	216.09
824.20	216.08
824.52	216.10
824.83	216.10
825.15	216.08
825.47	216.06
825.79	216.07
826.10	216.04
826.42	216.02
826.74	216.01
827.05	216.00
827.37	216.01
827.69	215.97
828.00	215.96
828.32	215.92
828.64	215.91
828.95	216.01
829.27	215.93
829.58	215.95
829.90	215.96
830.22	216.00
830.53	215.91
830.85	215.86
831.17	215.82
831.48	215.81
831.80	215.79
832.11	215.80
832.43	215.76
832.75	215.77
833.06	215.90
833.38	215.83
833.69	215.80
834.01	215.80
834.32	215.82
834.64	215.85
834.96	215.85
835.27	215.82
835.59	215.74
835.90	215.68
836.22	215.64
836.53	215.58
836.85	215.53
837.16	215.75
837.48	215.77
837.79	215.81
838.11	215.83
838.42	215.81
838.74	215.83
839.05	215.82
839.37	215.77
839.68	215.64
840.00	215.62
840.31	215.67
840.63	215.63
840.94	215.59
841.26	215.54
841.57	215.55
841.88	215.59
842.20	215.50
842.51	215.50
842.83	215.47
843.14	215.65
843.46	215.67
843.77	215.54
844.08	215.49
844.40	215.42
844.71	215.39
845.03	215.37
845.34	215.33
845.65	215.32
845.97	215.36
846.28	215.37
846.60	215.39
846.91	215.35
847.22	215.32
847.54	215.36
847.85	215.39
848.16	215.37
848.48	215.31
848.79	215.41
849.10	215.42
849.42	215.46
849.73	215.29
850.04	215.26
850.36	215.18
850.67	215.24
850.98	215.25
851.30	215.28
851.61	215.27
851.92	215.27
852.23	215.31
852.55	215.29
852.86	215.28
853.17	215.29
853.49	215.33
853.80	215.35
854.11	215.32
854.42	215.33
854.74	215.27
855.05	215.29
855.36	215.16
855.67	215.15
855.99	215.13
856.30	215.34
856.61	215.33
856.92	215.35
857.23	215.34
857.55	215.34
857.86	215.30
858.17	215.34
858.48	215.29
858.79	215.24
859.11	215.28
859.42	215.27
859.73	215.27
860.04	215.24
860.35	215.20
860.66	215.14
860.98	215.15
861.29	215.21
861.60	215.20
861.91	215.26
862.22	215.23
862.53	215.20
862.84	214.94
863.16	214.99
863.47	214.93
863.78	214.89
864.09	214.86
864.40	214.84
864.71	214.85
865.02	214.84
865.33	214.85
865.64	214.78
865.95	214.76
866.27	214.86
866.58	214.83
866.89	214.84
867.20	214.85
867.51	214.79
867.82	214.78
868.13	214.84
868.44	214.76
868.75	214.83
869.06	214.85
869.37	214.89
869.68	214.81
869.99	214.87
870.30	214.87
870.61	214.93
870.92	214.96
871.23	214.95
871.54	214.98
871.85	214.98
872.16	215.02
872.47	215.01
872.78	214.86
873.09	214.88
873.40	214.89
873.71	214.89
874.02	214.90
874.33	214.88
874.64	214.82
874.95	214.87
875.26	214.80
875.56	214.77
875.87	214.74
876.18	214.73
876.49	214.93
876.80	214.92
877.11	214.87
877.42	214.85
877.73	214.83
878.04	214.81
878.35	214.83
878.66	214.81
878.96	214.80
879.27	214.83
879.58	214.82
879.89	214.77
880.20	214.83
880.51	214.84
880.82	214.85
881.12	214.87
881.43	214.82
881.74	214.79
882.05	214.80
882.36	214.83
882.67	214.88
882.97	214.61
883.28	214.62
883.59	214.61
883.90	214.67
884.21	214.69
884.51	214.67
884.82	214.64
885.13	214.65
885.44	214.66
885.74	214.62
886.05	214.65
886.36	214.66
886.67	214.57
886.98	214.65
887.28	214.65
887.59	214.63
887.90	214.65
888.20	214.68
888.51	214.72
888.82	214.68
889.13	214.69
889.43	214.89
889.74	214.87
890.05	214.85
890.35	214.80
890.66	214.78
890.97	214.78
891.28	214.74
891.58	214.72
891.89	214.73
892.20	214.73
892.50	214.69
892.81	214.69
893.12	214.71
893.42	214.61
893.73	214.62
894.04	214.63
894.34	214.67
894.65	214.64
894.95	214.61
895.26	214.63
895.57	214.72
895.87	214.53
896.18	214.58
896.48	214.60
896.79	214.59
897.10	214.60
897.40	214.60
897.71	214.67
898.01	214.67
898.32	214.68
898.63	214.66
898.93	214.68
899.24	214.66
899.54	214.62
899.85	214.63
900.15	214.60
900.46	214.60
900.76	214.61
901.07	214.62
901.38	214.61
901.68	214.61
901.99	214.47
902.29	214.47
902.60	214.44
902.90	214.42
903.21	214.45
903.51	214.45
903.82	214.50
904.12	214.48
904.43	214.50
904.73	214.51
905.03	214.54
905.34	214.71
905.64	214.74
905.95	214.74
906.25	214.72
906.56	214.73
906.86	214.72
907.17	214.67
907.47	214.67
907.77	214.65
908.08	214.62
908.38	214.64
908.69	214.68
908.99	214.71
909.30	214.73
909.60	214.70
909.90	214.67
910.21	214.59
910.51	214.57
910.81	214.55
911.12	214.55
911.42	214.56
911.73	214.37
912.03	214.37
912.33	214.44
912.64	214.44
912.94	214.45
913.24	214.43
913.55	214.44
913.85	214.44
914.15	214.50
914.46	214.52
914.76	214.50
915.06	214.49
915.37	214.46
915.67	214.43
915.97	214.42
916.27	214.42
916.58	214.46
916.88	214.42
917.18	214.41
917.49	214.54
917.79	214.52
918.09	214.56
918.39	214.61
918.70	214.61
919.00	214.62
919.30	214.71
919.60	214.73
919.91	214.69
920.21	214.70
920.51	214.65
920.81	214.64
921.12	214.69
921.42	214.66
921.72	214.68
922.02	214.70
922.32	214.74
922.63	214.73
922.93	214.83
923.23	214.86
923.53	214.85
923.83	214.72
924.13	214.75
924.44	214.75
924.74	214.74
925.04	214.76
925.34	214.78
925.64	214.68
925.94	214.66
926.24	214.80
926.55	214.77
926.85	214.78
927.15	214.78
927.45	214.79
927.75	214.81
928.05	214.80
928.35	214.79
928.65	214.83
928.95	214.84
929.26	214.75
929.56	214.76
929.86	214.78
930.16	214.74
930.46	214.68
930.76	214.68
931.06	214.58
931.36	214.53
931.66	214.52
931.96	214.55
932.26	214.57
932.56	214.49
932.86	214.52
933.16	214.52
933.46	214.51
933.76	214.47
934.06	214.53
934.36	214.61
934.66	214.61
934.96	214.59
935.26	214.58
935.56	214.61
935.86	214.58
936.16	214.57
936.46	214.58
936.76	214.58
937.06	214.53
937.36	214.57
937.66	214.60
937.96	214.57
938.26	214.51
938.56	214.49
938.86	214.49
939.16	214.52
939.46	214.53
939.76	214.51
940.06	214.53
940.35	214.44
940.65	214.29
940.95	214.29
941.25	214.24
941.55	214.21
941.85	214.19
942.15	214.21
942.45	214.25
942.75	214.25
943.04	214.26
943.34	214.29
943.64	214.23
943.94	214.21
944.24	214.20
944.54	214.21
944.84	214.16
945.13	214.10
945.43	214.03
945.73	214.05
946.03	214.01
946.33	213.98
946.62	213.96
946.92	213.99
947.22	214.01
947.52	214.01
947.82	214.09
948.11	214.06
948.41	214.06
948.71	214.00
949.01	213.99
949.31	213.99
949.60	214.01
949.90	214.07
950.20	214.04
950.50	214.07
950.79	214.05
951.09	214.14
951.39	214.16
951.69	214.15
951.98	214.20
952.28	214.24
952.58	214.26
952.87	214.25
953.17	214.30
953.47	214.26
953.76	214.22
954.06	214.17
954.36	214.14
954.66	214.12
954.95	214.20
955.25	214.22
955.55	214.24
955.84	214.15
956.14	214.16
956.44	214.19
956.73	214.12
957.03	214.14
957.32	214.12
957.62	214.12
957.92	214.15
958.21	214.09
958.51	214.35
958.81	214.35
959.10	214.43
959.40	214.45
959.69	214.47
959.99	214.55
960.29	214.51
960.58	214.51
960.88	214.58
961.17	214.55
961.47	214.56
961.76	214.53
962.06	214.61
962.36	214.56
962.65	214.54
962.95	214.58
963.24	214.56
963.54	214.59
963.83	214.61
964.13	214.60
964.42	214.59
964.72	214.41
965.01	214.41
965.31	214.37
965.60	214.32
965.90	214.46
966.19	214.39
966.49	214.43
966.78	214.44
967.08	214.44
967.37	214.42
967.67	214.38
967.96	214.40
968.26	214.39
968.55	214.47
968.85	214.46
969.14	214.47
969.43	214.45
969.73	214.44
970.02	214.47
970.32	214.45
970.61	214.43
970.91	214.40
971.20	214.38
971.49	214.37
971.79	214.40
972.08	214.27
972.38	214.31
972.67	214.29
972.96	214.33
973.26	214.27
973.55	214.35
973.85	214.38
974.14	214.35
974.43	214.34
974.73	214.32
975.02	214.31
975.31	214.33
975.61	214.33
975.90	214.29
976.19	214.23
976.49	214.25
976.78	214.27
977.07	214.26
977.37	214.24
977.66	214.27
977.95	214.25
978.24	214.25
978.54	214.29
978.83	214.30
979.12	214.27
979.42	214.29
979.71	214.24
980.00	214.19
980.29	214.22
980.59	214.20
980.88	214.21
981.17	214.23
981.46	214.23
981.76	214.26
982.05	214.33
982.34	214.35
982.63	214.35
982.93	214.37
983.22	214.41
983.51	214.43
983.80	214.46
984.09	214.48
984.39	214.43
984.68	214.36
984.97	214.38
985.26	214.36
985.55	214.37
985.85	214.34
986.14	214.37
986.43	214.38
986.72	214.37
987.01	214.30
987.30	214.33
987.59	214.32
987.89	214.32
988.18	214.22
988.47	214.20
988.76	214.16
989.05	214.15
989.34	214.09
989.63	214.15
989.92	214.10
990.22	214.06
990.51	214.11
990.80	214.09
991.09	214.09
991.38	214.12
991.67	214.09
991.96	214.08
992.25	214.07
992.54	214.05
992.83	214.06
993.12	214.07
993.41	214.08
993.70	214.12
993.99	214.15
994.28	214.21
994.58	214.24
994.87	214.23
995.16	214.21
995.45	214.19
995.74	214.12
996.03	214.15
996.32	214.19
996.61	214.22
996.90	214.24
997.19	214.23
997.48	214.22
997.77	214.20
998.06	214.18
998.34	214.19
998.63	214.19
998.92	214.21
999.21	214.26
999.50	214.26
999.79	214.24
1000.08	214.22
1000.37	214.21
1000.66	214.17
1000.95	214.24
1001.24	214.26
1001.53	214.33
1001.82	214.31
1002.11	214.27
1002.40	214.29
1002.68	214.33
1002.97	214.45
1003.26	214.39
1003.55	214.40
1003.84	214.42
1004.13	214.51
1004.42	214.50
1004.71	214.47
1004.99	214.45
1005.28	214.47
1005.57	214.48
1005.86	214.41
1006.15	214.38
1006.44	214.34
1006.72	214.37
1007.01	214.31
1007.30	214.30
1007.59	214.26
1007.88	214.30
1008.17	214.32
1008.45	214.25
1008.74	214.19
1009.03	214.09
1009.32	214.12
1009.60	214.10
1009.89	214.11
1010.18	214.03
1010.47	214.01
1010.76	214.03
1011.04	214.04
1011.33	214.05
1011.62	214.03
1011.91	214.04
1012.19	214.07
1012.48	214.09
1012.77	214.09
1013.05	214.22
1013.34	214.22
1013.63	214.18
1013.92	214.16
1014.20	214.11
1014.49	214.14
1014.78	214.14
1015.06	214.08
1015.35	214.06
1015.64	214.07
1015.92	214.06
1016.21	214.10
1016.50	214.09
1016.78	214.10
1017.07	214.12
1017.36	214.08
1017.64	214.05
1017.93	214.09
1018.22	214.06
1018.50	214.06
1018.79	214.07
1019.08	213.95
1019.36	214.01
1019.65	214.01
1019.93	214.04
1020.22	214.10
1020.51	214.18
1020.79	214.16
1021.08	213.84
1021.36	213.61
1021.65	214.33
1021.94	213.99
1022.22	215.13
1022.51	213.65
1022.79	214.54
1023.08	214.56
1023.36	216.08
1023.65	213.62
>>>>>End Processed Spectral Data<<<<<
