SpectraSuite Data File
++++++++++++++++++++++++++++++++++++
Date: Tue Jan 29 16:19:26 EST 2013
User: group
Dark Spectrum Present: No
Reference Spectrum Present: No
Number of Sampled Component Spectra: 1
Spectrometers: USB2E7196
Integration Time (usec): 65000 (USB2E7196)
Spectra Averaged: 100 (USB2E7196)
Boxcar Smoothing: 10 (USB2E7196)
Correct for Electrical Dark: No (USB2E7196)
Strobe/Lamp Enabled: No (USB2E7196)
Correct for Detector Non-linearity: No (USB2E7196)
Correct for Stray Light: No (USB2E7196)
Number of Pixels in Processed Spectrum: 2048
>>>>>Begin Processed Spectral Data<<<<<
339.09	0.00
339.48	201.91
339.86	203.34
340.24	205.79
340.63	206.44
341.01	210.79
341.39	209.16
341.78	211.21
342.16	212.50
342.54	212.70
342.93	201.66
343.31	211.83
343.69	212.42
344.07	212.89
344.46	213.30
344.84	213.71
345.22	213.91
345.60	214.22
345.99	214.44
346.37	214.62
346.75	214.75
347.13	214.83
347.52	214.88
347.90	215.00
348.28	215.07
348.66	215.14
349.05	215.15
349.43	215.22
349.81	215.28
350.19	215.31
350.57	215.44
350.96	215.55
351.34	215.67
351.72	215.77
352.10	215.90
352.48	215.98
352.87	216.04
353.25	216.11
353.63	216.14
354.01	216.20
354.39	216.26
354.77	216.32
355.15	216.46
355.54	216.52
355.92	216.52
356.30	216.58
356.68	216.79
357.06	216.86
357.44	216.89
357.82	216.95
358.20	217.07
358.58	217.10
358.97	217.18
359.35	217.28
359.73	217.37
360.11	217.41
360.49	217.43
360.87	217.51
361.25	217.58
361.63	217.68
362.01	217.72
362.39	217.68
362.77	217.74
363.15	217.75
363.53	217.77
363.91	217.80
364.29	217.82
364.67	217.64
365.05	217.63
365.43	217.70
365.81	217.73
366.19	217.79
366.57	217.85
366.95	217.83
367.33	217.77
367.71	217.76
368.09	217.80
368.47	217.81
368.85	217.74
369.23	217.76
369.61	217.68
369.99	217.71
370.37	217.72
370.75	217.79
371.13	217.67
371.51	217.61
371.89	217.57
372.27	217.55
372.65	217.53
373.03	217.53
373.41	217.44
373.78	217.40
374.16	217.24
374.54	217.19
374.92	217.13
375.30	217.08
375.68	216.98
376.06	216.93
376.44	216.90
376.82	216.87
377.19	216.82
377.57	216.77
377.95	216.63
378.33	216.61
378.71	216.43
379.09	216.47
379.47	216.48
379.84	216.45
380.22	216.34
380.60	216.25
380.98	216.18
381.36	216.14
381.73	216.06
382.11	216.08
382.49	216.01
382.87	215.96
383.25	215.89
383.62	216.13
384.00	216.05
384.38	216.04
384.76	216.10
385.13	216.12
385.51	216.09
385.89	216.04
386.27	216.02
386.64	216.02
387.02	215.94
387.40	215.88
387.78	215.85
388.15	215.87
388.53	215.85
388.91	215.85
389.29	215.81
389.66	215.84
390.04	215.80
390.42	215.82
390.79	215.84
391.17	215.82
391.55	215.54
391.92	215.55
392.30	215.54
392.68	215.45
393.05	215.41
393.43	215.47
393.81	215.50
394.18	215.43
394.56	215.43
394.94	215.50
395.31	215.49
395.69	215.57
396.06	215.60
396.44	215.66
396.82	215.66
397.19	215.79
397.57	215.76
397.95	215.81
398.32	215.77
398.70	215.78
399.07	215.88
399.45	215.96
399.82	215.99
400.20	216.01
400.58	216.06
400.95	216.06
401.33	216.16
401.70	216.37
402.08	216.50
402.45	216.59
402.83	216.72
403.20	216.84
403.58	216.89
403.95	217.04
404.33	217.16
404.71	217.30
405.08	217.54
405.46	217.72
405.83	217.92
406.21	218.12
406.58	218.38
406.96	218.61
407.33	218.86
407.70	219.19
408.08	219.66
408.45	220.00
408.83	220.41
409.20	220.73
409.58	220.97
409.95	221.40
410.33	221.89
410.70	222.32
411.08	222.88
411.45	223.48
411.82	224.06
412.20	224.76
412.57	225.59
412.95	226.13
413.32	226.97
413.69	227.75
414.07	228.67
414.44	229.61
414.82	230.61
415.19	231.76
415.56	232.91
415.94	234.06
416.31	235.43
416.68	236.79
417.06	238.36
417.43	239.91
417.81	241.61
418.18	243.33
418.55	245.19
418.93	247.17
419.30	249.20
419.67	251.36
420.04	253.60
420.42	255.92
420.79	258.75
421.16	261.47
421.54	264.32
421.91	267.25
422.28	270.32
422.66	273.56
423.03	276.76
423.40	280.00
423.77	283.54
424.15	287.14
424.52	290.90
424.89	295.02
425.26	299.00
425.64	302.83
426.01	307.02
426.38	311.46
426.75	315.90
427.13	320.54
427.50	325.45
427.87	330.55
428.24	335.59
428.61	340.43
428.99	345.85
429.36	351.75
429.73	357.52
430.10	363.30
430.47	369.25
430.85	375.42
431.22	382.05
431.59	389.08
431.96	395.77
432.33	403.12
432.70	410.21
433.08	418.58
433.45	426.49
433.82	434.33
434.19	442.99
434.56	451.55
434.93	459.72
435.30	467.77
435.68	476.61
436.05	485.47
436.42	494.23
436.79	502.19
437.16	510.79
437.53	519.90
437.90	528.81
438.27	537.54
438.64	546.61
439.01	554.92
439.38	562.27
439.75	569.44
440.13	577.76
440.50	585.52
440.87	591.81
441.24	598.26
441.61	605.49
441.98	610.75
442.35	616.90
442.72	623.07
443.09	628.98
443.46	632.73
443.83	635.19
444.20	637.37
444.57	640.41
444.94	641.85
445.31	643.28
445.68	644.59
446.05	645.24
446.42	644.41
446.79	643.48
447.16	642.40
447.53	641.63
447.90	638.24
448.27	635.03
448.64	630.42
449.01	627.17
449.37	621.37
449.74	615.89
450.11	609.14
450.48	601.91
450.85	594.66
451.22	588.25
451.59	582.22
451.96	576.41
452.33	568.75
452.70	561.79
453.07	553.42
453.43	545.06
453.80	536.94
454.17	529.19
454.54	521.78
454.91	513.76
455.28	505.98
455.65	498.80
456.02	491.49
456.38	485.29
456.75	477.62
457.12	471.21
457.49	464.78
457.86	458.75
458.23	453.44
458.59	447.64
458.96	441.85
459.33	436.70
459.70	431.50
460.07	427.34
460.43	422.51
460.80	418.05
461.17	414.11
461.54	409.94
461.91	405.93
462.27	401.91
462.64	398.61
463.01	394.90
463.38	391.24
463.74	387.60
464.11	384.47
464.48	381.72
464.85	378.67
465.21	376.30
465.58	373.73
465.95	370.70
466.32	368.10
466.68	365.55
467.05	362.98
467.42	360.46
467.78	357.84
468.15	355.33
468.52	353.48
468.88	351.06
469.25	348.93
469.62	347.19
469.98	345.30
470.35	343.50
470.72	341.87
471.08	340.15
471.45	338.69
471.82	337.16
472.18	335.51
472.55	334.34
472.92	332.98
473.28	331.81
473.65	330.74
474.02	329.69
474.38	328.79
474.75	328.05
475.11	327.27
475.48	326.71
475.85	326.30
476.21	325.82
476.58	325.51
476.94	325.31
477.31	325.01
477.67	324.81
478.04	324.72
478.41	324.69
478.77	324.85
479.14	324.80
479.50	324.98
479.87	325.30
480.23	325.66
480.60	325.94
480.96	326.21
481.33	326.80
481.69	327.41
482.06	328.00
482.42	328.53
482.79	329.16
483.15	329.98
483.52	330.93
483.88	331.79
484.25	332.72
484.61	333.72
484.98	334.83
485.34	336.11
485.71	337.49
486.07	338.93
486.44	340.25
486.80	341.90
487.17	343.59
487.53	345.41
487.90	347.28
488.26	349.32
488.62	351.48
488.99	353.51
489.35	355.71
489.72	358.00
490.08	360.51
490.44	363.12
490.81	365.84
491.17	368.53
491.54	371.54
491.90	374.57
492.26	377.86
492.63	381.29
492.99	384.82
493.36	388.47
493.72	392.38
494.08	396.35
494.45	400.55
494.81	404.91
495.17	409.35
495.54	414.07
495.90	418.89
496.26	423.85
496.63	429.05
496.99	434.39
497.35	440.05
497.72	445.83
498.08	451.74
498.44	457.81
498.80	464.28
499.17	470.80
499.53	477.55
499.89	484.42
500.26	491.41
500.62	498.49
500.98	505.88
501.34	513.36
501.71	521.22
502.07	528.97
502.43	536.98
502.79	545.14
503.16	553.56
503.52	562.17
503.88	570.81
504.24	579.85
504.60	588.89
504.97	598.11
505.33	607.46
505.69	617.31
506.05	627.23
506.41	637.05
506.78	647.15
507.14	657.43
507.50	667.86
507.86	678.65
508.22	689.45
508.59	700.14
508.95	711.15
509.31	722.43
509.67	734.00
510.03	745.46
510.39	757.26
510.75	769.13
511.12	781.07
511.48	793.24
511.84	805.43
512.20	817.80
512.56	830.41
512.92	843.22
513.28	855.88
513.64	868.69
514.00	881.63
514.37	894.57
514.73	907.69
515.09	920.72
515.45	933.47
515.81	946.53
516.17	959.94
516.53	973.18
516.89	986.26
517.25	999.50
517.61	1012.98
517.97	1026.38
518.33	1039.40
518.69	1052.82
519.05	1066.47
519.41	1080.16
519.77	1094.01
520.13	1107.36
520.49	1120.49
520.85	1133.77
521.21	1147.08
521.57	1160.63
521.93	1173.73
522.29	1187.39
522.65	1200.96
523.01	1214.58
523.37	1227.70
523.73	1240.88
524.09	1253.95
524.45	1267.37
524.81	1280.76
525.17	1294.01
525.53	1307.14
525.89	1320.46
526.25	1333.57
526.61	1346.47
526.97	1359.44
527.33	1372.41
527.68	1385.73
528.04	1399.06
528.40	1412.24
528.76	1425.46
529.12	1438.27
529.48	1451.44
529.84	1463.57
530.20	1476.36
530.56	1488.82
530.91	1501.92
531.27	1514.65
531.63	1527.42
531.99	1539.96
532.35	1551.99
532.71	1564.34
533.07	1577.02
533.42	1589.16
533.78	1601.12
534.14	1613.01
534.50	1624.20
534.86	1635.53
535.21	1646.37
535.57	1657.90
535.93	1669.14
536.29	1680.07
536.65	1691.33
537.00	1702.14
537.36	1713.46
537.72	1724.24
538.08	1735.59
538.44	1746.43
538.79	1757.43
539.15	1768.32
539.51	1778.92
539.87	1790.15
540.22	1800.92
540.58	1811.79
540.94	1822.53
541.29	1832.81
541.65	1842.32
542.01	1852.69
542.37	1862.70
542.72	1872.75
543.08	1882.31
543.44	1892.52
543.79	1901.75
544.15	1911.15
544.51	1921.03
544.87	1930.76
545.22	1939.88
545.58	1948.52
545.94	1957.27
546.29	1965.66
546.65	1973.76
547.01	1981.94
547.36	1989.50
547.72	1997.05
548.07	2004.48
548.43	2012.14
548.79	2019.86
549.14	2028.03
549.50	2036.37
549.86	2044.13
550.21	2051.43
550.57	2059.18
550.92	2065.96
551.28	2073.27
551.64	2080.44
551.99	2087.70
552.35	2094.88
552.70	2101.63
553.06	2108.37
553.41	2114.72
553.77	2121.25
554.13	2127.64
554.48	2134.73
554.84	2141.82
555.19	2148.29
555.55	2154.62
555.90	2160.78
556.26	2167.49
556.61	2173.57
556.97	2178.32
557.32	2184.14
557.68	2190.59
558.03	2196.24
558.39	2201.72
558.74	2207.78
559.10	2213.39
559.45	2219.13
559.81	2224.72
560.16	2230.38
560.52	2236.28
560.87	2242.65
561.23	2248.61
561.58	2255.17
561.94	2260.32
562.29	2265.14
562.64	2271.38
563.00	2277.20
563.35	2282.91
563.71	2288.72
564.06	2294.40
564.42	2300.54
564.77	2305.67
565.12	2310.85
565.48	2315.93
565.83	2321.31
566.19	2326.82
566.54	2332.25
566.89	2336.88
567.25	2341.44
567.60	2347.14
567.96	2352.31
568.31	2356.82
568.66	2361.11
569.02	2365.23
569.37	2369.06
569.72	2373.51
570.08	2377.01
570.43	2380.23
570.78	2383.51
571.14	2386.09
571.49	2389.40
571.84	2393.11
572.20	2396.17
572.55	2399.43
572.90	2401.99
573.26	2404.97
573.61	2407.62
573.96	2409.93
574.31	2411.93
574.67	2414.02
575.02	2414.88
575.37	2416.51
575.72	2417.47
576.08	2419.11
576.43	2419.31
576.78	2419.90
577.13	2421.46
577.49	2422.84
577.84	2424.04
578.19	2425.45
578.54	2426.27
578.90	2427.15
579.25	2427.05
579.60	2427.17
579.95	2426.62
580.30	2426.75
580.66	2426.29
581.01	2424.80
581.36	2422.67
581.71	2421.74
582.06	2420.65
582.42	2420.04
582.77	2417.98
583.12	2416.55
583.47	2415.31
583.82	2414.94
584.17	2413.89
584.53	2412.14
584.88	2410.16
585.23	2408.41
585.58	2406.26
585.93	2404.44
586.28	2402.43
586.63	2400.17
586.98	2398.00
587.34	2396.16
587.69	2393.96
588.04	2392.16
588.39	2390.82
588.74	2388.44
589.09	2385.68
589.44	2382.63
589.79	2380.31
590.14	2378.55
590.49	2375.76
590.84	2372.13
591.19	2369.19
591.54	2366.11
591.89	2362.21
592.25	2359.16
592.60	2355.01
592.95	2351.05
593.30	2346.96
593.65	2342.64
594.00	2338.33
594.35	2335.50
594.70	2330.91
595.05	2326.39
595.40	2320.88
595.75	2315.14
596.10	2311.65
596.45	2306.95
596.80	2302.51
597.15	2297.38
597.50	2291.43
597.85	2286.58
598.19	2281.46
598.54	2275.62
598.89	2270.38
599.24	2265.75
599.59	2259.58
599.94	2253.85
600.29	2248.00
600.64	2242.07
600.99	2235.27
601.34	2229.80
601.69	2222.74
602.04	2216.37
602.39	2209.70
602.74	2203.60
603.08	2198.24
603.43	2191.68
603.78	2184.85
604.13	2177.83
604.48	2170.46
604.83	2164.49
605.18	2158.48
605.53	2151.57
605.87	2144.68
606.22	2138.03
606.57	2130.21
606.92	2122.22
607.27	2115.43
607.62	2108.74
607.96	2101.71
608.31	2095.33
608.66	2087.51
609.01	2079.97
609.36	2072.89
609.70	2065.32
610.05	2057.54
610.40	2049.05
610.75	2040.72
611.10	2033.04
611.44	2024.13
611.79	2015.51
612.14	2005.51
612.49	1994.73
612.83	1985.29
613.18	1975.99
613.53	1966.57
613.88	1956.90
614.22	1948.32
614.57	1938.36
614.92	1927.67
615.27	1917.44
615.61	1907.31
615.96	1897.73
616.31	1888.15
616.65	1878.58
617.00	1868.73
617.35	1858.98
617.70	1849.21
618.04	1839.16
618.39	1828.99
618.74	1819.28
619.08	1809.56
619.43	1800.70
619.78	1792.33
620.12	1783.70
620.47	1774.07
620.82	1763.73
621.16	1753.90
621.51	1743.86
621.85	1733.95
622.20	1723.56
622.55	1713.06
622.89	1703.05
623.24	1693.25
623.59	1683.38
623.93	1673.18
624.28	1663.36
624.62	1653.23
624.97	1642.85
625.32	1632.92
625.66	1623.96
626.01	1615.13
626.35	1605.72
626.70	1595.56
627.04	1585.38
627.39	1575.15
627.73	1565.68
628.08	1556.63
628.43	1547.06
628.77	1537.78
629.12	1528.74
629.46	1520.86
629.81	1512.40
630.15	1502.85
630.50	1492.93
630.84	1482.30
631.19	1472.43
631.53	1463.05
631.88	1452.78
632.22	1442.78
632.57	1433.45
632.91	1423.12
633.26	1413.15
633.60	1403.39
633.95	1394.11
634.29	1384.57
634.64	1375.22
634.98	1365.17
635.32	1355.89
635.67	1347.24
636.01	1337.90
636.36	1328.14
636.70	1318.52
637.05	1309.04
637.39	1299.98
637.73	1291.24
638.08	1283.64
638.42	1275.39
638.77	1266.53
639.11	1258.21
639.45	1250.37
639.80	1241.72
640.14	1233.01
640.49	1224.14
640.83	1215.31
641.17	1207.02
641.52	1198.87
641.86	1190.14
642.20	1182.21
642.55	1173.52
642.89	1164.63
643.23	1155.93
643.58	1147.75
643.92	1138.66
644.26	1129.88
644.61	1121.39
644.95	1112.54
645.29	1103.25
645.64	1093.92
645.98	1085.37
646.32	1077.45
646.66	1068.84
647.01	1060.48
647.35	1052.23
647.69	1043.71
648.04	1035.29
648.38	1026.31
648.72	1017.45
649.06	1008.98
649.41	1000.75
649.75	992.62
650.09	984.63
650.43	976.51
650.78	968.19
651.12	960.50
651.46	953.06
651.80	945.74
652.14	938.36
652.49	930.71
652.83	923.37
653.17	915.55
653.51	907.83
653.85	900.51
654.20	893.23
654.54	885.68
654.88	878.40
655.22	871.30
655.56	864.32
655.90	857.50
656.25	850.74
656.59	843.82
656.93	836.72
657.27	829.62
657.61	822.66
657.95	816.47
658.29	810.40
658.64	804.21
658.98	797.67
659.32	791.08
659.66	784.86
660.00	778.49
660.34	772.49
660.68	766.37
661.02	760.05
661.36	753.98
661.70	748.21
662.05	742.60
662.39	737.03
662.73	731.64
663.07	726.24
663.41	720.62
663.75	714.94
664.09	709.27
664.43	703.83
664.77	698.49
665.11	692.64
665.45	686.76
665.79	680.93
666.13	675.28
666.47	669.80
666.81	664.37
667.15	658.94
667.49	653.67
667.83	648.35
668.17	643.10
668.51	637.98
668.85	633.06
669.19	628.18
669.53	623.11
669.87	617.97
670.21	613.16
670.55	608.48
670.89	603.95
671.23	599.65
671.57	595.19
671.91	590.83
672.25	586.62
672.58	582.52
672.92	578.51
673.26	574.53
673.60	570.66
673.94	566.87
674.28	563.27
674.62	559.54
674.96	555.80
675.30	552.29
675.64	548.63
675.97	544.97
676.31	541.35
676.65	537.72
676.99	534.32
677.33	530.50
677.67	526.82
678.01	523.01
678.34	519.36
678.68	515.88
679.02	512.32
679.36	508.64
679.70	504.92
680.04	501.36
680.37	497.97
680.71	494.53
681.05	491.33
681.39	488.04
681.73	484.85
682.06	481.85
682.40	478.73
682.74	475.53
683.08	472.34
683.42	469.09
683.75	466.08
684.09	462.96
684.43	460.15
684.77	457.22
685.10	454.36
685.44	451.49
685.78	448.56
686.12	445.79
686.45	443.14
686.79	440.52
687.13	437.99
687.46	435.34
687.80	432.75
688.14	429.89
688.48	427.25
688.81	424.61
689.15	421.99
689.49	419.41
689.82	416.91
690.16	414.32
690.50	411.97
690.83	409.53
691.17	407.04
691.51	404.55
691.84	402.32
692.18	400.10
692.52	397.83
692.85	395.69
693.19	393.55
693.52	391.37
693.86	389.22
694.20	387.01
694.53	384.86
694.87	382.71
695.21	380.63
695.54	378.46
695.88	376.31
696.21	374.11
696.55	372.02
696.88	369.91
697.22	367.96
697.56	366.05
697.89	364.20
698.23	362.46
698.56	360.69
698.90	358.91
699.23	357.03
699.57	355.21
699.90	353.37
700.24	351.52
700.58	349.75
700.91	348.05
701.25	346.53
701.58	344.92
701.92	343.31
702.25	341.70
702.59	340.14
702.92	338.57
703.26	337.01
703.59	335.48
703.93	334.25
704.26	332.81
704.60	331.33
704.93	329.85
705.26	328.34
705.60	326.88
705.93	325.39
706.27	324.06
706.60	322.77
706.94	321.55
707.27	320.24
707.61	318.90
707.94	317.56
708.27	316.00
708.61	314.60
708.94	313.26
709.28	311.97
709.61	310.77
709.94	309.59
710.28	308.46
710.61	307.29
710.95	305.90
711.28	304.81
711.61	303.64
711.95	302.50
712.28	301.31
712.61	300.11
712.95	299.09
713.28	298.05
713.61	296.95
713.95	295.78
714.28	294.76
714.61	293.74
714.95	292.71
715.28	291.70
715.61	290.72
715.95	289.77
716.28	288.80
716.61	287.80
716.95	286.82
717.28	285.85
717.61	284.89
717.94	283.97
718.28	282.97
718.61	282.10
718.94	281.19
719.27	280.36
719.61	279.59
719.94	278.73
720.27	277.76
720.60	276.92
720.94	276.18
721.27	275.40
721.60	274.72
721.93	274.02
722.27	273.39
722.60	272.73
722.93	272.00
723.26	271.33
723.59	270.65
723.93	270.03
724.26	269.39
724.59	268.79
724.92	268.19
725.25	267.62
725.59	267.03
725.92	266.48
726.25	265.92
726.58	265.31
726.91	264.72
727.24	264.20
727.57	263.64
727.91	263.02
728.24	262.47
728.57	261.86
728.90	261.33
729.23	260.72
729.56	260.28
729.89	259.75
730.22	259.19
730.55	258.66
730.89	258.10
731.22	257.60
731.55	257.08
731.88	256.61
732.21	256.09
732.54	255.53
732.87	255.06
733.20	254.58
733.53	254.10
733.86	253.64
734.19	253.11
734.52	252.72
734.85	252.42
735.18	251.92
735.51	251.54
735.84	251.11
736.17	250.72
736.50	250.20
736.83	250.05
737.16	249.69
737.49	249.32
737.82	248.96
738.15	248.57
738.48	248.19
738.81	247.81
739.14	247.41
739.47	247.04
739.80	246.68
740.13	246.35
740.46	245.98
740.79	245.57
741.12	245.23
741.45	244.84
741.78	244.40
742.11	244.17
742.44	243.79
742.77	243.48
743.10	243.13
743.43	242.78
743.75	242.23
744.08	242.16
744.41	241.80
744.74	241.42
745.07	241.06
745.40	240.77
745.73	240.51
746.06	240.20
746.39	239.94
746.71	239.62
747.04	239.24
747.37	238.92
747.70	238.68
748.03	238.42
748.36	238.14
748.68	237.84
749.01	237.51
749.34	237.25
749.67	236.96
750.00	236.69
750.33	236.58
750.65	236.33
750.98	235.81
751.31	235.58
751.64	235.38
751.97	235.29
752.29	234.99
752.62	234.63
752.95	234.38
753.28	234.10
753.60	233.88
753.93	233.74
754.26	233.53
754.59	233.24
754.91	232.99
755.24	232.75
755.57	232.51
755.90	232.26
756.22	232.03
756.55	231.79
756.88	231.55
757.20	231.18
757.53	230.92
757.86	230.72
758.19	230.55
758.51	230.33
758.84	229.99
759.17	229.80
759.49	229.66
759.82	229.58
760.15	229.42
760.47	229.21
760.80	228.94
761.13	228.79
761.45	228.64
761.78	228.43
762.11	228.27
762.43	228.12
762.76	227.93
763.08	227.74
763.41	227.61
763.74	227.49
764.06	227.38
764.39	227.23
764.71	227.09
765.04	226.92
765.37	226.76
765.69	226.63
766.02	226.49
766.34	226.35
766.67	226.14
767.00	226.04
767.32	225.99
767.65	225.99
767.97	225.84
768.30	225.71
768.62	225.61
768.95	225.45
769.27	225.29
769.60	225.21
769.92	225.06
770.25	224.87
770.57	224.68
770.90	224.55
771.22	224.43
771.55	224.31
771.87	224.21
772.20	224.07
772.52	224.14
772.85	224.32
773.17	224.19
773.50	224.05
773.82	223.93
774.15	223.76
774.47	223.53
774.80	223.40
775.12	223.27
775.45	223.19
775.77	223.12
776.09	223.06
776.42	222.95
776.74	222.98
777.07	222.91
777.39	222.85
777.72	222.74
778.04	222.65
778.36	222.55
778.69	222.48
779.01	222.43
779.33	222.18
779.66	221.83
779.98	221.74
780.31	221.70
780.63	221.67
780.95	221.63
781.28	221.56
781.60	221.51
781.92	221.45
782.25	221.39
782.57	221.30
782.89	221.23
783.22	221.15
783.54	221.02
783.86	220.94
784.19	220.88
784.51	220.86
784.83	220.79
785.16	220.72
785.48	220.64
785.80	220.55
786.12	220.49
786.45	220.43
786.77	220.40
787.09	220.31
787.42	220.19
787.74	220.12
788.06	220.07
788.38	219.99
788.71	219.93
789.03	219.86
789.35	219.79
789.67	219.75
789.99	219.71
790.32	219.62
790.64	219.60
790.96	219.67
791.28	219.55
791.61	219.48
791.93	219.45
792.25	219.38
792.57	219.50
792.89	219.43
793.21	219.42
793.54	219.35
793.86	219.27
794.18	219.22
794.50	219.18
794.82	219.12
795.14	219.11
795.47	219.09
795.79	219.05
796.11	218.99
796.43	218.92
796.75	218.88
797.07	218.89
797.39	218.85
797.71	218.70
798.04	218.68
798.36	218.65
798.68	218.62
799.00	218.63
799.32	218.49
799.64	218.48
799.96	218.45
800.28	218.46
800.60	218.45
800.92	218.42
801.24	218.34
801.56	218.36
801.89	218.31
802.21	218.27
802.53	218.22
802.85	218.24
803.17	218.30
803.49	218.25
803.81	218.17
804.13	218.11
804.45	218.06
804.77	218.04
805.09	218.02
805.41	217.95
805.73	217.85
806.05	217.77
806.37	217.71
806.69	217.65
807.01	217.58
807.33	217.58
807.65	217.51
807.97	217.59
808.28	217.51
808.60	217.43
808.92	217.40
809.24	217.50
809.56	217.44
809.88	217.34
810.20	217.32
810.52	217.34
810.84	217.30
811.16	217.24
811.48	217.18
811.80	217.22
812.12	217.20
812.43	217.23
812.75	217.23
813.07	217.20
813.39	217.19
813.71	217.15
814.03	217.11
814.35	217.13
814.67	217.03
814.98	217.01
815.30	217.03
815.62	216.99
815.94	216.82
816.26	216.80
816.58	216.75
816.89	216.75
817.21	216.67
817.53	216.65
817.85	216.66
818.17	216.65
818.48	216.55
818.80	216.58
819.12	216.53
819.44	216.48
819.76	216.44
820.07	216.42
820.39	216.39
820.71	216.39
821.03	216.36
821.34	216.29
821.66	216.31
821.98	216.34
822.30	216.33
822.61	216.47
822.93	216.43
823.25	216.43
823.57	216.39
823.88	216.42
824.20	216.42
824.52	216.46
824.83	216.43
825.15	216.42
825.47	216.40
825.79	216.40
826.10	216.38
826.42	216.37
826.74	216.39
827.05	216.38
827.37	216.38
827.69	216.35
828.00	216.37
828.32	216.34
828.64	216.28
828.95	216.36
829.27	216.31
829.58	216.31
829.90	216.31
830.22	216.36
830.53	216.29
830.85	216.25
831.17	216.17
831.48	216.17
831.80	216.19
832.11	216.16
832.43	216.16
832.75	216.16
833.06	216.26
833.38	216.16
833.69	216.15
834.01	216.16
834.32	216.10
834.64	216.10
834.96	216.10
835.27	216.09
835.59	216.01
835.90	215.92
836.22	215.91
836.53	215.88
836.85	215.84
837.16	216.05
837.48	216.09
837.79	216.15
838.11	216.15
838.42	216.11
838.74	216.10
839.05	216.05
839.37	216.02
839.68	215.89
840.00	215.87
840.31	215.91
840.63	215.85
840.94	215.87
841.26	215.84
841.57	215.83
841.88	215.85
842.20	215.83
842.51	215.79
842.83	215.78
843.14	215.94
843.46	215.95
843.77	215.81
844.08	215.78
844.40	215.71
844.71	215.72
845.03	215.71
845.34	215.69
845.65	215.72
845.97	215.74
846.28	215.75
846.60	215.76
846.91	215.70
847.22	215.68
847.54	215.73
847.85	215.75
848.16	215.73
848.48	215.67
848.79	215.72
849.10	215.74
849.42	215.77
849.73	215.59
850.04	215.53
850.36	215.49
850.67	215.49
850.98	215.52
851.30	215.51
851.61	215.52
851.92	215.51
852.23	215.54
852.55	215.51
852.86	215.53
853.17	215.54
853.49	215.59
853.80	215.65
854.11	215.67
854.42	215.69
854.74	215.64
855.05	215.67
855.36	215.57
855.67	215.62
855.99	215.63
856.30	215.84
856.61	215.83
856.92	215.80
857.23	215.81
857.55	215.78
857.86	215.75
858.17	215.77
858.48	215.76
858.79	215.70
859.11	215.75
859.42	215.73
859.73	215.69
860.04	215.69
860.35	215.63
860.66	215.54
860.98	215.52
861.29	215.54
861.60	215.52
861.91	215.58
862.22	215.50
862.53	215.45
862.84	215.20
863.16	215.26
863.47	215.25
863.78	215.20
864.09	215.22
864.40	215.23
864.71	215.22
865.02	215.21
865.33	215.16
865.64	215.11
865.95	215.09
866.27	215.25
866.58	215.18
866.89	215.18
867.20	215.18
867.51	215.14
867.82	215.12
868.13	215.17
868.44	215.11
868.75	215.13
869.06	215.13
869.37	215.20
869.68	215.14
869.99	215.18
870.30	215.19
870.61	215.17
870.92	215.13
871.23	215.08
871.54	215.13
871.85	215.17
872.16	215.18
872.47	215.16
872.78	215.02
873.09	215.06
873.40	215.05
873.71	215.05
874.02	215.06
874.33	215.06
874.64	215.00
874.95	215.00
875.26	214.94
875.56	214.92
875.87	214.89
876.18	214.83
876.49	215.00
876.80	214.98
877.11	214.94
877.42	214.94
877.73	214.93
878.04	214.89
878.35	214.92
878.66	214.97
878.96	214.96
879.27	214.97
879.58	214.93
879.89	214.93
880.20	215.01
880.51	215.00
880.82	214.96
881.12	214.98
881.43	214.94
881.74	214.96
882.05	214.93
882.36	214.94
882.67	215.01
882.97	214.81
883.28	214.79
883.59	214.81
883.90	214.83
884.21	214.88
884.51	214.86
884.82	214.84
885.13	214.82
885.44	214.82
885.74	214.79
886.05	214.77
886.36	214.79
886.67	214.70
886.98	214.81
887.28	214.86
887.59	214.85
887.90	214.84
888.20	214.83
888.51	214.88
888.82	214.85
889.13	214.84
889.43	214.99
889.74	214.97
890.05	214.98
890.35	214.97
890.66	214.91
890.97	214.90
891.28	214.86
891.58	214.85
891.89	214.85
892.20	214.86
892.50	214.84
892.81	214.83
893.12	214.84
893.42	214.71
893.73	214.70
894.04	214.71
894.34	214.75
894.65	214.76
894.95	214.75
895.26	214.78
895.57	214.85
895.87	214.67
896.18	214.71
896.48	214.71
896.79	214.67
897.10	214.71
897.40	214.71
897.71	214.73
898.01	214.71
898.32	214.72
898.63	214.72
898.93	214.73
899.24	214.71
899.54	214.70
899.85	214.73
900.15	214.76
900.46	214.76
900.76	214.79
901.07	214.78
901.38	214.77
901.68	214.76
901.99	214.68
902.29	214.72
902.60	214.71
902.90	214.70
903.21	214.73
903.51	214.72
903.82	214.79
904.12	214.79
904.43	214.83
904.73	214.83
905.03	214.82
905.34	215.06
905.64	215.03
905.95	215.01
906.25	214.97
906.56	214.94
906.86	214.93
907.17	214.90
907.47	214.91
907.77	214.87
908.08	214.83
908.38	214.85
908.69	214.86
908.99	214.90
909.30	214.91
909.60	214.92
909.90	214.91
910.21	214.84
910.51	214.81
910.81	214.77
911.12	214.77
911.42	214.77
911.73	214.54
912.03	214.58
912.33	214.64
912.64	214.65
912.94	214.64
913.24	214.60
913.55	214.60
913.85	214.60
914.15	214.66
914.46	214.71
914.76	214.66
915.06	214.64
915.37	214.61
915.67	214.58
915.97	214.58
916.27	214.57
916.58	214.57
916.88	214.57
917.18	214.54
917.49	214.70
917.79	214.69
918.09	214.70
918.39	214.77
918.70	214.73
919.00	214.73
919.30	214.82
919.60	214.80
919.91	214.77
920.21	214.82
920.51	214.77
920.81	214.74
921.12	214.74
921.42	214.71
921.72	214.70
922.02	214.72
922.32	214.73
922.63	214.72
922.93	214.85
923.23	214.87
923.53	214.86
923.83	214.70
924.13	214.73
924.44	214.74
924.74	214.75
925.04	214.77
925.34	214.78
925.64	214.70
925.94	214.74
926.24	214.84
926.55	214.76
926.85	214.77
927.15	214.80
927.45	214.84
927.75	214.84
928.05	214.86
928.35	214.84
928.65	214.88
928.95	214.89
929.26	214.79
929.56	214.80
929.86	214.83
930.16	214.81
930.46	214.81
930.76	214.81
931.06	214.71
931.36	214.69
931.66	214.72
931.96	214.73
932.26	214.74
932.56	214.68
932.86	214.73
933.16	214.74
933.46	214.68
933.76	214.69
934.06	214.75
934.36	214.81
934.66	214.80
934.96	214.76
935.26	214.76
935.56	214.83
935.86	214.80
936.16	214.79
936.46	214.79
936.76	214.75
937.06	214.74
937.36	214.75
937.66	214.75
937.96	214.72
938.26	214.67
938.56	214.64
938.86	214.66
939.16	214.67
939.46	214.71
939.76	214.74
940.06	214.73
940.35	214.68
940.65	214.58
940.95	214.58
941.25	214.55
941.55	214.51
941.85	214.47
942.15	214.52
942.45	214.57
942.75	214.60
943.04	214.62
943.34	214.66
943.64	214.64
943.94	214.63
944.24	214.64
944.54	214.65
944.84	214.66
945.13	214.62
945.43	214.57
945.73	214.52
946.03	214.49
946.33	214.47
946.62	214.44
946.92	214.44
947.22	214.47
947.52	214.48
947.82	214.53
948.11	214.50
948.41	214.44
948.71	214.38
949.01	214.36
949.31	214.34
949.60	214.31
949.90	214.34
950.20	214.33
950.50	214.30
950.79	214.29
951.09	214.32
951.39	214.31
951.69	214.31
951.98	214.34
952.28	214.33
952.58	214.32
952.87	214.32
953.17	214.37
953.47	214.31
953.76	214.32
954.06	214.29
954.36	214.26
954.66	214.28
954.95	214.32
955.25	214.33
955.55	214.38
955.84	214.34
956.14	214.37
956.44	214.36
956.73	214.36
957.03	214.36
957.32	214.35
957.62	214.34
957.92	214.38
958.21	214.36
958.51	214.63
958.81	214.64
959.10	214.68
959.40	214.71
959.69	214.77
959.99	214.79
960.29	214.78
960.58	214.80
960.88	214.85
961.17	214.82
961.47	214.84
961.76	214.80
962.06	214.85
962.36	214.82
962.65	214.84
962.95	214.84
963.24	214.84
963.54	214.86
963.83	214.87
964.13	214.85
964.42	214.82
964.72	214.61
965.01	214.64
965.31	214.62
965.60	214.58
965.90	214.72
966.19	214.67
966.49	214.71
966.78	214.67
967.08	214.67
967.37	214.68
967.67	214.66
967.96	214.68
968.26	214.65
968.55	214.68
968.85	214.69
969.14	214.70
969.43	214.72
969.73	214.67
970.02	214.66
970.32	214.68
970.61	214.66
970.91	214.61
971.20	214.56
971.49	214.55
971.79	214.56
972.08	214.37
972.38	214.42
972.67	214.38
972.96	214.43
973.26	214.36
973.55	214.42
973.85	214.39
974.14	214.38
974.43	214.41
974.73	214.38
975.02	214.33
975.31	214.33
975.61	214.30
975.90	214.33
976.19	214.33
976.49	214.34
976.78	214.35
977.07	214.35
977.37	214.37
977.66	214.36
977.95	214.33
978.24	214.36
978.54	214.37
978.83	214.36
979.12	214.36
979.42	214.39
979.71	214.35
980.00	214.38
980.29	214.39
980.59	214.31
980.88	214.38
981.17	214.40
981.46	214.41
981.76	214.40
982.05	214.42
982.34	214.44
982.63	214.43
982.93	214.43
983.22	214.46
983.51	214.49
983.80	214.52
984.09	214.54
984.39	214.54
984.68	214.51
984.97	214.52
985.26	214.48
985.55	214.48
985.85	214.44
986.14	214.42
986.43	214.44
986.72	214.45
987.01	214.34
987.30	214.34
987.59	214.31
987.89	214.32
988.18	214.25
988.47	214.22
988.76	214.19
989.05	214.20
989.34	214.19
989.63	214.20
989.92	214.17
990.22	214.14
990.51	214.12
990.80	214.07
991.09	214.09
991.38	214.12
991.67	214.11
991.96	214.10
992.25	214.13
992.54	214.10
992.83	214.14
993.12	214.16
993.41	214.18
993.70	214.28
993.99	214.31
994.28	214.38
994.58	214.43
994.87	214.40
995.16	214.38
995.45	214.35
995.74	214.32
996.03	214.36
996.32	214.42
996.61	214.48
996.90	214.50
997.19	214.50
997.48	214.52
997.77	214.54
998.06	214.55
998.34	214.54
998.63	214.52
998.92	214.51
999.21	214.55
999.50	214.60
999.79	214.53
1000.08	214.53
1000.37	214.51
1000.66	214.48
1000.95	214.58
1001.24	214.62
1001.53	214.66
1001.82	214.65
1002.11	214.58
1002.40	214.60
1002.68	214.65
1002.97	214.79
1003.26	214.77
1003.55	214.71
1003.84	214.68
1004.13	214.74
1004.42	214.75
1004.71	214.75
1004.99	214.72
1005.28	214.76
1005.57	214.74
1005.86	214.73
1006.15	214.71
1006.44	214.67
1006.72	214.70
1007.01	214.62
1007.30	214.61
1007.59	214.60
1007.88	214.56
1008.17	214.57
1008.45	214.49
1008.74	214.39
1009.03	214.29
1009.32	214.30
1009.60	214.30
1009.89	214.30
1010.18	214.22
1010.47	214.18
1010.76	214.18
1011.04	214.19
1011.33	214.18
1011.62	214.18
1011.91	214.19
1012.19	214.23
1012.48	214.26
1012.77	214.26
1013.05	214.40
1013.34	214.42
1013.63	214.42
1013.92	214.47
1014.20	214.48
1014.49	214.52
1014.78	214.55
1015.06	214.52
1015.35	214.51
1015.64	214.56
1015.92	214.57
1016.21	214.58
1016.50	214.61
1016.78	214.64
1017.07	214.72
1017.36	214.64
1017.64	214.60
1017.93	214.60
1018.22	214.53
1018.50	214.48
1018.79	214.45
1019.08	214.32
1019.36	214.30
1019.65	214.26
1019.93	214.27
1020.22	214.29
1020.51	214.38
1020.79	214.35
1021.08	213.57
1021.36	213.38
1021.65	214.21
1021.94	214.21
1022.22	214.06
1022.51	213.86
1022.79	214.66
1023.08	214.49
1023.36	216.78
1023.65	213.89
>>>>>End Processed Spectral Data<<<<<
