SpectraSuite Data File
++++++++++++++++++++++++++++++++++++
Date: Tue Jan 29 16:15:37 EST 2013
User: group
Dark Spectrum Present: No
Reference Spectrum Present: No
Number of Sampled Component Spectra: 1
Spectrometers: USB2E7196
Integration Time (usec): 65000 (USB2E7196)
Spectra Averaged: 100 (USB2E7196)
Boxcar Smoothing: 10 (USB2E7196)
Correct for Electrical Dark: No (USB2E7196)
Strobe/Lamp Enabled: No (USB2E7196)
Correct for Detector Non-linearity: No (USB2E7196)
Correct for Stray Light: No (USB2E7196)
Number of Pixels in Processed Spectrum: 2048
>>>>>Begin Processed Spectral Data<<<<<
339.09	0.00
339.48	202.32
339.86	203.33
340.24	205.60
340.63	206.43
341.01	210.95
341.39	209.37
341.78	210.78
342.16	212.25
342.54	212.85
342.93	201.61
343.31	211.81
343.69	212.37
344.07	212.86
344.46	213.29
344.84	213.71
345.22	213.89
345.60	214.16
345.99	214.37
346.37	214.53
346.75	214.63
347.13	214.71
347.52	214.74
347.90	214.88
348.28	214.90
348.66	214.98
349.05	214.93
349.43	215.01
349.81	215.11
350.19	215.17
350.57	215.26
350.96	215.38
351.34	215.45
351.72	215.54
352.10	215.64
352.48	215.74
352.87	215.77
353.25	215.83
353.63	215.89
354.01	215.92
354.39	215.96
354.77	216.05
355.15	216.18
355.54	216.24
355.92	216.22
356.30	216.32
356.68	216.53
357.06	216.62
357.44	216.64
357.82	216.69
358.20	216.78
358.58	216.84
358.97	216.89
359.35	216.98
359.73	217.09
360.11	217.16
360.49	217.22
360.87	217.29
361.25	217.37
361.63	217.49
362.01	217.52
362.39	217.54
362.77	217.57
363.15	217.58
363.53	217.60
363.91	217.65
364.29	217.66
364.67	217.45
365.05	217.50
365.43	217.51
365.81	217.56
366.19	217.58
366.57	217.65
366.95	217.65
367.33	217.62
367.71	217.61
368.09	217.68
368.47	217.63
368.85	217.58
369.23	217.62
369.61	217.51
369.99	217.58
370.37	217.62
370.75	217.70
371.13	217.65
371.51	217.62
371.89	217.58
372.27	217.59
372.65	217.57
373.03	217.52
373.41	217.48
373.78	217.41
374.16	217.30
374.54	217.22
374.92	217.17
375.30	217.12
375.68	217.03
376.06	216.97
376.44	216.93
376.82	216.94
377.19	216.88
377.57	216.86
377.95	216.77
378.33	216.71
378.71	216.53
379.09	216.54
379.47	216.54
379.84	216.47
380.22	216.40
380.60	216.29
380.98	216.27
381.36	216.24
381.73	216.19
382.11	216.22
382.49	216.20
382.87	216.14
383.25	216.08
383.62	216.32
384.00	216.24
384.38	216.21
384.76	216.17
385.13	216.20
385.51	216.16
385.89	216.09
386.27	216.06
386.64	216.07
387.02	215.97
387.40	215.90
387.78	215.90
388.15	215.89
388.53	215.90
388.91	215.89
389.29	215.84
389.66	215.84
390.04	215.77
390.42	215.77
390.79	215.77
391.17	215.76
391.55	215.49
391.92	215.47
392.30	215.48
392.68	215.45
393.05	215.42
393.43	215.42
393.81	215.43
394.18	215.41
394.56	215.39
394.94	215.47
395.31	215.46
395.69	215.51
396.06	215.54
396.44	215.59
396.82	215.58
397.19	215.69
397.57	215.71
397.95	215.79
398.32	215.73
398.70	215.77
399.07	215.90
399.45	215.93
399.82	215.98
400.20	216.03
400.58	216.09
400.95	216.07
401.33	216.19
401.70	216.41
402.08	216.47
402.45	216.58
402.83	216.69
403.20	216.82
403.58	216.93
403.95	217.07
404.33	217.21
404.71	217.36
405.08	217.62
405.46	217.80
405.83	217.95
406.21	218.21
406.58	218.42
406.96	218.58
407.33	218.85
407.70	219.14
408.08	219.56
408.45	219.90
408.83	220.30
409.20	220.60
409.58	220.86
409.95	221.30
410.33	221.79
410.70	222.20
411.08	222.73
411.45	223.26
411.82	223.79
412.20	224.47
412.57	225.28
412.95	225.84
413.32	226.61
413.69	227.44
414.07	228.29
414.44	229.24
414.82	230.24
415.19	231.39
415.56	232.55
415.94	233.71
416.31	235.07
416.68	236.42
417.06	237.99
417.43	239.48
417.81	241.17
418.18	242.89
418.55	244.77
418.93	246.73
419.30	248.79
419.67	250.96
420.04	253.12
420.42	255.44
420.79	258.17
421.16	260.89
421.54	263.64
421.91	266.53
422.28	269.53
422.66	272.75
423.03	275.88
423.40	279.08
423.77	282.53
424.15	286.06
424.52	289.76
424.89	293.79
425.26	297.75
425.64	301.51
426.01	305.64
426.38	309.96
426.75	314.34
427.13	318.86
427.50	323.70
427.87	328.71
428.24	333.72
428.61	338.52
428.99	343.82
429.36	349.64
429.73	355.35
430.10	361.02
430.47	366.80
430.85	372.90
431.22	379.39
431.59	386.29
431.96	392.89
432.33	400.16
432.70	407.17
433.08	415.40
433.45	423.17
433.82	430.91
434.19	439.49
434.56	447.90
434.93	456.02
435.30	463.98
435.68	472.85
436.05	481.53
436.42	490.12
436.79	498.00
437.16	506.44
437.53	515.33
437.90	524.18
438.27	532.83
438.64	541.71
439.01	549.90
439.38	557.20
439.75	564.29
440.13	572.39
440.50	580.05
440.87	586.23
441.24	592.71
441.61	599.83
441.98	605.02
442.35	611.14
442.72	617.21
443.09	623.05
443.46	626.63
443.83	629.00
444.20	631.10
444.57	634.15
444.94	635.57
445.31	637.02
445.68	638.39
446.05	639.01
446.42	638.20
446.79	637.32
447.16	636.31
447.53	635.56
447.90	632.30
448.27	629.13
448.64	624.62
449.01	621.32
449.37	615.52
449.74	610.01
450.11	603.35
450.48	596.17
450.85	589.00
451.22	582.78
451.59	576.91
451.96	571.33
452.33	563.71
452.70	556.90
453.07	548.71
453.43	540.37
453.80	532.41
454.17	524.81
454.54	517.49
454.91	509.61
455.28	501.93
455.65	494.87
456.02	487.66
456.38	481.61
456.75	474.11
457.12	467.85
457.49	461.64
457.86	455.71
458.23	450.62
458.59	444.90
458.96	439.07
459.33	433.94
459.70	428.74
460.07	424.64
460.43	419.93
460.80	415.53
461.17	411.66
461.54	407.58
461.91	403.69
462.27	399.75
462.64	396.44
463.01	392.77
463.38	389.17
463.74	385.57
464.11	382.43
464.48	379.67
464.85	376.66
465.21	374.31
465.58	371.73
465.95	368.65
466.32	366.17
466.68	363.73
467.05	361.25
467.42	358.83
467.78	356.26
468.15	353.80
468.52	351.93
468.88	349.59
469.25	347.46
469.62	345.73
469.98	343.88
470.35	342.15
470.72	340.53
471.08	338.82
471.45	337.38
471.82	335.97
472.18	334.40
472.55	333.27
472.92	331.92
473.28	330.76
473.65	329.67
474.02	328.55
474.38	327.71
474.75	326.98
475.11	326.19
475.48	325.69
475.85	325.27
476.21	324.87
476.58	324.53
476.94	324.36
477.31	324.07
477.67	323.86
478.04	323.72
478.41	323.71
478.77	323.91
479.14	323.90
479.50	324.00
479.87	324.30
480.23	324.66
480.60	324.92
480.96	325.24
481.33	325.88
481.69	326.47
482.06	326.97
482.42	327.45
482.79	328.06
483.15	328.85
483.52	329.80
483.88	330.67
484.25	331.65
484.61	332.69
484.98	333.72
485.34	335.04
485.71	336.36
486.07	337.78
486.44	339.06
486.80	340.69
487.17	342.32
487.53	344.09
487.90	345.96
488.26	347.99
488.62	350.14
488.99	352.19
489.35	354.36
489.72	356.75
490.08	359.28
490.44	361.82
490.81	364.49
491.17	367.21
491.54	370.13
491.90	373.16
492.26	376.36
492.63	379.79
492.99	383.22
493.36	386.89
493.72	390.75
494.08	394.74
494.45	398.87
494.81	403.24
495.17	407.71
495.54	412.35
495.90	417.18
496.26	422.09
496.63	427.19
496.99	432.56
497.35	438.06
497.72	443.85
498.08	449.78
498.44	455.89
498.80	462.24
499.17	468.74
499.53	475.38
499.89	482.24
500.26	489.20
500.62	496.28
500.98	503.69
501.34	511.18
501.71	518.91
502.07	526.68
502.43	534.63
502.79	542.68
503.16	551.01
503.52	559.51
503.88	568.11
504.24	577.07
504.60	586.03
504.97	595.16
505.33	604.35
505.69	614.07
506.05	623.85
506.41	633.57
506.78	643.56
507.14	653.73
507.50	664.04
507.86	674.58
508.22	685.30
508.59	695.87
508.95	706.81
509.31	717.99
509.67	729.43
510.03	740.76
510.39	752.39
510.75	764.09
511.12	775.90
511.48	787.95
511.84	800.11
512.20	812.29
512.56	824.84
512.92	837.55
513.28	850.14
513.64	862.71
514.00	875.46
514.37	888.22
514.73	901.17
515.09	914.02
515.45	926.75
515.81	939.56
516.17	952.70
516.53	965.68
516.89	978.53
517.25	991.47
517.61	1004.89
517.97	1018.08
518.33	1031.05
518.69	1044.27
519.05	1057.83
519.41	1071.15
519.77	1084.88
520.13	1098.01
520.49	1110.86
520.85	1123.91
521.21	1137.08
521.57	1150.57
521.93	1163.48
522.29	1176.91
522.65	1190.35
523.01	1203.73
523.37	1216.66
523.73	1229.68
524.09	1242.53
524.45	1255.66
524.81	1268.91
525.17	1281.90
525.53	1294.88
525.89	1307.97
526.25	1320.83
526.61	1333.28
526.97	1346.17
527.33	1358.78
527.68	1371.79
528.04	1384.98
528.40	1397.83
528.76	1410.79
529.12	1423.25
529.48	1436.23
529.84	1448.27
530.20	1460.62
530.56	1472.90
530.91	1485.89
531.27	1498.46
531.63	1511.05
531.99	1523.54
532.35	1535.39
532.71	1547.40
533.07	1559.89
533.42	1571.68
533.78	1583.49
534.14	1595.26
534.50	1606.12
534.86	1617.42
535.21	1627.97
535.57	1639.20
535.93	1650.27
536.29	1661.14
536.65	1672.34
537.00	1682.99
537.36	1693.98
537.72	1704.73
538.08	1715.74
538.44	1726.32
538.79	1737.08
539.15	1747.58
539.51	1757.91
539.87	1768.98
540.22	1779.50
540.58	1790.13
540.94	1800.73
541.29	1810.70
541.65	1820.23
542.01	1830.47
542.37	1840.18
542.72	1850.16
543.08	1859.58
543.44	1869.73
543.79	1878.63
544.15	1887.69
544.51	1897.39
544.87	1907.01
545.22	1915.96
545.58	1924.68
545.94	1933.29
546.29	1941.60
546.65	1949.63
547.01	1957.81
547.36	1965.23
547.72	1972.75
548.07	1980.07
548.43	1987.52
548.79	1995.05
549.14	2002.84
549.50	2011.03
549.86	2018.63
550.21	2025.67
550.57	2033.25
550.92	2039.70
551.28	2047.00
551.64	2054.16
551.99	2061.36
552.35	2068.22
552.70	2074.76
553.06	2081.16
553.41	2087.06
553.77	2093.36
554.13	2099.55
554.48	2106.25
554.84	2113.06
555.19	2119.31
555.55	2125.72
555.90	2131.94
556.26	2138.57
556.61	2144.37
556.97	2149.18
557.32	2154.91
557.68	2161.31
558.03	2166.79
558.39	2171.94
558.74	2177.76
559.10	2183.11
559.45	2188.64
559.81	2194.09
560.16	2199.59
560.52	2205.46
560.87	2211.91
561.23	2217.78
561.58	2224.52
561.94	2229.62
562.29	2234.49
562.64	2240.64
563.00	2246.05
563.35	2251.64
563.71	2257.57
564.06	2263.30
564.42	2269.15
564.77	2274.25
565.12	2279.50
565.48	2284.76
565.83	2290.41
566.19	2295.89
566.54	2301.34
566.89	2305.96
567.25	2310.60
567.60	2316.24
567.96	2321.36
568.31	2326.01
568.66	2330.16
569.02	2334.00
569.37	2338.02
569.72	2342.26
570.08	2345.74
570.43	2348.87
570.78	2351.94
571.14	2354.56
571.49	2357.70
571.84	2361.36
572.20	2364.21
572.55	2367.22
572.90	2369.54
573.26	2372.48
573.61	2375.01
573.96	2377.20
574.31	2379.28
574.67	2381.29
575.02	2382.24
575.37	2383.84
575.72	2384.72
576.08	2386.34
576.43	2386.71
576.78	2387.43
577.13	2389.37
577.49	2390.65
577.84	2392.06
578.19	2393.57
578.54	2394.27
578.90	2395.34
579.25	2395.32
579.60	2395.53
579.95	2395.19
580.30	2395.47
580.66	2394.97
581.01	2393.50
581.36	2391.35
581.71	2390.17
582.06	2389.41
582.42	2388.81
582.77	2386.70
583.12	2385.30
583.47	2384.27
583.82	2383.78
584.17	2382.55
584.53	2380.53
584.88	2378.63
585.23	2376.73
585.58	2374.59
585.93	2372.55
586.28	2370.54
586.63	2368.24
586.98	2366.13
587.34	2364.10
587.69	2361.95
588.04	2359.98
588.39	2358.76
588.74	2356.50
589.09	2353.91
589.44	2350.79
589.79	2348.41
590.14	2346.78
590.49	2344.04
590.84	2340.41
591.19	2337.51
591.54	2334.36
591.89	2330.39
592.25	2327.44
592.60	2323.39
592.95	2319.44
593.30	2315.40
593.65	2311.09
594.00	2306.92
594.35	2304.00
594.70	2299.59
595.05	2294.97
595.40	2289.70
595.75	2284.20
596.10	2280.68
596.45	2275.95
596.80	2271.56
597.15	2266.47
597.50	2260.56
597.85	2255.74
598.19	2250.56
598.54	2244.87
598.89	2239.77
599.24	2235.31
599.59	2229.15
599.94	2223.67
600.29	2218.00
600.64	2212.29
600.99	2205.73
601.34	2200.41
601.69	2193.46
602.04	2187.23
602.39	2181.00
602.74	2175.03
603.08	2169.47
603.43	2163.26
603.78	2156.58
604.13	2149.53
604.48	2142.46
604.83	2136.44
605.18	2130.24
605.53	2123.42
605.87	2116.49
606.22	2109.82
606.57	2102.13
606.92	2094.43
607.27	2087.43
607.62	2080.71
607.96	2073.68
608.31	2067.24
608.66	2059.54
609.01	2052.18
609.36	2045.12
609.70	2037.44
610.05	2029.71
610.40	2021.52
610.75	2013.15
611.10	2005.70
611.44	1997.09
611.79	1988.43
612.14	1978.57
612.49	1968.10
612.83	1958.90
613.18	1949.80
613.53	1940.51
613.88	1930.96
614.22	1922.43
614.57	1912.72
614.92	1902.33
615.27	1892.46
615.61	1882.52
615.96	1872.82
616.31	1863.37
616.65	1854.03
617.00	1844.09
617.35	1834.57
617.70	1824.86
618.04	1814.87
618.39	1804.45
618.74	1794.75
619.08	1785.19
619.43	1776.54
619.78	1768.38
620.12	1759.70
620.47	1749.96
620.82	1739.80
621.16	1730.12
621.51	1720.16
621.85	1710.28
622.20	1699.79
622.55	1689.23
622.89	1679.35
623.24	1669.78
623.59	1659.93
623.93	1649.91
624.28	1640.29
624.62	1630.13
624.97	1619.93
625.32	1610.22
625.66	1601.55
626.01	1592.77
626.35	1583.28
626.70	1573.22
627.04	1563.05
627.39	1553.00
627.73	1543.75
628.08	1534.66
628.43	1524.90
628.77	1515.75
629.12	1506.97
629.46	1499.22
629.81	1490.85
630.15	1481.24
630.50	1471.40
630.84	1461.00
631.19	1451.15
631.53	1441.82
631.88	1431.71
632.22	1421.73
632.57	1412.41
632.91	1402.26
633.26	1392.38
633.60	1383.00
633.95	1373.81
634.29	1364.50
634.64	1355.33
634.98	1345.46
635.32	1336.26
635.67	1327.98
636.01	1318.76
636.36	1308.97
636.70	1299.56
637.05	1290.20
637.39	1281.28
637.73	1272.69
638.08	1265.09
638.42	1256.77
638.77	1248.03
639.11	1239.83
639.45	1232.06
639.80	1223.44
640.14	1214.82
640.49	1206.06
640.83	1197.20
641.17	1189.09
641.52	1180.92
641.86	1172.36
642.20	1164.63
642.55	1156.12
642.89	1147.19
643.23	1138.47
643.58	1130.47
643.92	1121.37
644.26	1112.81
644.61	1104.42
644.95	1095.73
645.29	1086.61
645.64	1077.57
645.98	1069.24
646.32	1061.37
646.66	1052.88
647.01	1044.63
647.35	1036.51
647.69	1028.13
648.04	1019.95
648.38	1011.03
648.72	1002.26
649.06	993.78
649.41	985.60
649.75	977.62
650.09	969.89
650.43	961.91
650.78	953.76
651.12	946.15
651.46	938.75
651.80	931.60
652.14	924.33
652.49	916.88
652.83	909.66
653.17	902.01
653.51	894.45
653.85	887.31
654.20	880.09
654.54	872.64
654.88	865.57
655.22	858.38
655.56	851.54
655.90	844.84
656.25	838.30
656.59	831.43
656.93	824.56
657.27	817.52
657.61	810.77
657.95	804.70
658.29	798.94
658.64	792.88
658.98	786.49
659.32	779.99
659.66	773.78
660.00	767.42
660.34	761.46
660.68	755.40
661.02	749.14
661.36	743.30
661.70	737.65
662.05	732.02
662.39	726.72
662.73	721.43
663.07	716.17
663.41	710.68
663.75	705.20
664.09	699.63
664.43	694.30
664.77	688.97
665.11	683.25
665.45	677.33
665.79	671.62
666.13	666.02
666.47	660.65
666.81	655.36
667.15	650.11
667.49	644.95
667.83	639.81
668.17	634.64
668.51	629.63
668.85	624.79
669.19	619.99
669.53	615.02
669.87	610.01
670.21	605.29
670.55	600.58
670.89	596.14
671.23	591.94
671.57	587.62
671.91	583.39
672.25	579.29
672.58	575.25
672.92	571.32
673.26	567.50
673.60	563.70
673.94	559.93
674.28	556.40
674.62	552.74
674.96	549.05
675.30	545.61
675.64	542.02
675.97	538.48
676.31	534.96
676.65	531.43
676.99	528.04
677.33	524.26
677.67	520.69
678.01	516.89
678.34	513.28
678.68	509.82
679.02	506.24
679.36	502.59
679.70	499.06
680.04	495.54
680.37	492.11
680.71	488.84
681.05	485.72
681.39	482.55
681.73	479.43
682.06	476.51
682.40	473.48
682.74	470.34
683.08	467.16
683.42	464.09
683.75	461.12
684.09	458.18
684.43	455.42
684.77	452.51
685.10	449.78
685.44	446.86
685.78	443.97
686.12	441.31
686.45	438.63
686.79	436.06
687.13	433.59
687.46	430.95
687.80	428.30
688.14	425.49
688.48	422.91
688.81	420.28
689.15	417.75
689.49	415.24
689.82	412.80
690.16	410.25
690.50	407.79
690.83	405.37
691.17	402.85
691.51	400.46
691.84	398.31
692.18	396.10
692.52	393.95
692.85	391.85
693.19	389.74
693.52	387.68
693.86	385.49
694.20	383.37
694.53	381.36
694.87	379.25
695.21	377.24
695.54	375.15
695.88	373.06
696.21	370.85
696.55	368.72
696.88	366.67
697.22	364.79
697.56	363.00
697.89	361.17
698.23	359.49
698.56	357.75
698.90	356.02
699.23	354.15
699.57	352.32
699.90	350.54
700.24	348.77
700.58	347.01
700.91	345.41
701.25	343.82
701.58	342.24
701.92	340.74
702.25	339.12
702.59	337.54
702.92	336.03
703.26	334.53
703.59	333.11
703.93	331.89
704.26	330.47
704.60	328.96
704.93	327.50
705.26	325.98
705.60	324.52
705.93	323.00
706.27	321.76
706.60	320.62
706.94	319.43
707.27	318.08
707.61	316.83
707.94	315.51
708.27	314.04
708.61	312.62
708.94	311.25
709.28	310.05
709.61	308.83
709.94	307.68
710.28	306.52
710.61	305.35
710.95	303.95
711.28	302.93
711.61	301.76
711.95	300.67
712.28	299.55
712.61	298.42
712.95	297.41
713.28	296.37
713.61	295.17
713.95	294.01
714.28	293.03
714.61	291.99
714.95	291.00
715.28	290.03
715.61	289.07
715.95	288.16
716.28	287.19
716.61	286.25
716.95	285.26
717.28	284.37
717.61	283.42
717.94	282.55
718.28	281.53
718.61	280.70
718.94	279.78
719.27	278.94
719.61	278.15
719.94	277.33
720.27	276.38
720.60	275.58
720.94	274.81
721.27	274.07
721.60	273.43
721.93	272.73
722.27	272.11
722.60	271.45
722.93	270.74
723.26	270.11
723.59	269.41
723.93	268.84
724.26	268.17
724.59	267.59
724.92	267.04
725.25	266.52
725.59	265.97
725.92	265.48
726.25	264.92
726.58	264.33
726.91	263.74
727.24	263.25
727.57	262.70
727.91	262.11
728.24	261.57
728.57	261.01
728.90	260.44
729.23	259.83
729.56	259.43
729.89	258.88
730.22	258.31
730.55	257.79
730.89	257.21
731.22	256.70
731.55	256.21
731.88	255.68
732.21	255.16
732.54	254.64
732.87	254.17
733.20	253.74
733.53	253.29
733.86	252.86
734.19	252.35
734.52	251.98
734.85	251.71
735.18	251.25
735.51	250.86
735.84	250.47
736.17	250.12
736.50	249.59
736.83	249.48
737.16	249.12
737.49	248.82
737.82	248.43
738.15	248.07
738.48	247.70
738.81	247.33
739.14	246.93
739.47	246.56
739.80	246.16
740.13	245.80
740.46	245.45
740.79	245.08
741.12	244.75
741.45	244.35
741.78	243.97
742.11	243.73
742.44	243.35
742.77	243.07
743.10	242.72
743.43	242.39
743.75	241.78
744.08	241.71
744.41	241.35
744.74	241.03
745.07	240.67
745.40	240.34
745.73	240.11
746.06	239.81
746.39	239.52
746.71	239.22
747.04	238.85
747.37	238.53
747.70	238.24
748.03	237.94
748.36	237.70
748.68	237.38
749.01	236.99
749.34	236.70
749.67	236.40
750.00	236.14
750.33	236.02
750.65	235.82
750.98	235.34
751.31	235.09
751.64	234.89
751.97	234.80
752.29	234.55
752.62	234.20
752.95	233.94
753.28	233.70
753.60	233.46
753.93	233.32
754.26	233.11
754.59	232.85
754.91	232.61
755.24	232.38
755.57	232.15
755.90	231.96
756.22	231.74
756.55	231.46
756.88	231.21
757.20	230.87
757.53	230.58
757.86	230.36
758.19	230.15
758.51	229.95
758.84	229.64
759.17	229.44
759.49	229.25
759.82	229.17
760.15	228.98
760.47	228.82
760.80	228.56
761.13	228.39
761.45	228.21
761.78	228.08
762.11	227.91
762.43	227.69
762.76	227.49
763.08	227.30
763.41	227.17
763.74	227.02
764.06	226.86
764.39	226.75
764.71	226.60
765.04	226.45
765.37	226.31
765.69	226.15
766.02	226.03
766.34	225.89
766.67	225.70
767.00	225.60
767.32	225.58
767.65	225.57
767.97	225.44
768.30	225.36
768.62	225.17
768.95	225.04
769.27	224.97
769.60	224.90
769.92	224.76
770.25	224.64
770.57	224.49
770.90	224.40
771.22	224.27
771.55	224.15
771.87	224.07
772.20	223.94
772.52	224.01
772.85	224.16
773.17	224.08
773.50	223.96
773.82	223.86
774.15	223.67
774.47	223.47
774.80	223.37
775.12	223.24
775.45	223.19
775.77	223.11
776.09	223.01
776.42	222.92
776.74	222.88
777.07	222.76
777.39	222.70
777.72	222.60
778.04	222.54
778.36	222.46
778.69	222.34
779.01	222.26
779.33	221.99
779.66	221.66
779.98	221.55
780.31	221.48
780.63	221.45
780.95	221.43
781.28	221.33
781.60	221.20
781.92	221.17
782.25	221.08
782.57	221.00
782.89	220.90
783.22	220.83
783.54	220.73
783.86	220.71
784.19	220.65
784.51	220.66
784.83	220.58
785.16	220.50
785.48	220.45
785.80	220.43
786.12	220.40
786.45	220.34
786.77	220.29
787.09	220.24
787.42	220.11
787.74	220.01
788.06	219.97
788.38	219.94
788.71	219.84
789.03	219.84
789.35	219.81
789.67	219.75
789.99	219.69
790.32	219.63
790.64	219.61
790.96	219.72
791.28	219.60
791.61	219.56
791.93	219.54
792.25	219.50
792.57	219.59
792.89	219.51
793.21	219.47
793.54	219.42
793.86	219.37
794.18	219.32
794.50	219.24
794.82	219.20
795.14	219.18
795.47	219.20
795.79	219.15
796.11	219.04
796.43	219.00
796.75	218.94
797.07	218.90
797.39	218.86
797.71	218.68
798.04	218.64
798.36	218.60
798.68	218.55
799.00	218.54
799.32	218.35
799.64	218.37
799.96	218.36
800.28	218.38
800.60	218.33
800.92	218.33
801.24	218.31
801.56	218.31
801.89	218.24
802.21	218.21
802.53	218.10
802.85	218.13
803.17	218.20
803.49	218.16
803.81	218.10
804.13	218.05
804.45	218.02
804.77	217.99
805.09	217.97
805.41	217.92
805.73	217.85
806.05	217.81
806.37	217.73
806.69	217.69
807.01	217.63
807.33	217.67
807.65	217.54
807.97	217.62
808.28	217.57
808.60	217.56
808.92	217.51
809.24	217.64
809.56	217.60
809.88	217.51
810.20	217.49
810.52	217.49
810.84	217.46
811.16	217.39
811.48	217.35
811.80	217.42
812.12	217.39
812.43	217.39
812.75	217.37
813.07	217.35
813.39	217.32
813.71	217.28
814.03	217.20
814.35	217.22
814.67	217.09
814.98	217.09
815.30	217.08
815.62	217.04
815.94	216.88
816.26	216.85
816.58	216.83
816.89	216.84
817.21	216.79
817.53	216.80
817.85	216.81
818.17	216.81
818.48	216.70
818.80	216.71
819.12	216.68
819.44	216.63
819.76	216.61
820.07	216.61
820.39	216.57
820.71	216.61
821.03	216.59
821.34	216.56
821.66	216.55
821.98	216.56
822.30	216.54
822.61	216.70
822.93	216.69
823.25	216.64
823.57	216.60
823.88	216.66
824.20	216.63
824.52	216.62
824.83	216.63
825.15	216.61
825.47	216.61
825.79	216.60
826.10	216.59
826.42	216.55
826.74	216.53
827.05	216.52
827.37	216.47
827.69	216.47
828.00	216.49
828.32	216.45
828.64	216.39
828.95	216.47
829.27	216.39
829.58	216.36
829.90	216.38
830.22	216.39
830.53	216.32
830.85	216.31
831.17	216.25
831.48	216.20
831.80	216.19
832.11	216.17
832.43	216.11
832.75	216.11
833.06	216.23
833.38	216.17
833.69	216.18
834.01	216.20
834.32	216.18
834.64	216.14
834.96	216.17
835.27	216.14
835.59	216.07
835.90	216.00
836.22	215.99
836.53	215.96
836.85	215.92
837.16	216.12
837.48	216.11
837.79	216.17
838.11	216.19
838.42	216.16
838.74	216.19
839.05	216.19
839.37	216.18
839.68	216.02
840.00	215.99
840.31	216.02
840.63	215.96
840.94	215.93
841.26	215.89
841.57	215.83
841.88	215.84
842.20	215.81
842.51	215.75
842.83	215.73
843.14	215.88
843.46	215.89
843.77	215.74
844.08	215.71
844.40	215.62
844.71	215.58
845.03	215.58
845.34	215.52
845.65	215.50
845.97	215.49
846.28	215.52
846.60	215.51
846.91	215.45
847.22	215.45
847.54	215.50
847.85	215.51
848.16	215.50
848.48	215.47
848.79	215.55
849.10	215.60
849.42	215.63
849.73	215.41
850.04	215.41
850.36	215.35
850.67	215.38
850.98	215.38
851.30	215.40
851.61	215.37
851.92	215.36
852.23	215.40
852.55	215.39
852.86	215.38
853.17	215.39
853.49	215.45
853.80	215.48
854.11	215.47
854.42	215.52
854.74	215.51
855.05	215.50
855.36	215.36
855.67	215.34
855.99	215.34
856.30	215.61
856.61	215.59
856.92	215.58
857.23	215.54
857.55	215.54
857.86	215.51
858.17	215.59
858.48	215.56
858.79	215.54
859.11	215.56
859.42	215.53
859.73	215.50
860.04	215.45
860.35	215.41
860.66	215.32
860.98	215.28
861.29	215.27
861.60	215.24
861.91	215.32
862.22	215.31
862.53	215.27
862.84	215.03
863.16	215.06
863.47	215.04
863.78	215.05
864.09	215.05
864.40	215.02
864.71	214.96
865.02	215.02
865.33	214.99
865.64	214.94
865.95	214.97
866.27	215.12
866.58	215.10
866.89	215.13
867.20	215.13
867.51	215.09
867.82	215.10
868.13	215.17
868.44	215.12
868.75	215.14
869.06	215.12
869.37	215.11
869.68	215.04
869.99	215.08
870.30	215.08
870.61	215.11
870.92	215.10
871.23	215.09
871.54	215.11
871.85	215.16
872.16	215.20
872.47	215.17
872.78	215.05
873.09	215.09
873.40	215.07
873.71	215.10
874.02	215.13
874.33	215.12
874.64	215.06
874.95	215.09
875.26	215.04
875.56	215.05
875.87	215.04
876.18	215.04
876.49	215.19
876.80	215.16
877.11	215.10
877.42	215.11
877.73	215.08
878.04	215.01
878.35	215.02
878.66	215.02
878.96	215.00
879.27	214.97
879.58	214.93
879.89	214.93
880.20	214.99
880.51	214.98
880.82	214.99
881.12	214.99
881.43	214.95
881.74	214.92
882.05	214.92
882.36	214.94
882.67	214.95
882.97	214.78
883.28	214.76
883.59	214.74
883.90	214.75
884.21	214.77
884.51	214.78
884.82	214.74
885.13	214.72
885.44	214.76
885.74	214.76
886.05	214.75
886.36	214.72
886.67	214.66
886.98	214.76
887.28	214.78
887.59	214.80
887.90	214.82
888.20	214.83
888.51	214.85
888.82	214.81
889.13	214.83
889.43	214.97
889.74	214.98
890.05	214.97
890.35	214.99
890.66	214.97
890.97	214.98
891.28	214.98
891.58	215.03
891.89	215.01
892.20	215.00
892.50	214.99
892.81	215.01
893.12	214.98
893.42	214.86
893.73	214.85
894.04	214.83
894.34	214.83
894.65	214.86
894.95	214.82
895.26	214.85
895.57	214.96
895.87	214.75
896.18	214.80
896.48	214.82
896.79	214.82
897.10	214.86
897.40	214.84
897.71	214.87
898.01	214.82
898.32	214.81
898.63	214.80
898.93	214.79
899.24	214.81
899.54	214.80
899.85	214.80
900.15	214.80
900.46	214.80
900.76	214.79
901.07	214.76
901.38	214.83
901.68	214.87
901.99	214.77
902.29	214.85
902.60	214.85
902.90	214.85
903.21	214.83
903.51	214.84
903.82	214.91
904.12	214.88
904.43	214.89
904.73	214.92
905.03	214.94
905.34	215.17
905.64	215.14
905.95	215.15
906.25	215.16
906.56	215.13
906.86	215.14
907.17	215.13
907.47	215.15
907.77	215.08
908.08	215.02
908.38	215.00
908.69	214.98
908.99	215.01
909.30	215.01
909.60	215.01
909.90	215.01
910.21	214.94
910.51	214.89
910.81	214.89
911.12	214.91
911.42	214.91
911.73	214.66
912.03	214.66
912.33	214.73
912.64	214.72
912.94	214.68
913.24	214.64
913.55	214.63
913.85	214.62
914.15	214.64
914.46	214.69
914.76	214.70
915.06	214.67
915.37	214.62
915.67	214.61
915.97	214.57
916.27	214.53
916.58	214.55
916.88	214.58
917.18	214.54
917.49	214.67
917.79	214.67
918.09	214.71
918.39	214.76
918.70	214.72
919.00	214.73
919.30	214.88
919.60	214.89
919.91	214.89
920.21	214.91
920.51	214.87
920.81	214.85
921.12	214.85
921.42	214.87
921.72	214.88
922.02	214.88
922.32	214.97
922.63	214.95
922.93	215.04
923.23	215.03
923.53	215.03
923.83	214.86
924.13	214.88
924.44	214.90
924.74	214.93
925.04	214.99
925.34	214.98
925.64	214.87
925.94	214.85
926.24	214.95
926.55	214.96
926.85	215.01
927.15	215.03
927.45	215.05
927.75	215.04
928.05	215.05
928.35	215.04
928.65	215.06
928.95	215.08
929.26	214.99
929.56	215.04
929.86	215.08
930.16	215.08
930.46	215.07
930.76	215.05
931.06	214.95
931.36	214.90
931.66	214.92
931.96	214.94
932.26	214.96
932.56	214.89
932.86	214.85
933.16	214.84
933.46	214.83
933.76	214.78
934.06	214.84
934.36	214.90
934.66	214.91
934.96	214.88
935.26	214.91
935.56	214.97
935.86	214.91
936.16	214.86
936.46	214.84
936.76	214.79
937.06	214.77
937.36	214.79
937.66	214.81
937.96	214.81
938.26	214.80
938.56	214.79
938.86	214.79
939.16	214.87
939.46	214.88
939.76	214.86
940.06	214.84
940.35	214.77
940.65	214.68
940.95	214.69
941.25	214.65
941.55	214.63
941.85	214.60
942.15	214.64
942.45	214.72
942.75	214.70
943.04	214.76
943.34	214.80
943.64	214.76
943.94	214.71
944.24	214.68
944.54	214.68
944.84	214.68
945.13	214.65
945.43	214.61
945.73	214.57
946.03	214.57
946.33	214.60
946.62	214.59
946.92	214.59
947.22	214.59
947.52	214.59
947.82	214.60
948.11	214.59
948.41	214.53
948.71	214.46
949.01	214.45
949.31	214.42
949.60	214.41
949.90	214.47
950.20	214.47
950.50	214.48
950.79	214.44
951.09	214.49
951.39	214.49
951.69	214.46
951.98	214.51
952.28	214.49
952.58	214.46
952.87	214.45
953.17	214.46
953.47	214.42
953.76	214.44
954.06	214.38
954.36	214.35
954.66	214.33
954.95	214.39
955.25	214.43
955.55	214.42
955.84	214.38
956.14	214.38
956.44	214.42
956.73	214.40
957.03	214.45
957.32	214.42
957.62	214.42
957.92	214.46
958.21	214.46
958.51	214.72
958.81	214.76
959.10	214.82
959.40	214.88
959.69	214.90
959.99	214.92
960.29	214.92
960.58	214.92
960.88	215.01
961.17	215.00
961.47	214.99
961.76	214.97
962.06	215.01
962.36	214.98
962.65	214.97
962.95	214.94
963.24	214.92
963.54	214.91
963.83	214.91
964.13	214.93
964.42	214.86
964.72	214.67
965.01	214.65
965.31	214.64
965.60	214.54
965.90	214.70
966.19	214.65
966.49	214.67
966.78	214.68
967.08	214.67
967.37	214.69
967.67	214.69
967.96	214.73
968.26	214.73
968.55	214.79
968.85	214.78
969.14	214.79
969.43	214.78
969.73	214.78
970.02	214.76
970.32	214.72
970.61	214.73
970.91	214.69
971.20	214.66
971.49	214.63
971.79	214.63
972.08	214.43
972.38	214.43
972.67	214.43
972.96	214.43
973.26	214.42
973.55	214.46
973.85	214.45
974.14	214.44
974.43	214.42
974.73	214.37
975.02	214.34
975.31	214.35
975.61	214.38
975.90	214.34
976.19	214.34
976.49	214.34
976.78	214.32
977.07	214.32
977.37	214.31
977.66	214.36
977.95	214.35
978.24	214.39
978.54	214.44
978.83	214.44
979.12	214.47
979.42	214.44
979.71	214.38
980.00	214.39
980.29	214.41
980.59	214.42
980.88	214.46
981.17	214.45
981.46	214.43
981.76	214.43
982.05	214.48
982.34	214.49
982.63	214.47
982.93	214.46
983.22	214.52
983.51	214.53
983.80	214.54
984.09	214.59
984.39	214.54
984.68	214.50
984.97	214.50
985.26	214.42
985.55	214.45
985.85	214.39
986.14	214.44
986.43	214.45
986.72	214.42
987.01	214.36
987.30	214.39
987.59	214.44
987.89	214.43
988.18	214.39
988.47	214.36
988.76	214.36
989.05	214.40
989.34	214.35
989.63	214.43
989.92	214.41
990.22	214.38
990.51	214.41
990.80	214.40
991.09	214.43
991.38	214.48
991.67	214.47
991.96	214.50
992.25	214.46
992.54	214.39
992.83	214.39
993.12	214.38
993.41	214.41
993.70	214.43
993.99	214.48
994.28	214.53
994.58	214.58
994.87	214.56
995.16	214.57
995.45	214.54
995.74	214.47
996.03	214.52
996.32	214.56
996.61	214.63
996.90	214.64
997.19	214.63
997.48	214.63
997.77	214.61
998.06	214.62
998.34	214.59
998.63	214.64
998.92	214.67
999.21	214.71
999.50	214.70
999.79	214.64
1000.08	214.61
1000.37	214.58
1000.66	214.57
1000.95	214.60
1001.24	214.60
1001.53	214.64
1001.82	214.63
1002.11	214.56
1002.40	214.56
1002.68	214.59
1002.97	214.72
1003.26	214.70
1003.55	214.64
1003.84	214.65
1004.13	214.74
1004.42	214.72
1004.71	214.72
1004.99	214.69
1005.28	214.72
1005.57	214.75
1005.86	214.74
1006.15	214.74
1006.44	214.73
1006.72	214.78
1007.01	214.76
1007.30	214.74
1007.59	214.74
1007.88	214.73
1008.17	214.73
1008.45	214.70
1008.74	214.61
1009.03	214.52
1009.32	214.52
1009.60	214.54
1009.89	214.50
1010.18	214.40
1010.47	214.43
1010.76	214.42
1011.04	214.45
1011.33	214.46
1011.62	214.44
1011.91	214.49
1012.19	214.50
1012.48	214.48
1012.77	214.45
1013.05	214.57
1013.34	214.58
1013.63	214.55
1013.92	214.58
1014.20	214.56
1014.49	214.56
1014.78	214.56
1015.06	214.50
1015.35	214.50
1015.64	214.57
1015.92	214.61
1016.21	214.59
1016.50	214.58
1016.78	214.61
1017.07	214.60
1017.36	214.57
1017.64	214.52
1017.93	214.50
1018.22	214.48
1018.50	214.51
1018.79	214.49
1019.08	214.38
1019.36	214.39
1019.65	214.36
1019.93	214.41
1020.22	214.46
1020.51	214.55
1020.79	214.51
1021.08	214.37
1021.36	214.41
1021.65	214.32
1021.94	214.49
1022.22	214.34
1022.51	213.90
1022.79	215.59
1023.08	214.56
1023.36	216.47
1023.65	213.47
>>>>>End Processed Spectral Data<<<<<
