SpectraSuite Data File
++++++++++++++++++++++++++++++++++++
Date: Tue Jan 29 16:38:43 EST 2013
User: group
Dark Spectrum Present: No
Reference Spectrum Present: No
Number of Sampled Component Spectra: 1
Spectrometers: USB2E7196
Integration Time (usec): 65000 (USB2E7196)
Spectra Averaged: 100 (USB2E7196)
Boxcar Smoothing: 10 (USB2E7196)
Correct for Electrical Dark: No (USB2E7196)
Strobe/Lamp Enabled: No (USB2E7196)
Correct for Detector Non-linearity: No (USB2E7196)
Correct for Stray Light: No (USB2E7196)
Number of Pixels in Processed Spectrum: 2048
>>>>>Begin Processed Spectral Data<<<<<
339.09	0.00
339.48	201.91
339.86	203.04
340.24	204.87
340.63	205.94
341.01	210.64
341.39	208.93
341.78	210.45
342.16	211.43
342.54	211.89
342.93	201.03
343.31	211.18
343.69	211.71
344.07	212.19
344.46	212.64
344.84	213.08
345.22	213.23
345.60	213.49
345.99	213.68
346.37	213.82
346.75	213.93
347.13	214.03
347.52	214.10
347.90	214.25
348.28	214.28
348.66	214.35
349.05	214.35
349.43	214.45
349.81	214.50
350.19	214.57
350.57	214.67
350.96	214.73
351.34	214.87
351.72	214.97
352.10	215.08
352.48	215.13
352.87	215.15
353.25	215.25
353.63	215.30
354.01	215.37
354.39	215.45
354.77	215.54
355.15	215.68
355.54	215.76
355.92	215.75
356.30	215.81
356.68	216.05
357.06	216.18
357.44	216.22
357.82	216.31
358.20	216.39
358.58	216.44
358.97	216.53
359.35	216.63
359.73	216.73
360.11	216.79
360.49	216.88
360.87	216.95
361.25	217.04
361.63	217.18
362.01	217.23
362.39	217.25
362.77	217.30
363.15	217.30
363.53	217.32
363.91	217.36
364.29	217.42
364.67	217.22
365.05	217.21
365.43	217.24
365.81	217.25
366.19	217.35
366.57	217.44
366.95	217.42
367.33	217.36
367.71	217.38
368.09	217.40
368.47	217.41
368.85	217.43
369.23	217.43
369.61	217.35
369.99	217.41
370.37	217.44
370.75	217.53
371.13	217.47
371.51	217.42
371.89	217.44
372.27	217.40
372.65	217.38
373.03	217.36
373.41	217.31
373.78	217.27
374.16	217.13
374.54	217.02
374.92	216.98
375.30	216.93
375.68	216.84
376.06	216.80
376.44	216.72
376.82	216.65
377.19	216.61
377.57	216.55
377.95	216.43
378.33	216.39
378.71	216.24
379.09	216.23
379.47	216.20
379.84	216.14
380.22	216.07
380.60	215.99
380.98	215.93
381.36	215.90
381.73	215.82
382.11	215.82
382.49	215.80
382.87	215.71
383.25	215.69
383.62	215.89
384.00	215.82
384.38	215.78
384.76	215.80
385.13	215.81
385.51	215.78
385.89	215.73
386.27	215.68
386.64	215.68
387.02	215.61
387.40	215.57
387.78	215.51
388.15	215.51
388.53	215.50
388.91	215.47
389.29	215.43
389.66	215.46
390.04	215.40
390.42	215.41
390.79	215.42
391.17	215.40
391.55	215.14
391.92	215.13
392.30	215.14
392.68	215.08
393.05	215.05
393.43	215.05
393.81	215.06
394.18	215.00
394.56	214.98
394.94	215.04
395.31	215.04
395.69	215.13
396.06	215.16
396.44	215.21
396.82	215.22
397.19	215.36
397.57	215.38
397.95	215.45
398.32	215.42
398.70	215.49
399.07	215.59
399.45	215.63
399.82	215.69
400.20	215.71
400.58	215.77
400.95	215.75
401.33	215.85
401.70	216.07
402.08	216.20
402.45	216.32
402.83	216.46
403.20	216.57
403.58	216.63
403.95	216.80
404.33	216.94
404.71	217.10
405.08	217.40
405.46	217.57
405.83	217.77
406.21	217.96
406.58	218.18
406.96	218.38
407.33	218.68
407.70	218.96
408.08	219.44
408.45	219.82
408.83	220.21
409.20	220.56
409.58	220.84
409.95	221.31
410.33	221.78
410.70	222.18
411.08	222.76
411.45	223.36
411.82	223.94
412.20	224.62
412.57	225.45
412.95	225.93
413.32	226.77
413.69	227.62
414.07	228.56
414.44	229.53
414.82	230.57
415.19	231.75
415.56	232.96
415.94	234.15
416.31	235.59
416.68	236.98
417.06	238.61
417.43	240.15
417.81	241.88
418.18	243.71
418.55	245.65
418.93	247.67
419.30	249.78
419.67	252.02
420.04	254.29
420.42	256.64
420.79	259.51
421.16	262.30
421.54	265.22
421.91	268.22
422.28	271.32
422.66	274.59
423.03	277.85
423.40	281.17
423.77	284.79
424.15	288.45
424.52	292.31
424.89	296.52
425.26	300.64
425.64	304.55
426.01	308.80
426.38	313.36
426.75	317.92
427.13	322.65
427.50	327.62
427.87	332.81
428.24	338.01
428.61	343.01
428.99	348.53
429.36	354.54
429.73	360.43
430.10	366.28
430.47	372.44
430.85	378.76
431.22	385.55
431.59	392.65
431.96	399.49
432.33	407.03
432.70	414.28
433.08	422.84
433.45	430.89
433.82	438.91
434.19	447.77
434.56	456.55
434.93	464.89
435.30	473.22
435.68	482.44
436.05	491.49
436.42	500.38
436.79	508.57
437.16	517.37
437.53	526.70
437.90	535.92
438.27	544.86
438.64	554.11
439.01	562.68
439.38	570.27
439.75	577.55
440.13	586.05
440.50	593.99
440.87	600.45
441.24	607.11
441.61	614.50
441.98	619.94
442.35	626.21
442.72	632.55
443.09	638.64
443.46	642.36
443.83	644.88
444.20	647.14
444.57	650.28
444.94	651.73
445.31	653.17
445.68	654.55
446.05	655.20
446.42	654.41
446.79	653.47
447.16	652.45
447.53	651.67
447.90	648.28
448.27	645.00
448.64	640.30
449.01	637.01
449.37	631.09
449.74	625.35
450.11	618.43
450.48	611.04
450.85	603.56
451.22	597.04
451.59	590.90
451.96	585.04
452.33	577.13
452.70	569.99
453.07	561.45
453.43	552.80
453.80	544.43
454.17	536.43
454.54	528.83
454.91	520.62
455.28	512.68
455.65	505.24
456.02	497.73
456.38	491.37
456.75	483.45
457.12	476.83
457.49	470.32
457.86	464.13
458.23	458.67
458.59	452.67
458.96	446.69
459.33	441.35
459.70	435.98
460.07	431.73
460.43	426.78
460.80	422.15
461.17	418.18
461.54	413.93
461.91	409.89
462.27	405.74
462.64	402.30
463.01	398.47
463.38	394.73
463.74	391.01
464.11	387.80
464.48	384.98
464.85	381.90
465.21	379.46
465.58	376.83
465.95	373.74
466.32	371.14
466.68	368.48
467.05	365.89
467.42	363.29
467.78	360.62
468.15	358.09
468.52	356.20
468.88	353.66
469.25	351.47
469.62	349.62
469.98	347.65
470.35	345.79
470.72	344.10
471.08	342.32
471.45	340.82
471.82	339.21
472.18	337.51
472.55	336.33
472.92	334.91
473.28	333.65
473.65	332.50
474.02	331.34
474.38	330.44
474.75	329.72
475.11	328.92
475.48	328.33
475.85	327.82
476.21	327.37
476.58	327.02
476.94	326.78
477.31	326.50
477.67	326.27
478.04	326.11
478.41	326.06
478.77	326.18
479.14	326.09
479.50	326.20
479.87	326.50
480.23	326.78
480.60	327.03
480.96	327.32
481.33	327.89
481.69	328.47
482.06	329.00
482.42	329.44
482.79	330.00
483.15	330.77
483.52	331.75
483.88	332.64
484.25	333.64
484.61	334.66
484.98	335.69
485.34	336.98
485.71	338.37
486.07	339.82
486.44	341.15
486.80	342.78
487.17	344.49
487.53	346.33
487.90	348.22
488.26	350.23
488.62	352.43
488.99	354.46
489.35	356.68
489.72	359.07
490.08	361.62
490.44	364.23
490.81	366.95
491.17	369.66
491.54	372.61
491.90	375.61
492.26	378.83
492.63	382.24
492.99	385.76
493.36	389.44
493.72	393.26
494.08	397.33
494.45	401.52
494.81	405.89
495.17	410.36
495.54	415.03
495.90	419.91
496.26	424.79
496.63	429.98
496.99	435.37
497.35	440.97
497.72	446.76
498.08	452.67
498.44	458.77
498.80	465.22
499.17	471.70
499.53	478.39
499.89	485.36
500.26	492.40
500.62	499.48
500.98	506.93
501.34	514.47
501.71	522.24
502.07	530.15
502.43	538.16
502.79	546.29
503.16	554.76
503.52	563.36
503.88	572.08
504.24	581.08
504.60	590.15
504.97	599.36
505.33	608.69
505.69	618.60
506.05	628.59
506.41	638.47
506.78	648.60
507.14	658.90
507.50	669.35
507.86	680.04
508.22	690.86
508.59	701.58
508.95	712.75
509.31	724.03
509.67	735.54
510.03	746.95
510.39	758.79
510.75	770.54
511.12	782.52
511.48	794.79
511.84	807.09
512.20	819.34
512.56	832.06
512.92	844.88
513.28	857.51
513.64	870.20
514.00	883.10
514.37	896.13
514.73	909.40
515.09	922.49
515.45	935.51
515.81	948.60
516.17	961.99
516.53	975.25
516.89	988.45
517.25	1001.62
517.61	1015.28
517.97	1028.74
518.33	1042.01
518.69	1055.60
519.05	1069.48
519.41	1083.23
519.77	1097.39
520.13	1110.70
520.49	1123.97
520.85	1137.53
521.21	1150.93
521.57	1164.67
521.93	1177.79
522.29	1191.50
522.65	1205.21
523.01	1218.79
523.37	1232.12
523.73	1245.44
524.09	1258.67
524.45	1272.20
524.81	1285.82
525.17	1299.34
525.53	1312.57
525.89	1326.09
526.25	1339.25
526.61	1352.02
526.97	1365.37
527.33	1378.41
527.68	1392.10
528.04	1405.66
528.40	1418.86
528.76	1432.38
529.12	1445.23
529.48	1458.65
529.84	1471.03
530.20	1483.85
530.56	1496.60
530.91	1509.96
531.27	1522.99
531.63	1535.88
531.99	1548.69
532.35	1561.02
532.71	1573.38
533.07	1586.41
533.42	1598.64
533.78	1610.89
534.14	1622.97
534.50	1634.28
534.86	1645.83
535.21	1656.72
535.57	1668.37
535.93	1679.72
536.29	1690.90
536.65	1702.66
537.00	1713.76
537.36	1725.29
537.72	1736.36
538.08	1747.91
538.44	1759.03
538.79	1770.30
539.15	1781.34
539.51	1792.14
539.87	1803.61
540.22	1814.64
540.58	1825.67
540.94	1836.74
541.29	1847.09
541.65	1857.14
542.01	1867.77
542.37	1878.07
542.72	1888.36
543.08	1898.22
543.44	1908.93
543.79	1918.37
544.15	1927.89
544.51	1938.05
544.87	1948.06
545.22	1957.47
545.58	1966.46
545.94	1975.30
546.29	1983.83
546.65	1992.21
547.01	2000.63
547.36	2008.50
547.72	2016.35
548.07	2024.04
548.43	2031.83
548.79	2039.82
549.14	2048.01
549.50	2056.42
549.86	2064.45
550.21	2072.00
550.57	2079.77
550.92	2086.56
551.28	2094.06
551.64	2101.37
551.99	2108.68
552.35	2115.96
552.70	2122.83
553.06	2129.47
553.41	2135.87
553.77	2142.58
554.13	2149.04
554.48	2156.00
554.84	2163.02
555.19	2169.70
555.55	2176.22
555.90	2182.58
556.26	2189.31
556.61	2195.40
556.97	2200.30
557.32	2206.02
557.68	2212.50
558.03	2218.19
558.39	2223.60
558.74	2229.66
559.10	2235.20
559.45	2241.09
559.81	2246.39
560.16	2251.98
560.52	2258.06
560.87	2264.51
561.23	2270.34
561.58	2276.90
561.94	2282.09
562.29	2286.62
562.64	2292.53
563.00	2298.04
563.35	2303.54
563.71	2309.44
564.06	2315.10
564.42	2321.14
564.77	2326.31
565.12	2331.51
565.48	2336.72
565.83	2342.15
566.19	2347.49
566.54	2353.00
566.89	2357.51
567.25	2362.15
567.60	2367.90
567.96	2372.92
568.31	2377.31
568.66	2381.49
569.02	2385.36
569.37	2389.15
569.72	2393.71
570.08	2397.18
570.43	2400.32
570.78	2403.36
571.14	2405.73
571.49	2408.80
571.84	2412.25
572.20	2415.13
572.55	2417.98
572.90	2420.15
573.26	2422.84
573.61	2425.42
573.96	2427.28
574.31	2429.18
574.67	2431.07
575.02	2431.69
575.37	2433.19
575.72	2433.82
576.08	2435.18
576.43	2435.45
576.78	2435.74
577.13	2437.19
577.49	2438.39
577.84	2439.27
578.19	2440.56
578.54	2441.08
578.90	2441.75
579.25	2441.45
579.60	2441.08
579.95	2440.25
580.30	2440.36
580.66	2439.63
581.01	2437.67
581.36	2435.33
581.71	2433.83
582.06	2432.46
582.42	2431.47
582.77	2428.88
583.12	2427.22
583.47	2425.79
583.82	2425.10
584.17	2423.84
584.53	2421.54
584.88	2419.24
585.23	2417.38
585.58	2414.95
585.93	2412.87
586.28	2410.55
586.63	2408.03
586.98	2405.75
587.34	2403.62
587.69	2400.90
588.04	2398.69
588.39	2397.24
588.74	2394.53
589.09	2391.51
589.44	2388.39
589.79	2385.80
590.14	2383.82
590.49	2380.86
590.84	2376.83
591.19	2373.48
591.54	2370.13
591.89	2365.96
592.25	2362.61
592.60	2358.16
592.95	2353.94
593.30	2349.57
593.65	2344.97
594.00	2340.55
594.35	2337.38
594.70	2332.70
595.05	2328.18
595.40	2322.63
595.75	2316.78
596.10	2313.11
596.45	2308.38
596.80	2303.64
597.15	2298.38
597.50	2292.21
597.85	2287.15
598.19	2281.87
598.54	2276.13
598.89	2270.92
599.24	2266.32
599.59	2260.09
599.94	2254.32
600.29	2248.41
600.64	2242.49
600.99	2235.73
601.34	2230.17
601.69	2223.14
602.04	2216.68
602.39	2210.02
602.74	2203.84
603.08	2198.40
603.43	2191.92
603.78	2184.93
604.13	2177.97
604.48	2170.61
604.83	2164.63
605.18	2158.41
605.53	2151.51
605.87	2144.33
606.22	2137.33
606.57	2129.47
606.92	2121.47
607.27	2114.34
607.62	2107.61
607.96	2100.56
608.31	2094.03
608.66	2086.16
609.01	2078.57
609.36	2071.50
609.70	2063.71
610.05	2055.81
610.40	2047.11
610.75	2038.70
611.10	2031.04
611.44	2022.08
611.79	2013.33
612.14	2003.31
612.49	1992.67
612.83	1983.25
613.18	1973.98
613.53	1964.73
613.88	1954.96
614.22	1946.31
614.57	1936.49
614.92	1925.91
615.27	1915.61
615.61	1905.50
615.96	1895.74
616.31	1886.13
616.65	1876.61
617.00	1866.86
617.35	1857.35
617.70	1847.88
618.04	1837.90
618.39	1827.74
618.74	1817.94
619.08	1808.29
619.43	1799.64
619.78	1791.37
620.12	1782.90
620.47	1773.31
620.82	1762.94
621.16	1753.31
621.51	1743.50
621.85	1733.63
622.20	1723.30
622.55	1712.79
622.89	1702.92
623.24	1693.22
623.59	1683.41
623.93	1673.27
624.28	1663.58
624.62	1653.53
624.97	1643.24
625.32	1633.45
625.66	1624.56
626.01	1615.94
626.35	1606.62
626.70	1596.49
627.04	1586.40
627.39	1576.28
627.73	1566.97
628.08	1558.21
628.43	1548.56
628.77	1539.22
629.12	1530.37
629.46	1522.48
629.81	1514.21
630.15	1504.69
630.50	1494.92
630.84	1484.48
631.19	1474.55
631.53	1465.15
631.88	1454.89
632.22	1444.85
632.57	1435.49
632.91	1425.39
633.26	1415.44
633.60	1405.84
633.95	1396.60
634.29	1387.12
634.64	1377.81
634.98	1367.91
635.32	1358.40
635.67	1349.93
636.01	1340.73
636.36	1331.03
636.70	1321.54
637.05	1312.17
637.39	1303.36
637.73	1294.76
638.08	1287.28
638.42	1279.15
638.77	1270.39
639.11	1262.28
639.45	1254.52
639.80	1246.07
640.14	1237.30
640.49	1228.55
640.83	1219.63
641.17	1211.49
641.52	1203.43
641.86	1194.74
642.20	1186.82
642.55	1178.30
642.89	1169.45
643.23	1160.82
643.58	1152.61
643.92	1143.62
644.26	1134.90
644.61	1126.29
644.95	1117.54
645.29	1108.37
645.64	1099.22
645.98	1090.63
646.32	1082.54
646.66	1073.99
647.01	1065.61
647.35	1057.49
647.69	1049.17
648.04	1040.95
648.38	1032.03
648.72	1023.18
649.06	1014.80
649.41	1006.69
649.75	998.76
650.09	990.90
650.43	982.88
650.78	974.62
651.12	966.90
651.46	959.56
651.80	952.31
652.14	944.95
652.49	937.31
652.83	930.00
653.17	922.37
653.51	914.76
653.85	907.59
654.20	900.29
654.54	892.81
654.88	885.47
655.22	878.33
655.56	871.31
655.90	864.52
656.25	857.83
656.59	850.87
656.93	843.80
657.27	836.69
657.61	829.62
657.95	823.51
658.29	817.60
658.64	811.36
658.98	804.86
659.32	798.27
659.66	792.03
660.00	785.62
660.34	779.58
660.68	773.52
661.02	767.07
661.36	761.08
661.70	755.19
662.05	749.51
662.39	743.92
662.73	738.52
663.07	733.12
663.41	727.46
663.75	721.69
664.09	716.01
664.43	710.56
664.77	705.23
665.11	699.39
665.45	693.36
665.79	687.49
666.13	681.80
666.47	676.31
666.81	670.81
667.15	665.43
667.49	660.20
667.83	654.88
668.17	649.69
668.51	644.52
668.85	639.56
669.19	634.71
669.53	629.64
669.87	624.51
670.21	619.74
670.55	614.99
670.89	610.50
671.23	606.13
671.57	601.68
671.91	597.37
672.25	593.21
672.58	589.04
672.92	585.02
673.26	581.11
673.60	577.20
673.94	573.30
674.28	569.67
674.62	565.87
674.96	562.09
675.30	558.49
675.64	554.79
675.97	551.19
676.31	547.49
676.65	543.92
676.99	540.44
677.33	536.50
677.67	532.78
678.01	528.90
678.34	525.19
678.68	521.67
679.02	518.01
679.36	514.24
679.70	510.56
680.04	506.92
680.37	503.36
680.71	500.02
681.05	496.84
681.39	493.51
681.73	490.33
682.06	487.31
682.40	484.19
682.74	480.99
683.08	477.79
683.42	474.52
683.75	471.49
684.09	468.39
684.43	465.56
684.77	462.61
685.10	459.78
685.44	456.84
685.78	453.88
686.12	451.07
686.45	448.34
686.79	445.66
687.13	443.13
687.46	440.46
687.80	437.72
688.14	434.82
688.48	432.18
688.81	429.38
689.15	426.69
689.49	424.06
689.82	421.51
690.16	418.82
690.50	416.38
690.83	413.80
691.17	411.27
691.51	408.79
691.84	406.53
692.18	404.25
692.52	402.03
692.85	399.87
693.19	397.66
693.52	395.45
693.86	393.24
694.20	391.02
694.53	388.84
694.87	386.67
695.21	384.50
695.54	382.30
695.88	380.12
696.21	377.90
696.55	375.72
696.88	373.61
697.22	371.65
697.56	369.71
697.89	367.82
698.23	366.03
698.56	364.21
698.90	362.41
699.23	360.47
699.57	358.55
699.90	356.64
700.24	354.81
700.58	353.04
700.91	351.31
701.25	349.69
701.58	348.06
701.92	346.45
702.25	344.82
702.59	343.18
702.92	341.67
703.26	340.10
703.59	338.58
703.93	337.29
704.26	335.85
704.60	334.30
704.93	332.78
705.26	331.23
705.60	329.74
705.93	328.19
706.27	326.85
706.60	325.64
706.94	324.38
707.27	322.99
707.61	321.62
707.94	320.27
708.27	318.76
708.61	317.31
708.94	315.87
709.28	314.55
709.61	313.28
709.94	312.01
710.28	310.76
710.61	309.54
710.95	308.07
711.28	307.00
711.61	305.87
711.95	304.71
712.28	303.51
712.61	302.27
712.95	301.18
713.28	300.14
713.61	298.88
713.95	297.69
714.28	296.64
714.61	295.59
714.95	294.55
715.28	293.51
715.61	292.51
715.95	291.55
716.28	290.58
716.61	289.62
716.95	288.66
717.28	287.75
717.61	286.79
717.94	285.93
718.28	284.79
718.61	283.82
718.94	282.89
719.27	282.02
719.61	281.20
719.94	280.29
720.27	279.29
720.60	278.40
720.94	277.59
721.27	276.84
721.60	276.13
721.93	275.37
722.27	274.73
722.60	274.00
722.93	273.27
723.26	272.62
723.59	271.89
723.93	271.23
724.26	270.52
724.59	269.86
724.92	269.25
725.25	268.74
725.59	268.19
725.92	267.62
726.25	267.06
726.58	266.45
726.91	265.86
727.24	265.31
727.57	264.75
727.91	264.13
728.24	263.59
728.57	262.98
728.90	262.41
729.23	261.76
729.56	261.32
729.89	260.75
730.22	260.13
730.55	259.60
730.89	259.03
731.22	258.52
731.55	258.00
731.88	257.45
732.21	256.91
732.54	256.38
732.87	255.88
733.20	255.37
733.53	254.91
733.86	254.46
734.19	253.99
734.52	253.59
734.85	253.30
735.18	252.79
735.51	252.41
735.84	251.98
736.17	251.63
736.50	251.08
736.83	250.93
737.16	250.55
737.49	250.13
737.82	249.74
738.15	249.34
738.48	248.96
738.81	248.55
739.14	248.08
739.47	247.66
739.80	247.28
740.13	246.97
740.46	246.55
740.79	246.13
741.12	245.73
741.45	245.33
741.78	244.90
742.11	244.60
742.44	244.19
742.77	243.89
743.10	243.54
743.43	243.21
743.75	242.62
744.08	242.53
744.41	242.18
744.74	241.79
745.07	241.44
745.40	241.13
745.73	240.88
746.06	240.58
746.39	240.29
746.71	239.96
747.04	239.60
747.37	239.25
747.70	238.97
748.03	238.69
748.36	238.43
748.68	238.11
749.01	237.76
749.34	237.49
749.67	237.19
750.00	236.90
750.33	236.71
750.65	236.44
750.98	235.90
751.31	235.67
751.64	235.48
751.97	235.34
752.29	235.05
752.62	234.71
752.95	234.44
753.28	234.15
753.60	233.87
753.93	233.68
754.26	233.48
754.59	233.21
754.91	232.98
755.24	232.69
755.57	232.42
755.90	232.17
756.22	231.90
756.55	231.65
756.88	231.36
757.20	231.06
757.53	230.82
757.86	230.62
758.19	230.42
758.51	230.19
758.84	229.87
759.17	229.65
759.49	229.49
759.82	229.42
760.15	229.28
760.47	229.09
760.80	228.82
761.13	228.66
761.45	228.43
761.78	228.24
762.11	228.10
762.43	227.92
762.76	227.74
763.08	227.59
763.41	227.41
763.74	227.30
764.06	227.12
764.39	226.99
764.71	226.83
765.04	226.66
765.37	226.50
765.69	226.36
766.02	226.25
766.34	226.09
766.67	225.87
767.00	225.77
767.32	225.76
767.65	225.77
767.97	225.62
768.30	225.53
768.62	225.40
768.95	225.24
769.27	225.14
769.60	225.07
769.92	224.93
770.25	224.78
770.57	224.62
770.90	224.49
771.22	224.31
771.55	224.17
771.87	224.08
772.20	223.94
772.52	224.02
772.85	224.15
773.17	224.02
773.50	223.89
773.82	223.71
774.15	223.49
774.47	223.25
774.80	223.11
775.12	223.02
775.45	222.95
775.77	222.86
776.09	222.80
776.42	222.72
776.74	222.72
777.07	222.62
777.39	222.53
777.72	222.43
778.04	222.39
778.36	222.33
778.69	222.25
779.01	222.19
779.33	221.91
779.66	221.57
779.98	221.46
780.31	221.40
780.63	221.40
780.95	221.41
781.28	221.34
781.60	221.27
781.92	221.18
782.25	221.11
782.57	221.06
782.89	220.93
783.22	220.87
783.54	220.71
783.86	220.65
784.19	220.61
784.51	220.62
784.83	220.52
785.16	220.44
785.48	220.36
785.80	220.30
786.12	220.25
786.45	220.16
786.77	220.17
787.09	220.11
787.42	219.98
787.74	219.90
788.06	219.85
788.38	219.79
788.71	219.74
789.03	219.66
789.35	219.62
789.67	219.54
789.99	219.46
790.32	219.40
790.64	219.38
790.96	219.47
791.28	219.32
791.61	219.28
791.93	219.24
792.25	219.19
792.57	219.30
792.89	219.20
793.21	219.19
793.54	219.10
793.86	219.02
794.18	218.99
794.50	218.91
794.82	218.87
795.14	218.87
795.47	218.84
795.79	218.81
796.11	218.70
796.43	218.67
796.75	218.61
797.07	218.57
797.39	218.51
797.71	218.34
798.04	218.33
798.36	218.29
798.68	218.23
799.00	218.22
799.32	218.06
799.64	218.06
799.96	218.02
800.28	218.02
800.60	217.98
800.92	217.97
801.24	217.94
801.56	217.92
801.89	217.86
802.21	217.84
802.53	217.76
802.85	217.79
803.17	217.85
803.49	217.78
803.81	217.75
804.13	217.70
804.45	217.66
804.77	217.67
805.09	217.66
805.41	217.60
805.73	217.53
806.05	217.44
806.37	217.39
806.69	217.32
807.01	217.29
807.33	217.27
807.65	217.17
807.97	217.21
808.28	217.14
808.60	217.08
808.92	217.03
809.24	217.15
809.56	217.10
809.88	216.99
810.20	217.04
810.52	217.04
810.84	217.01
811.16	216.96
811.48	216.91
811.80	216.97
812.12	216.97
812.43	216.96
812.75	216.98
813.07	216.98
813.39	216.97
813.71	216.89
814.03	216.83
814.35	216.79
814.67	216.69
814.98	216.66
815.30	216.65
815.62	216.59
815.94	216.41
816.26	216.37
816.58	216.34
816.89	216.28
817.21	216.24
817.53	216.26
817.85	216.22
818.17	216.24
818.48	216.13
818.80	216.12
819.12	216.10
819.44	216.04
819.76	215.96
820.07	215.97
820.39	215.95
820.71	215.96
821.03	215.95
821.34	215.96
821.66	215.99
821.98	216.00
822.30	215.99
822.61	216.10
822.93	216.06
823.25	216.03
823.57	215.96
823.88	216.02
824.20	215.99
824.52	216.02
824.83	215.97
825.15	215.96
825.47	215.96
825.79	215.96
826.10	215.94
826.42	215.96
826.74	215.95
827.05	215.95
827.37	215.96
827.69	215.94
828.00	215.90
828.32	215.88
828.64	215.86
828.95	215.97
829.27	215.92
829.58	215.92
829.90	215.93
830.22	215.93
830.53	215.83
830.85	215.78
831.17	215.71
831.48	215.68
831.80	215.64
832.11	215.61
832.43	215.55
832.75	215.51
833.06	215.63
833.38	215.56
833.69	215.53
834.01	215.49
834.32	215.45
834.64	215.46
834.96	215.42
835.27	215.39
835.59	215.28
835.90	215.22
836.22	215.20
836.53	215.15
836.85	215.13
837.16	215.33
837.48	215.33
837.79	215.40
838.11	215.42
838.42	215.39
838.74	215.38
839.05	215.36
839.37	215.36
839.68	215.22
840.00	215.23
840.31	215.25
840.63	215.24
840.94	215.25
841.26	215.20
841.57	215.19
841.88	215.19
842.20	215.16
842.51	215.11
842.83	215.13
843.14	215.32
843.46	215.32
843.77	215.20
844.08	215.15
844.40	215.08
844.71	215.02
845.03	215.02
845.34	215.03
845.65	215.04
845.97	215.04
846.28	215.01
846.60	214.99
846.91	214.97
847.22	214.99
847.54	215.06
847.85	215.06
848.16	215.02
848.48	214.98
848.79	215.09
849.10	215.13
849.42	215.12
849.73	214.91
850.04	214.91
850.36	214.84
850.67	214.92
850.98	214.91
851.30	214.93
851.61	214.94
851.92	214.91
852.23	214.96
852.55	214.96
852.86	214.97
853.17	215.00
853.49	215.01
853.80	215.02
854.11	215.01
854.42	215.00
854.74	215.00
855.05	215.00
855.36	214.87
855.67	214.86
855.99	214.87
856.30	215.14
856.61	215.12
856.92	215.12
857.23	215.11
857.55	215.07
857.86	215.06
858.17	215.09
858.48	215.05
858.79	215.00
859.11	214.99
859.42	214.99
859.73	214.94
860.04	214.95
860.35	214.90
860.66	214.80
860.98	214.82
861.29	214.85
861.60	214.78
861.91	214.84
862.22	214.77
862.53	214.73
862.84	214.46
863.16	214.50
863.47	214.44
863.78	214.39
864.09	214.42
864.40	214.42
864.71	214.39
865.02	214.45
865.33	214.41
865.64	214.38
865.95	214.36
866.27	214.53
866.58	214.49
866.89	214.51
867.20	214.57
867.51	214.53
867.82	214.52
868.13	214.62
868.44	214.58
868.75	214.65
869.06	214.70
869.37	214.70
869.68	214.65
869.99	214.70
870.30	214.74
870.61	214.77
870.92	214.72
871.23	214.73
871.54	214.70
871.85	214.74
872.16	214.76
872.47	214.72
872.78	214.55
873.09	214.57
873.40	214.56
873.71	214.52
874.02	214.53
874.33	214.51
874.64	214.49
874.95	214.53
875.26	214.46
875.56	214.39
875.87	214.41
876.18	214.40
876.49	214.60
876.80	214.58
877.11	214.55
877.42	214.58
877.73	214.57
878.04	214.55
878.35	214.59
878.66	214.61
878.96	214.63
879.27	214.65
879.58	214.64
879.89	214.61
880.20	214.70
880.51	214.67
880.82	214.68
881.12	214.70
881.43	214.63
881.74	214.63
882.05	214.64
882.36	214.64
882.67	214.62
882.97	214.36
883.28	214.33
883.59	214.33
883.90	214.34
884.21	214.37
884.51	214.36
884.82	214.32
885.13	214.28
885.44	214.29
885.74	214.29
886.05	214.28
886.36	214.28
886.67	214.20
886.98	214.33
887.28	214.34
887.59	214.35
887.90	214.37
888.20	214.36
888.51	214.41
888.82	214.37
889.13	214.43
889.43	214.65
889.74	214.67
890.05	214.67
890.35	214.68
890.66	214.67
890.97	214.65
891.28	214.62
891.58	214.65
891.89	214.64
892.20	214.64
892.50	214.63
892.81	214.62
893.12	214.61
893.42	214.48
893.73	214.46
894.04	214.44
894.34	214.46
894.65	214.46
894.95	214.42
895.26	214.47
895.57	214.51
895.87	214.29
896.18	214.32
896.48	214.33
896.79	214.33
897.10	214.31
897.40	214.36
897.71	214.40
898.01	214.37
898.32	214.39
898.63	214.36
898.93	214.38
899.24	214.42
899.54	214.41
899.85	214.43
900.15	214.45
900.46	214.45
900.76	214.47
901.07	214.49
901.38	214.48
901.68	214.47
901.99	214.38
902.29	214.41
902.60	214.36
902.90	214.34
903.21	214.34
903.51	214.33
903.82	214.35
904.12	214.33
904.43	214.36
904.73	214.39
905.03	214.42
905.34	214.61
905.64	214.60
905.95	214.61
906.25	214.61
906.56	214.59
906.86	214.57
907.17	214.52
907.47	214.54
907.77	214.52
908.08	214.47
908.38	214.52
908.69	214.52
908.99	214.57
909.30	214.55
909.60	214.52
909.90	214.54
910.21	214.48
910.51	214.41
910.81	214.39
911.12	214.41
911.42	214.40
911.73	214.21
912.03	214.21
912.33	214.25
912.64	214.24
912.94	214.24
913.24	214.23
913.55	214.24
913.85	214.22
914.15	214.25
914.46	214.30
914.76	214.29
915.06	214.30
915.37	214.27
915.67	214.27
915.97	214.29
916.27	214.23
916.58	214.22
916.88	214.25
917.18	214.23
917.49	214.31
917.79	214.29
918.09	214.31
918.39	214.38
918.70	214.34
919.00	214.32
919.30	214.42
919.60	214.40
919.91	214.39
920.21	214.41
920.51	214.37
920.81	214.37
921.12	214.38
921.42	214.34
921.72	214.36
922.02	214.37
922.32	214.40
922.63	214.40
922.93	214.56
923.23	214.56
923.53	214.57
923.83	214.45
924.13	214.47
924.44	214.46
924.74	214.47
925.04	214.52
925.34	214.53
925.64	214.42
925.94	214.44
926.24	214.55
926.55	214.52
926.85	214.54
927.15	214.52
927.45	214.52
927.75	214.54
928.05	214.54
928.35	214.52
928.65	214.51
928.95	214.57
929.26	214.46
929.56	214.50
929.86	214.50
930.16	214.50
930.46	214.46
930.76	214.43
931.06	214.34
931.36	214.28
931.66	214.32
931.96	214.33
932.26	214.32
932.56	214.21
932.86	214.21
933.16	214.19
933.46	214.16
933.76	214.13
934.06	214.17
934.36	214.23
934.66	214.20
934.96	214.21
935.26	214.20
935.56	214.23
935.86	214.20
936.16	214.21
936.46	214.20
936.76	214.19
937.06	214.19
937.36	214.20
937.66	214.22
937.96	214.22
938.26	214.18
938.56	214.18
938.86	214.17
939.16	214.21
939.46	214.25
939.76	214.27
940.06	214.28
940.35	214.22
940.65	214.10
940.95	214.11
941.25	214.06
941.55	214.02
941.85	214.01
942.15	214.03
942.45	214.08
942.75	214.04
943.04	214.07
943.34	214.11
943.64	214.06
943.94	214.04
944.24	214.02
944.54	214.06
944.84	214.06
945.13	214.09
945.43	214.06
945.73	214.03
946.03	214.03
946.33	214.01
946.62	214.01
946.92	214.05
947.22	214.08
947.52	214.09
947.82	214.12
948.11	214.10
948.41	214.06
948.71	214.01
949.01	214.02
949.31	214.01
949.60	213.98
949.90	214.04
950.20	214.05
950.50	214.05
950.79	214.02
951.09	214.04
951.39	214.02
951.69	214.01
951.98	214.07
952.28	214.10
952.58	214.08
952.87	214.09
953.17	214.09
953.47	214.09
953.76	214.10
954.06	214.03
954.36	214.02
954.66	214.02
954.95	214.08
955.25	214.11
955.55	214.12
955.84	214.11
956.14	214.12
956.44	214.12
956.73	214.11
957.03	214.12
957.32	214.13
957.62	214.11
957.92	214.18
958.21	214.13
958.51	214.37
958.81	214.43
959.10	214.45
959.40	214.49
959.69	214.49
959.99	214.50
960.29	214.52
960.58	214.51
960.88	214.59
961.17	214.54
961.47	214.57
961.76	214.58
962.06	214.61
962.36	214.56
962.65	214.57
962.95	214.58
963.24	214.55
963.54	214.56
963.83	214.56
964.13	214.52
964.42	214.48
964.72	214.31
965.01	214.29
965.31	214.30
965.60	214.25
965.90	214.40
966.19	214.40
966.49	214.41
966.78	214.39
967.08	214.38
967.37	214.38
967.67	214.34
967.96	214.36
968.26	214.36
968.55	214.38
968.85	214.38
969.14	214.40
969.43	214.42
969.73	214.39
970.02	214.40
970.32	214.40
970.61	214.38
970.91	214.30
971.20	214.28
971.49	214.23
971.79	214.28
972.08	214.13
972.38	214.13
972.67	214.12
972.96	214.18
973.26	214.12
973.55	214.18
973.85	214.17
974.14	214.14
974.43	214.17
974.73	214.15
975.02	214.09
975.31	214.08
975.61	214.05
975.90	214.02
976.19	214.02
976.49	214.04
976.78	214.06
977.07	214.10
977.37	214.09
977.66	214.12
977.95	214.04
978.24	214.03
978.54	214.08
978.83	214.07
979.12	214.03
979.42	214.05
979.71	214.02
980.00	214.03
980.29	214.04
980.59	213.98
980.88	214.03
981.17	214.08
981.46	214.09
981.76	214.13
982.05	214.20
982.34	214.20
982.63	214.18
982.93	214.17
983.22	214.18
983.51	214.21
983.80	214.23
984.09	214.26
984.39	214.24
984.68	214.21
984.97	214.23
985.26	214.23
985.55	214.24
985.85	214.22
986.14	214.22
986.43	214.24
986.72	214.23
987.01	214.16
987.30	214.15
987.59	214.10
987.89	214.11
988.18	214.03
988.47	214.01
988.76	214.02
989.05	214.02
989.34	213.98
989.63	214.04
989.92	213.97
990.22	213.96
990.51	213.94
990.80	213.89
991.09	213.94
991.38	213.96
991.67	213.93
991.96	213.91
992.25	213.91
992.54	213.84
992.83	213.84
993.12	213.86
993.41	213.85
993.70	213.93
993.99	213.93
994.28	213.98
994.58	213.98
994.87	213.94
995.16	213.95
995.45	213.94
995.74	213.86
996.03	213.91
996.32	213.98
996.61	214.06
996.90	214.08
997.19	214.02
997.48	214.01
997.77	213.98
998.06	213.95
998.34	213.93
998.63	213.99
998.92	214.00
999.21	214.02
999.50	214.03
999.79	213.98
1000.08	213.99
1000.37	213.97
1000.66	213.98
1000.95	214.02
1001.24	214.05
1001.53	214.06
1001.82	214.05
1002.11	214.06
1002.40	214.02
1002.68	214.05
1002.97	214.21
1003.26	214.21
1003.55	214.20
1003.84	214.26
1004.13	214.33
1004.42	214.34
1004.71	214.29
1004.99	214.28
1005.28	214.34
1005.57	214.32
1005.86	214.32
1006.15	214.27
1006.44	214.23
1006.72	214.26
1007.01	214.26
1007.30	214.23
1007.59	214.23
1007.88	214.22
1008.17	214.18
1008.45	214.16
1008.74	214.03
1009.03	213.92
1009.32	213.93
1009.60	213.94
1009.89	213.89
1010.18	213.79
1010.47	213.80
1010.76	213.81
1011.04	213.80
1011.33	213.83
1011.62	213.86
1011.91	213.86
1012.19	213.92
1012.48	213.92
1012.77	213.91
1013.05	214.01
1013.34	214.03
1013.63	214.02
1013.92	214.05
1014.20	214.03
1014.49	214.05
1014.78	214.10
1015.06	214.00
1015.35	214.01
1015.64	214.02
1015.92	214.05
1016.21	214.09
1016.50	214.08
1016.78	214.10
1017.07	214.13
1017.36	214.04
1017.64	214.02
1017.93	214.03
1018.22	214.00
1018.50	214.00
1018.79	213.97
1019.08	213.87
1019.36	213.85
1019.65	213.85
1019.93	213.88
1020.22	213.94
1020.51	214.03
1020.79	213.99
1021.08	213.97
1021.36	213.17
1021.65	213.81
1021.94	214.28
1022.22	213.69
1022.51	213.73
1022.79	214.68
1023.08	214.14
1023.36	216.20
1023.65	213.14
>>>>>End Processed Spectral Data<<<<<
