SpectraSuite Data File
++++++++++++++++++++++++++++++++++++
Date: Tue Jan 29 16:20:32 EST 2013
User: group
Dark Spectrum Present: No
Reference Spectrum Present: No
Number of Sampled Component Spectra: 1
Spectrometers: USB2E7196
Integration Time (usec): 65000 (USB2E7196)
Spectra Averaged: 100 (USB2E7196)
Boxcar Smoothing: 10 (USB2E7196)
Correct for Electrical Dark: No (USB2E7196)
Strobe/Lamp Enabled: No (USB2E7196)
Correct for Detector Non-linearity: No (USB2E7196)
Correct for Stray Light: No (USB2E7196)
Number of Pixels in Processed Spectrum: 2048
>>>>>Begin Processed Spectral Data<<<<<
339.09	0.00
339.48	202.22
339.86	203.77
340.24	205.25
340.63	206.90
341.01	211.08
341.39	209.30
341.78	210.46
342.16	212.60
342.54	212.42
342.93	201.58
343.31	211.76
343.69	212.32
344.07	212.77
344.46	213.21
344.84	213.58
345.22	213.77
345.60	214.06
345.99	214.29
346.37	214.41
346.75	214.53
347.13	214.62
347.52	214.67
347.90	214.77
348.28	214.78
348.66	214.85
349.05	214.84
349.43	214.87
349.81	214.95
350.19	215.03
350.57	215.10
350.96	215.23
351.34	215.36
351.72	215.45
352.10	215.60
352.48	215.68
352.87	215.75
353.25	215.80
353.63	215.84
354.01	215.87
354.39	215.92
354.77	215.98
355.15	216.11
355.54	216.20
355.92	216.20
356.30	216.28
356.68	216.50
357.06	216.56
357.44	216.61
357.82	216.69
358.20	216.78
358.58	216.84
358.97	216.89
359.35	216.99
359.73	217.08
360.11	217.12
360.49	217.19
360.87	217.25
361.25	217.32
361.63	217.42
362.01	217.48
362.39	217.55
362.77	217.61
363.15	217.63
363.53	217.62
363.91	217.69
364.29	217.72
364.67	217.55
365.05	217.60
365.43	217.67
365.81	217.71
366.19	217.79
366.57	217.90
366.95	217.88
367.33	217.80
367.71	217.82
368.09	217.88
368.47	217.86
368.85	217.83
369.23	217.87
369.61	217.81
369.99	217.92
370.37	217.93
370.75	217.98
371.13	217.95
371.51	217.93
371.89	217.92
372.27	217.91
372.65	217.87
373.03	217.84
373.41	217.78
373.78	217.71
374.16	217.57
374.54	217.46
374.92	217.40
375.30	217.38
375.68	217.31
376.06	217.26
376.44	217.23
376.82	217.20
377.19	217.15
377.57	217.11
377.95	216.94
378.33	216.90
378.71	216.76
379.09	216.76
379.47	216.73
379.84	216.65
380.22	216.57
380.60	216.54
380.98	216.48
381.36	216.44
381.73	216.39
382.11	216.38
382.49	216.35
382.87	216.30
383.25	216.29
383.62	216.45
384.00	216.38
384.38	216.35
384.76	216.37
385.13	216.41
385.51	216.37
385.89	216.31
386.27	216.28
386.64	216.30
387.02	216.25
387.40	216.18
387.78	216.16
388.15	216.16
388.53	216.09
388.91	216.09
389.29	216.04
389.66	216.04
390.04	216.00
390.42	215.99
390.79	216.00
391.17	215.95
391.55	215.72
391.92	215.70
392.30	215.70
392.68	215.63
393.05	215.56
393.43	215.54
393.81	215.58
394.18	215.52
394.56	215.48
394.94	215.49
395.31	215.50
395.69	215.58
396.06	215.60
396.44	215.64
396.82	215.64
397.19	215.75
397.57	215.76
397.95	215.80
398.32	215.79
398.70	215.84
399.07	215.94
399.45	215.98
399.82	215.99
400.20	216.00
400.58	216.06
400.95	216.07
401.33	216.19
401.70	216.40
402.08	216.50
402.45	216.61
402.83	216.75
403.20	216.86
403.58	216.92
403.95	217.08
404.33	217.23
404.71	217.36
405.08	217.61
405.46	217.82
405.83	218.03
406.21	218.23
406.58	218.46
406.96	218.64
407.33	218.92
407.70	219.25
408.08	219.72
408.45	220.08
408.83	220.46
409.20	220.80
409.58	221.08
409.95	221.55
410.33	222.00
410.70	222.40
411.08	222.94
411.45	223.50
411.82	224.07
412.20	224.77
412.57	225.61
412.95	226.17
413.32	226.97
413.69	227.79
414.07	228.70
414.44	229.65
414.82	230.69
415.19	231.86
415.56	233.05
415.94	234.17
416.31	235.57
416.68	236.96
417.06	238.55
417.43	240.08
417.81	241.77
418.18	243.51
418.55	245.41
418.93	247.43
419.30	249.53
419.67	251.68
420.04	253.89
420.42	256.19
420.79	259.00
421.16	261.74
421.54	264.59
421.91	267.50
422.28	270.52
422.66	273.78
423.03	276.96
423.40	280.28
423.77	283.85
424.15	287.44
424.52	291.18
424.89	295.30
425.26	299.32
425.64	303.15
426.01	307.42
426.38	311.87
426.75	316.36
427.13	321.02
427.50	325.99
427.87	331.15
428.24	336.33
428.61	341.23
428.99	346.71
429.36	352.60
429.73	358.45
430.10	364.26
430.47	370.22
430.85	376.45
431.22	383.03
431.59	390.05
431.96	396.77
432.33	404.20
432.70	411.33
433.08	419.75
433.45	427.71
433.82	435.59
434.19	444.36
434.56	452.90
434.93	461.12
435.30	469.28
435.68	478.25
436.05	487.07
436.42	495.84
436.79	503.85
437.16	512.51
437.53	521.67
437.90	530.68
438.27	539.46
438.64	548.55
439.01	556.93
439.38	564.38
439.75	571.64
440.13	579.95
440.50	587.80
440.87	594.14
441.24	600.69
441.61	607.91
441.98	613.20
442.35	619.43
442.72	625.62
443.09	631.60
443.46	635.25
443.83	637.72
444.20	639.89
444.57	642.93
444.94	644.41
445.31	645.81
445.68	647.23
446.05	647.86
446.42	647.12
446.79	646.15
447.16	645.11
447.53	644.34
447.90	641.06
448.27	637.86
448.64	633.29
449.01	630.00
449.37	624.22
449.74	618.63
450.11	611.82
450.48	604.56
450.85	597.20
451.22	590.79
451.59	584.76
451.96	578.98
452.33	571.28
452.70	564.22
453.07	555.81
453.43	547.27
453.80	539.14
454.17	531.20
454.54	523.79
454.91	515.71
455.28	507.84
455.65	500.48
456.02	493.10
456.38	486.85
456.75	479.13
457.12	472.57
457.49	466.12
457.86	460.06
458.23	454.74
458.59	448.88
458.96	443.05
459.33	437.85
459.70	432.59
460.07	428.35
460.43	423.54
460.80	419.08
461.17	415.17
461.54	411.01
461.91	407.06
462.27	403.02
462.64	399.68
463.01	395.97
463.38	392.33
463.74	388.66
464.11	385.43
464.48	382.68
464.85	379.70
465.21	377.34
465.58	374.74
465.95	371.67
466.32	369.13
466.68	366.53
467.05	363.97
467.42	361.48
467.78	358.87
468.15	356.35
468.52	354.49
468.88	352.02
469.25	349.83
469.62	348.05
469.98	346.13
470.35	344.31
470.72	342.67
471.08	340.92
471.45	339.43
471.82	337.95
472.18	336.25
472.55	335.03
472.92	333.70
473.28	332.50
473.65	331.38
474.02	330.26
474.38	329.41
474.75	328.68
475.11	327.87
475.48	327.35
475.85	326.93
476.21	326.40
476.58	326.09
476.94	325.88
477.31	325.60
477.67	325.40
478.04	325.27
478.41	325.16
478.77	325.32
479.14	325.23
479.50	325.31
479.87	325.64
480.23	326.00
480.60	326.21
480.96	326.55
481.33	327.12
481.69	327.72
482.06	328.25
482.42	328.73
482.79	329.34
483.15	330.11
483.52	331.06
483.88	331.96
484.25	332.88
484.61	333.89
484.98	334.98
485.34	336.32
485.71	337.70
486.07	339.19
486.44	340.57
486.80	342.20
487.17	343.87
487.53	345.72
487.90	347.58
488.26	349.63
488.62	351.73
488.99	353.78
489.35	355.95
489.72	358.32
490.08	360.87
490.44	363.46
490.81	366.15
491.17	368.84
491.54	371.84
491.90	374.93
492.26	378.20
492.63	381.64
492.99	385.09
493.36	388.76
493.72	392.70
494.08	396.69
494.45	400.96
494.81	405.35
495.17	409.80
495.54	414.52
495.90	419.35
496.26	424.29
496.63	429.55
496.99	434.90
497.35	440.47
497.72	446.25
498.08	452.17
498.44	458.29
498.80	464.80
499.17	471.34
499.53	478.02
499.89	484.93
500.26	491.86
500.62	498.97
500.98	506.40
501.34	513.87
501.71	521.68
502.07	529.55
502.43	537.63
502.79	545.82
503.16	554.27
503.52	562.95
503.88	571.67
504.24	580.63
504.60	589.80
504.97	599.15
505.33	608.52
505.69	618.46
506.05	628.40
506.41	638.21
506.78	648.31
507.14	658.65
507.50	669.15
507.86	679.93
508.22	690.79
508.59	701.49
508.95	712.54
509.31	723.84
509.67	735.38
510.03	746.83
510.39	758.66
510.75	770.58
511.12	782.51
511.48	794.70
511.84	806.98
512.20	819.27
512.56	831.92
512.92	844.69
513.28	857.42
513.64	870.28
514.00	883.24
514.37	896.17
514.73	909.40
515.09	922.45
515.45	935.41
515.81	948.54
516.17	961.94
516.53	975.25
516.89	988.33
517.25	1001.54
517.61	1015.17
517.97	1028.56
518.33	1041.75
518.69	1055.39
519.05	1069.23
519.41	1083.04
519.77	1097.12
520.13	1110.53
520.49	1123.84
520.85	1137.22
521.21	1150.55
521.57	1164.26
521.93	1177.43
522.29	1191.21
522.65	1204.96
523.01	1218.58
523.37	1231.83
523.73	1245.22
524.09	1258.42
524.45	1271.96
524.81	1285.50
525.17	1298.80
525.53	1312.08
525.89	1325.35
526.25	1338.49
526.61	1351.29
526.97	1364.38
527.33	1377.33
527.68	1390.69
528.04	1404.14
528.40	1417.33
528.76	1430.68
529.12	1443.62
529.48	1457.05
529.84	1469.32
530.20	1482.10
530.56	1494.85
530.91	1508.15
531.27	1520.96
531.63	1533.69
531.99	1546.46
532.35	1558.62
532.71	1571.03
533.07	1583.78
533.42	1596.05
533.78	1608.21
534.14	1620.17
534.50	1631.38
534.86	1642.90
535.21	1653.77
535.57	1665.36
535.93	1676.51
536.29	1687.60
536.65	1698.98
537.00	1709.90
537.36	1721.20
537.72	1732.08
538.08	1743.30
538.44	1754.07
538.79	1765.24
539.15	1776.22
539.51	1787.03
539.87	1798.24
540.22	1809.04
540.58	1820.01
540.94	1830.93
541.29	1841.03
541.65	1850.91
542.01	1861.36
542.37	1871.39
542.72	1881.62
543.08	1891.42
543.44	1901.89
543.79	1911.22
544.15	1920.63
544.51	1930.58
544.87	1940.39
545.22	1949.62
545.58	1958.48
545.94	1967.53
546.29	1976.00
546.65	1984.33
547.01	1992.38
547.36	2000.20
547.72	2007.94
548.07	2015.45
548.43	2023.14
548.79	2031.08
549.14	2039.17
549.50	2047.72
549.86	2055.70
550.21	2063.09
550.57	2070.72
550.92	2077.58
551.28	2085.09
551.64	2092.35
551.99	2099.73
552.35	2106.96
552.70	2113.83
553.06	2120.58
553.41	2126.77
553.77	2133.26
554.13	2139.61
554.48	2146.71
554.84	2153.77
555.19	2160.28
555.55	2166.75
555.90	2173.01
556.26	2179.79
556.61	2185.90
556.97	2190.69
557.32	2196.43
557.68	2202.96
558.03	2208.68
558.39	2214.05
558.74	2219.98
559.10	2225.62
559.45	2231.18
559.81	2236.68
560.16	2242.33
560.52	2248.21
560.87	2254.67
561.23	2260.68
561.58	2267.35
561.94	2272.52
562.29	2277.23
562.64	2283.53
563.00	2289.31
563.35	2295.01
563.71	2300.80
564.06	2306.53
564.42	2312.60
564.77	2317.72
565.12	2322.98
565.48	2328.20
565.83	2333.71
566.19	2339.09
566.54	2344.58
566.89	2349.32
567.25	2354.13
567.60	2359.92
567.96	2365.13
568.31	2369.74
568.66	2374.13
569.02	2378.15
569.37	2382.06
569.72	2386.53
570.08	2389.92
570.43	2393.18
570.78	2396.36
571.14	2399.06
571.49	2402.28
571.84	2405.96
572.20	2408.93
572.55	2411.94
572.90	2414.38
573.26	2417.36
573.61	2420.18
573.96	2422.55
574.31	2424.79
574.67	2426.67
575.02	2427.44
575.37	2429.10
575.72	2429.97
576.08	2431.49
576.43	2431.81
576.78	2432.54
577.13	2434.30
577.49	2435.70
577.84	2436.78
578.19	2438.25
578.54	2438.85
578.90	2439.71
579.25	2439.69
579.60	2439.68
579.95	2439.00
580.30	2439.12
580.66	2438.51
581.01	2436.89
581.36	2434.42
581.71	2433.04
582.06	2431.98
582.42	2431.27
582.77	2429.09
583.12	2427.66
583.47	2426.47
583.82	2425.95
584.17	2424.69
584.53	2422.77
584.88	2420.77
585.23	2419.09
585.58	2416.98
585.93	2415.19
586.28	2413.21
586.63	2410.78
586.98	2408.98
587.34	2407.22
587.69	2404.98
588.04	2403.12
588.39	2401.78
588.74	2399.53
589.09	2396.87
589.44	2393.85
589.79	2391.47
590.14	2389.64
590.49	2386.79
590.84	2382.97
591.19	2380.09
591.54	2377.10
591.89	2373.11
592.25	2370.02
592.60	2365.81
592.95	2361.71
593.30	2357.55
593.65	2353.23
594.00	2348.99
594.35	2345.90
594.70	2341.20
595.05	2336.68
595.40	2331.20
595.75	2325.51
596.10	2321.87
596.45	2317.22
596.80	2312.74
597.15	2307.53
597.50	2301.61
597.85	2296.91
598.19	2291.72
598.54	2285.90
598.89	2280.54
599.24	2276.00
599.59	2269.75
599.94	2263.90
600.29	2258.03
600.64	2252.16
600.99	2245.35
601.34	2239.79
601.69	2232.79
602.04	2226.52
602.39	2219.90
602.74	2213.79
603.08	2208.23
603.43	2201.72
603.78	2194.87
604.13	2187.87
604.48	2180.59
604.83	2174.51
605.18	2168.14
605.53	2161.16
605.87	2154.12
606.22	2147.32
606.57	2139.35
606.92	2131.50
607.27	2124.53
607.62	2117.84
607.96	2110.87
608.31	2104.36
608.66	2096.58
609.01	2088.95
609.36	2081.80
609.70	2074.14
610.05	2066.49
610.40	2058.27
610.75	2049.93
611.10	2042.23
611.44	2033.31
611.79	2024.75
612.14	2014.71
612.49	2004.04
612.83	1994.69
613.18	1985.36
613.53	1976.11
613.88	1966.56
614.22	1957.80
614.57	1947.95
614.92	1937.30
615.27	1926.97
615.61	1916.76
615.96	1907.02
616.31	1897.40
616.65	1887.92
617.00	1877.97
617.35	1868.14
617.70	1858.17
618.04	1848.16
618.39	1837.91
618.74	1828.15
619.08	1818.26
619.43	1809.54
619.78	1801.22
620.12	1792.56
620.47	1782.82
620.82	1772.34
621.16	1762.40
621.51	1752.32
621.85	1742.42
622.20	1732.06
622.55	1721.45
622.89	1711.43
623.24	1701.56
623.59	1691.64
623.93	1681.41
624.28	1671.55
624.62	1661.42
624.97	1650.99
625.32	1641.00
625.66	1631.81
626.01	1622.90
626.35	1613.44
626.70	1603.15
627.04	1592.89
627.39	1582.62
627.73	1573.12
628.08	1564.08
628.43	1554.39
628.77	1545.12
629.12	1536.01
629.46	1528.04
629.81	1519.53
630.15	1509.91
630.50	1500.03
630.84	1489.42
631.19	1479.48
631.53	1469.99
631.88	1459.69
632.22	1449.67
632.57	1440.19
632.91	1430.00
633.26	1420.02
633.60	1410.23
633.95	1400.89
634.29	1391.34
634.64	1381.96
634.98	1371.92
635.32	1362.55
635.67	1353.93
636.01	1344.51
636.36	1334.81
636.70	1325.06
637.05	1315.62
637.39	1306.58
637.73	1297.87
638.08	1290.20
638.42	1281.80
638.77	1273.02
639.11	1264.71
639.45	1256.81
639.80	1248.19
640.14	1239.47
640.49	1230.47
640.83	1221.70
641.17	1213.44
641.52	1205.20
641.86	1196.43
642.20	1188.54
642.55	1179.74
642.89	1170.74
643.23	1162.07
643.58	1153.81
643.92	1144.70
644.26	1135.91
644.61	1127.40
644.95	1118.50
645.29	1109.18
645.64	1099.92
645.98	1091.31
646.32	1083.15
646.66	1074.49
647.01	1066.09
647.35	1057.79
647.69	1049.42
648.04	1040.99
648.38	1032.00
648.72	1023.08
649.06	1014.59
649.41	1006.26
649.75	998.25
650.09	990.33
650.43	982.15
650.78	973.65
651.12	965.74
651.46	958.22
651.80	950.88
652.14	943.45
652.49	935.80
652.83	928.36
653.17	920.54
653.51	912.89
653.85	905.61
654.20	898.28
654.54	890.67
654.88	883.20
655.22	875.98
655.56	868.92
655.90	862.03
656.25	855.23
656.59	848.24
656.93	841.18
657.27	833.93
657.61	826.97
657.95	820.83
658.29	814.93
658.64	808.68
658.98	802.19
659.32	795.59
659.66	789.28
660.00	782.98
660.34	776.87
660.68	770.67
661.02	764.25
661.36	758.14
661.70	752.33
662.05	746.73
662.39	741.15
662.73	735.67
663.07	730.26
663.41	724.61
663.75	718.94
664.09	713.19
664.43	707.80
664.77	702.39
665.11	696.60
665.45	690.62
665.79	684.74
666.13	679.00
666.47	673.47
666.81	667.96
667.15	662.43
667.49	657.15
667.83	651.85
668.17	646.56
668.51	641.48
668.85	636.52
669.19	631.60
669.53	626.55
669.87	621.43
670.21	616.62
670.55	611.92
670.89	607.40
671.23	603.06
671.57	598.59
671.91	594.26
672.25	590.00
672.58	585.86
672.92	581.80
673.26	577.79
673.60	573.96
673.94	570.10
674.28	566.53
674.62	562.83
674.96	559.07
675.30	555.53
675.64	551.79
675.97	548.20
676.31	544.54
676.65	540.89
676.99	537.38
677.33	533.45
677.67	529.69
678.01	525.83
678.34	522.13
678.68	518.61
679.02	514.92
679.36	511.22
679.70	507.52
680.04	503.95
680.37	500.46
680.71	497.01
681.05	493.84
681.39	490.53
681.73	487.33
682.06	484.28
682.40	481.14
682.74	477.95
683.08	474.73
683.42	471.51
683.75	468.50
684.09	465.48
684.43	462.72
684.77	459.83
685.10	457.00
685.44	454.03
685.78	451.06
686.12	448.31
686.45	445.58
686.79	442.90
687.13	440.35
687.46	437.70
687.80	435.01
688.14	432.12
688.48	429.50
688.81	426.79
689.15	424.18
689.49	421.56
689.82	419.01
690.16	416.38
690.50	413.93
690.83	411.40
691.17	408.88
691.51	406.30
691.84	404.04
692.18	401.76
692.52	399.56
692.85	397.46
693.19	395.25
693.52	393.02
693.86	390.77
694.20	388.55
694.53	386.42
694.87	384.21
695.21	382.13
695.54	379.92
695.88	377.71
696.21	375.50
696.55	373.42
696.88	371.33
697.22	369.35
697.56	367.44
697.89	365.54
698.23	363.74
698.56	362.03
698.90	360.29
699.23	358.33
699.57	356.45
699.90	354.55
700.24	352.76
700.58	351.04
700.91	349.38
701.25	347.81
701.58	346.24
701.92	344.71
702.25	343.07
702.59	341.43
702.92	339.89
703.26	338.35
703.59	336.84
703.93	335.56
704.26	334.14
704.60	332.60
704.93	331.09
705.26	329.55
705.60	328.03
705.93	326.46
706.27	325.14
706.60	323.90
706.94	322.60
707.27	321.21
707.61	319.89
707.94	318.54
708.27	317.02
708.61	315.52
708.94	314.11
709.28	312.82
709.61	311.61
709.94	310.45
710.28	309.24
710.61	308.04
710.95	306.61
711.28	305.48
711.61	304.31
711.95	303.20
712.28	302.02
712.61	300.85
712.95	299.79
713.28	298.75
713.61	297.55
713.95	296.42
714.28	295.41
714.61	294.33
714.95	293.30
715.28	292.31
715.61	291.30
715.95	290.34
716.28	289.37
716.61	288.41
716.95	287.36
717.28	286.40
717.61	285.44
717.94	284.58
718.28	283.58
718.61	282.73
718.94	281.82
719.27	280.95
719.61	280.11
719.94	279.23
720.27	278.27
720.60	277.48
720.94	276.69
721.27	275.93
721.60	275.25
721.93	274.53
722.27	273.93
722.60	273.29
722.93	272.58
723.26	271.91
723.59	271.15
723.93	270.55
724.26	269.93
724.59	269.31
724.92	268.68
725.25	268.13
725.59	267.56
725.92	267.06
726.25	266.50
726.58	265.92
726.91	265.29
727.24	264.77
727.57	264.18
727.91	263.55
728.24	262.98
728.57	262.39
728.90	261.82
729.23	261.14
729.56	260.68
729.89	260.09
730.22	259.53
730.55	259.05
730.89	258.52
731.22	257.97
731.55	257.45
731.88	256.93
732.21	256.38
732.54	255.81
732.87	255.25
733.20	254.80
733.53	254.35
733.86	253.94
734.19	253.46
734.52	253.06
734.85	252.79
735.18	252.30
735.51	251.93
735.84	251.54
736.17	251.18
736.50	250.65
736.83	250.56
737.16	250.20
737.49	249.78
737.82	249.38
738.15	249.00
738.48	248.59
738.81	248.20
739.14	247.78
739.47	247.41
739.80	247.03
740.13	246.65
740.46	246.25
740.79	245.84
741.12	245.48
741.45	245.08
741.78	244.64
742.11	244.41
742.44	244.01
742.77	243.70
743.10	243.35
743.43	243.02
743.75	242.39
744.08	242.28
744.41	241.93
744.74	241.57
745.07	241.20
745.40	240.90
745.73	240.67
746.06	240.33
746.39	240.05
746.71	239.71
747.04	239.34
747.37	239.02
747.70	238.76
748.03	238.45
748.36	238.19
748.68	237.90
749.01	237.50
749.34	237.24
749.67	236.95
750.00	236.70
750.33	236.57
750.65	236.35
750.98	235.86
751.31	235.64
751.64	235.42
751.97	235.33
752.29	235.05
752.62	234.72
752.95	234.51
753.28	234.23
753.60	234.02
753.93	233.87
754.26	233.66
754.59	233.36
754.91	233.11
755.24	232.87
755.57	232.58
755.90	232.41
756.22	232.13
756.55	231.88
756.88	231.60
757.20	231.25
757.53	231.00
757.86	230.75
758.19	230.54
758.51	230.31
758.84	230.01
759.17	229.84
759.49	229.62
759.82	229.56
760.15	229.42
760.47	229.21
760.80	228.97
761.13	228.82
761.45	228.66
761.78	228.51
762.11	228.32
762.43	228.16
762.76	227.96
763.08	227.84
763.41	227.68
763.74	227.52
764.06	227.36
764.39	227.21
764.71	227.08
765.04	226.92
765.37	226.75
765.69	226.58
766.02	226.45
766.34	226.33
766.67	226.04
767.00	225.93
767.32	225.91
767.65	225.89
767.97	225.76
768.30	225.64
768.62	225.53
768.95	225.38
769.27	225.27
769.60	225.18
769.92	225.03
770.25	224.87
770.57	224.73
770.90	224.58
771.22	224.43
771.55	224.30
771.87	224.22
772.20	224.11
772.52	224.17
772.85	224.29
773.17	224.21
773.50	224.13
773.82	223.98
774.15	223.80
774.47	223.57
774.80	223.44
775.12	223.36
775.45	223.25
775.77	223.19
776.09	223.11
776.42	223.06
776.74	223.01
777.07	222.90
777.39	222.83
777.72	222.73
778.04	222.68
778.36	222.58
778.69	222.49
779.01	222.47
779.33	222.21
779.66	221.87
779.98	221.76
780.31	221.68
780.63	221.70
780.95	221.64
781.28	221.55
781.60	221.48
781.92	221.37
782.25	221.30
782.57	221.21
782.89	221.10
783.22	220.96
783.54	220.89
783.86	220.86
784.19	220.79
784.51	220.80
784.83	220.75
785.16	220.65
785.48	220.60
785.80	220.50
786.12	220.45
786.45	220.40
786.77	220.36
787.09	220.30
787.42	220.13
787.74	220.04
788.06	220.01
788.38	219.92
788.71	219.84
789.03	219.79
789.35	219.76
789.67	219.73
789.99	219.70
790.32	219.61
790.64	219.62
790.96	219.75
791.28	219.65
791.61	219.57
791.93	219.54
792.25	219.48
792.57	219.63
792.89	219.58
793.21	219.54
793.54	219.49
793.86	219.44
794.18	219.42
794.50	219.38
794.82	219.34
795.14	219.33
795.47	219.33
795.79	219.32
796.11	219.23
796.43	219.18
796.75	219.14
797.07	219.08
797.39	218.99
797.71	218.83
798.04	218.79
798.36	218.78
798.68	218.77
799.00	218.76
799.32	218.58
799.64	218.60
799.96	218.54
800.28	218.56
800.60	218.51
800.92	218.51
801.24	218.46
801.56	218.43
801.89	218.37
802.21	218.34
802.53	218.26
802.85	218.27
803.17	218.33
803.49	218.27
803.81	218.25
804.13	218.15
804.45	218.08
804.77	218.08
805.09	218.02
805.41	217.96
805.73	217.85
806.05	217.78
806.37	217.73
806.69	217.70
807.01	217.63
807.33	217.60
807.65	217.51
807.97	217.60
808.28	217.56
808.60	217.59
808.92	217.53
809.24	217.64
809.56	217.58
809.88	217.50
810.20	217.49
810.52	217.49
810.84	217.49
811.16	217.45
811.48	217.43
811.80	217.48
812.12	217.47
812.43	217.50
812.75	217.49
813.07	217.43
813.39	217.39
813.71	217.32
814.03	217.31
814.35	217.28
814.67	217.12
814.98	217.10
815.30	217.03
815.62	216.98
815.94	216.80
816.26	216.80
816.58	216.72
816.89	216.71
817.21	216.68
817.53	216.71
817.85	216.71
818.17	216.66
818.48	216.59
818.80	216.64
819.12	216.59
819.44	216.49
819.76	216.44
820.07	216.44
820.39	216.44
820.71	216.43
821.03	216.40
821.34	216.39
821.66	216.42
821.98	216.42
822.30	216.38
822.61	216.51
822.93	216.45
823.25	216.43
823.57	216.39
823.88	216.40
824.20	216.36
824.52	216.39
824.83	216.41
825.15	216.38
825.47	216.30
825.79	216.33
826.10	216.36
826.42	216.36
826.74	216.38
827.05	216.39
827.37	216.40
827.69	216.41
828.00	216.41
828.32	216.38
828.64	216.37
828.95	216.48
829.27	216.43
829.58	216.43
829.90	216.44
830.22	216.46
830.53	216.39
830.85	216.35
831.17	216.28
831.48	216.23
831.80	216.20
832.11	216.20
832.43	216.17
832.75	216.12
833.06	216.25
833.38	216.16
833.69	216.12
834.01	216.09
834.32	216.07
834.64	216.06
834.96	216.05
835.27	216.01
835.59	215.93
835.90	215.85
836.22	215.84
836.53	215.79
836.85	215.76
837.16	215.99
837.48	215.98
837.79	216.03
838.11	215.99
838.42	216.00
838.74	215.99
839.05	215.97
839.37	216.00
839.68	215.87
840.00	215.85
840.31	215.91
840.63	215.90
840.94	215.86
841.26	215.82
841.57	215.83
841.88	215.90
842.20	215.89
842.51	215.89
842.83	215.89
843.14	216.12
843.46	216.10
843.77	215.94
844.08	215.91
844.40	215.83
844.71	215.82
845.03	215.78
845.34	215.74
845.65	215.72
845.97	215.70
846.28	215.68
846.60	215.68
846.91	215.58
847.22	215.59
847.54	215.64
847.85	215.64
848.16	215.59
848.48	215.51
848.79	215.58
849.10	215.61
849.42	215.60
849.73	215.40
850.04	215.38
850.36	215.32
850.67	215.37
850.98	215.41
851.30	215.43
851.61	215.44
851.92	215.47
852.23	215.52
852.55	215.53
852.86	215.53
853.17	215.56
853.49	215.59
853.80	215.59
854.11	215.59
854.42	215.61
854.74	215.58
855.05	215.58
855.36	215.48
855.67	215.46
855.99	215.46
856.30	215.71
856.61	215.71
856.92	215.68
857.23	215.67
857.55	215.65
857.86	215.63
858.17	215.66
858.48	215.59
858.79	215.54
859.11	215.53
859.42	215.51
859.73	215.49
860.04	215.49
860.35	215.44
860.66	215.40
860.98	215.38
861.29	215.41
861.60	215.37
861.91	215.39
862.22	215.35
862.53	215.32
862.84	215.07
863.16	215.13
863.47	215.10
863.78	215.08
864.09	215.09
864.40	215.11
864.71	215.10
865.02	215.14
865.33	215.15
865.64	215.11
865.95	215.13
866.27	215.29
866.58	215.27
866.89	215.29
867.20	215.25
867.51	215.22
867.82	215.19
868.13	215.25
868.44	215.22
868.75	215.25
869.06	215.23
869.37	215.21
869.68	215.13
869.99	215.17
870.30	215.16
870.61	215.16
870.92	215.12
871.23	215.12
871.54	215.14
871.85	215.17
872.16	215.20
872.47	215.17
872.78	215.01
873.09	215.03
873.40	215.03
873.71	215.07
874.02	215.08
874.33	215.07
874.64	215.03
874.95	215.06
875.26	215.02
875.56	215.02
875.87	215.04
876.18	215.03
876.49	215.24
876.80	215.24
877.11	215.19
877.42	215.20
877.73	215.20
878.04	215.16
878.35	215.13
878.66	215.11
878.96	215.10
879.27	215.09
879.58	215.08
879.89	215.06
880.20	215.12
880.51	215.13
880.82	215.15
881.12	215.17
881.43	215.12
881.74	215.12
882.05	215.12
882.36	215.10
882.67	215.16
882.97	214.94
883.28	214.91
883.59	214.91
883.90	214.96
884.21	214.97
884.51	214.94
884.82	214.89
885.13	214.90
885.44	214.92
885.74	214.91
886.05	214.88
886.36	214.90
886.67	214.80
886.98	214.91
887.28	214.93
887.59	214.91
887.90	214.91
888.20	214.87
888.51	214.91
888.82	214.90
889.13	214.88
889.43	215.02
889.74	215.04
890.05	215.05
890.35	215.01
890.66	214.96
890.97	214.96
891.28	214.97
891.58	215.03
891.89	215.01
892.20	215.00
892.50	214.97
892.81	214.93
893.12	214.93
893.42	214.81
893.73	214.81
894.04	214.84
894.34	214.84
894.65	214.84
894.95	214.81
895.26	214.81
895.57	214.91
895.87	214.76
896.18	214.78
896.48	214.79
896.79	214.78
897.10	214.82
897.40	214.84
897.71	214.87
898.01	214.81
898.32	214.87
898.63	214.85
898.93	214.89
899.24	214.90
899.54	214.89
899.85	214.90
900.15	214.84
900.46	214.80
900.76	214.85
901.07	214.87
901.38	214.85
901.68	214.89
901.99	214.79
902.29	214.78
902.60	214.74
902.90	214.72
903.21	214.70
903.51	214.69
903.82	214.71
904.12	214.70
904.43	214.72
904.73	214.66
905.03	214.67
905.34	214.85
905.64	214.85
905.95	214.87
906.25	214.86
906.56	214.90
906.86	214.95
907.17	214.91
907.47	214.90
907.77	214.91
908.08	214.84
908.38	214.86
908.69	214.87
908.99	214.90
909.30	214.94
909.60	214.95
909.90	214.96
910.21	214.92
910.51	214.90
910.81	214.90
911.12	214.92
911.42	214.94
911.73	214.76
912.03	214.78
912.33	214.83
912.64	214.81
912.94	214.76
913.24	214.69
913.55	214.70
913.85	214.72
914.15	214.76
914.46	214.79
914.76	214.75
915.06	214.73
915.37	214.68
915.67	214.65
915.97	214.64
916.27	214.57
916.58	214.58
916.88	214.58
917.18	214.55
917.49	214.72
917.79	214.68
918.09	214.67
918.39	214.73
918.70	214.72
919.00	214.75
919.30	214.84
919.60	214.85
919.91	214.83
920.21	214.84
920.51	214.79
920.81	214.80
921.12	214.84
921.42	214.84
921.72	214.86
922.02	214.87
922.32	214.92
922.63	214.95
922.93	215.04
923.23	215.08
923.53	215.05
923.83	214.93
924.13	214.96
924.44	214.96
924.74	214.97
925.04	214.98
925.34	214.96
925.64	214.89
925.94	214.88
926.24	215.00
926.55	214.96
926.85	214.98
927.15	214.96
927.45	214.94
927.75	214.94
928.05	214.97
928.35	214.97
928.65	215.00
928.95	215.00
929.26	214.92
929.56	214.94
929.86	214.96
930.16	214.91
930.46	214.88
930.76	214.88
931.06	214.79
931.36	214.77
931.66	214.78
931.96	214.79
932.26	214.83
932.56	214.73
932.86	214.76
933.16	214.73
933.46	214.73
933.76	214.72
934.06	214.77
934.36	214.79
934.66	214.77
934.96	214.73
935.26	214.76
935.56	214.77
935.86	214.68
936.16	214.66
936.46	214.67
936.76	214.69
937.06	214.67
937.36	214.69
937.66	214.70
937.96	214.71
938.26	214.67
938.56	214.63
938.86	214.66
939.16	214.69
939.46	214.73
939.76	214.75
940.06	214.74
940.35	214.69
940.65	214.62
940.95	214.64
941.25	214.58
941.55	214.57
941.85	214.58
942.15	214.66
942.45	214.71
942.75	214.68
943.04	214.69
943.34	214.75
943.64	214.74
943.94	214.70
944.24	214.67
944.54	214.71
944.84	214.72
945.13	214.71
945.43	214.68
945.73	214.64
946.03	214.63
946.33	214.63
946.62	214.61
946.92	214.56
947.22	214.60
947.52	214.64
947.82	214.65
948.11	214.62
948.41	214.57
948.71	214.55
949.01	214.56
949.31	214.52
949.60	214.52
949.90	214.55
950.20	214.55
950.50	214.57
950.79	214.54
951.09	214.55
951.39	214.50
951.69	214.48
951.98	214.56
952.28	214.55
952.58	214.56
952.87	214.57
953.17	214.65
953.47	214.58
953.76	214.56
954.06	214.50
954.36	214.47
954.66	214.48
954.95	214.51
955.25	214.56
955.55	214.57
955.84	214.50
956.14	214.51
956.44	214.51
956.73	214.49
957.03	214.48
957.32	214.50
957.62	214.54
957.92	214.59
958.21	214.54
958.51	214.79
958.81	214.82
959.10	214.84
959.40	214.89
959.69	214.95
959.99	214.98
960.29	215.01
960.58	214.99
960.88	215.07
961.17	215.02
961.47	214.99
961.76	215.00
962.06	215.03
962.36	215.00
962.65	215.00
962.95	215.01
963.24	214.99
963.54	214.99
963.83	214.94
964.13	214.93
964.42	214.90
964.72	214.72
965.01	214.72
965.31	214.69
965.60	214.62
965.90	214.73
966.19	214.68
966.49	214.69
966.78	214.67
967.08	214.62
967.37	214.64
967.67	214.64
967.96	214.64
968.26	214.67
968.55	214.71
968.85	214.69
969.14	214.65
969.43	214.67
969.73	214.64
970.02	214.66
970.32	214.60
970.61	214.58
970.91	214.50
971.20	214.45
971.49	214.42
971.79	214.47
972.08	214.31
972.38	214.34
972.67	214.33
972.96	214.36
973.26	214.34
973.55	214.41
973.85	214.40
974.14	214.39
974.43	214.37
974.73	214.32
975.02	214.32
975.31	214.37
975.61	214.37
975.90	214.34
976.19	214.32
976.49	214.34
976.78	214.36
977.07	214.39
977.37	214.42
977.66	214.43
977.95	214.36
978.24	214.39
978.54	214.42
978.83	214.43
979.12	214.42
979.42	214.43
979.71	214.39
980.00	214.37
980.29	214.39
980.59	214.35
980.88	214.39
981.17	214.38
981.46	214.38
981.76	214.37
982.05	214.46
982.34	214.50
982.63	214.51
982.93	214.50
983.22	214.53
983.51	214.52
983.80	214.57
984.09	214.60
984.39	214.59
984.68	214.56
984.97	214.59
985.26	214.59
985.55	214.63
985.85	214.59
986.14	214.64
986.43	214.66
986.72	214.66
987.01	214.60
987.30	214.60
987.59	214.61
987.89	214.65
988.18	214.61
988.47	214.61
988.76	214.58
989.05	214.59
989.34	214.54
989.63	214.60
989.92	214.55
990.22	214.57
990.51	214.55
990.80	214.55
991.09	214.54
991.38	214.56
991.67	214.52
991.96	214.48
992.25	214.48
992.54	214.43
992.83	214.42
993.12	214.42
993.41	214.49
993.70	214.53
993.99	214.52
994.28	214.55
994.58	214.58
994.87	214.56
995.16	214.57
995.45	214.58
995.74	214.51
996.03	214.53
996.32	214.54
996.61	214.61
996.90	214.60
997.19	214.59
997.48	214.59
997.77	214.58
998.06	214.61
998.34	214.57
998.63	214.58
998.92	214.61
999.21	214.65
999.50	214.64
999.79	214.58
1000.08	214.57
1000.37	214.53
1000.66	214.48
1000.95	214.55
1001.24	214.55
1001.53	214.58
1001.82	214.57
1002.11	214.53
1002.40	214.57
1002.68	214.59
1002.97	214.74
1003.26	214.74
1003.55	214.70
1003.84	214.74
1004.13	214.82
1004.42	214.83
1004.71	214.83
1004.99	214.81
1005.28	214.89
1005.57	214.89
1005.86	214.85
1006.15	214.87
1006.44	214.87
1006.72	214.87
1007.01	214.85
1007.30	214.85
1007.59	214.85
1007.88	214.84
1008.17	214.87
1008.45	214.83
1008.74	214.73
1009.03	214.63
1009.32	214.60
1009.60	214.61
1009.89	214.59
1010.18	214.52
1010.47	214.52
1010.76	214.52
1011.04	214.53
1011.33	214.51
1011.62	214.50
1011.91	214.54
1012.19	214.56
1012.48	214.54
1012.77	214.58
1013.05	214.68
1013.34	214.70
1013.63	214.67
1013.92	214.68
1014.20	214.65
1014.49	214.65
1014.78	214.67
1015.06	214.61
1015.35	214.60
1015.64	214.63
1015.92	214.66
1016.21	214.64
1016.50	214.62
1016.78	214.65
1017.07	214.61
1017.36	214.57
1017.64	214.55
1017.93	214.57
1018.22	214.54
1018.50	214.55
1018.79	214.50
1019.08	214.40
1019.36	214.38
1019.65	214.36
1019.93	214.42
1020.22	214.47
1020.51	214.55
1020.79	214.53
1021.08	214.31
1021.36	214.22
1021.65	214.23
1021.94	214.53
1022.22	214.45
1022.51	214.20
1022.79	215.16
1023.08	214.80
1023.36	216.70
1023.65	213.96
>>>>>End Processed Spectral Data<<<<<
