SpectraSuite Data File
++++++++++++++++++++++++++++++++++++
Date: Tue Jan 29 16:38:23 EST 2013
User: group
Dark Spectrum Present: No
Reference Spectrum Present: No
Number of Sampled Component Spectra: 1
Spectrometers: USB2E7196
Integration Time (usec): 65000 (USB2E7196)
Spectra Averaged: 100 (USB2E7196)
Boxcar Smoothing: 10 (USB2E7196)
Correct for Electrical Dark: No (USB2E7196)
Strobe/Lamp Enabled: No (USB2E7196)
Correct for Detector Non-linearity: No (USB2E7196)
Correct for Stray Light: No (USB2E7196)
Number of Pixels in Processed Spectrum: 2048
>>>>>Begin Processed Spectral Data<<<<<
339.09	0.00
339.48	202.15
339.86	203.24
340.24	204.61
340.63	205.83
341.01	210.38
341.39	208.54
341.78	210.44
342.16	211.96
342.54	212.06
342.93	201.11
343.31	211.26
343.69	211.80
344.07	212.26
344.46	212.69
344.84	213.11
345.22	213.27
345.60	213.56
345.99	213.76
346.37	213.89
346.75	213.97
347.13	214.03
347.52	214.07
347.90	214.18
348.28	214.19
348.66	214.24
349.05	214.21
349.43	214.27
349.81	214.33
350.19	214.37
350.57	214.45
350.96	214.53
351.34	214.65
351.72	214.76
352.10	214.87
352.48	214.94
352.87	214.99
353.25	215.09
353.63	215.14
354.01	215.16
354.39	215.22
354.77	215.32
355.15	215.43
355.54	215.49
355.92	215.50
356.30	215.58
356.68	215.83
357.06	215.89
357.44	215.97
357.82	216.02
358.20	216.11
358.58	216.18
358.97	216.25
359.35	216.34
359.73	216.45
360.11	216.52
360.49	216.63
360.87	216.69
361.25	216.75
361.63	216.87
362.01	216.97
362.39	217.02
362.77	217.13
363.15	217.18
363.53	217.25
363.91	217.29
364.29	217.35
364.67	217.15
365.05	217.23
365.43	217.28
365.81	217.36
366.19	217.45
366.57	217.51
366.95	217.53
367.33	217.49
367.71	217.47
368.09	217.50
368.47	217.46
368.85	217.46
369.23	217.51
369.61	217.45
369.99	217.49
370.37	217.50
370.75	217.53
371.13	217.50
371.51	217.42
371.89	217.40
372.27	217.37
372.65	217.36
373.03	217.27
373.41	217.23
373.78	217.17
374.16	217.07
374.54	216.99
374.92	216.91
375.30	216.89
375.68	216.79
376.06	216.76
376.44	216.71
376.82	216.66
377.19	216.59
377.57	216.55
377.95	216.43
378.33	216.36
378.71	216.17
379.09	216.15
379.47	216.13
379.84	216.09
380.22	216.01
380.60	215.95
380.98	215.96
381.36	215.88
381.73	215.78
382.11	215.74
382.49	215.69
382.87	215.64
383.25	215.55
383.62	215.73
384.00	215.63
384.38	215.59
384.76	215.60
385.13	215.64
385.51	215.59
385.89	215.56
386.27	215.53
386.64	215.57
387.02	215.51
387.40	215.47
387.78	215.44
388.15	215.44
388.53	215.37
388.91	215.33
389.29	215.27
389.66	215.30
390.04	215.25
390.42	215.29
390.79	215.29
391.17	215.30
391.55	215.08
391.92	215.09
392.30	215.11
392.68	215.04
393.05	214.99
393.43	214.99
393.81	214.96
394.18	214.95
394.56	214.90
394.94	214.94
395.31	214.94
395.69	215.01
396.06	215.05
396.44	215.10
396.82	215.07
397.19	215.23
397.57	215.23
397.95	215.30
398.32	215.26
398.70	215.30
399.07	215.37
399.45	215.43
399.82	215.44
400.20	215.45
400.58	215.52
400.95	215.51
401.33	215.63
401.70	215.88
402.08	215.96
402.45	216.06
402.83	216.21
403.20	216.30
403.58	216.37
403.95	216.53
404.33	216.72
404.71	216.91
405.08	217.17
405.46	217.35
405.83	217.54
406.21	217.74
406.58	217.99
406.96	218.22
407.33	218.49
407.70	218.82
408.08	219.32
408.45	219.68
408.83	220.08
409.20	220.44
409.58	220.72
409.95	221.17
410.33	221.66
410.70	222.07
411.08	222.66
411.45	223.24
411.82	223.79
412.20	224.45
412.57	225.28
412.95	225.85
413.32	226.68
413.69	227.51
414.07	228.45
414.44	229.43
414.82	230.45
415.19	231.64
415.56	232.83
415.94	233.99
416.31	235.40
416.68	236.80
417.06	238.39
417.43	239.94
417.81	241.67
418.18	243.47
418.55	245.41
418.93	247.39
419.30	249.55
419.67	251.81
420.04	254.08
420.42	256.47
420.79	259.31
421.16	262.13
421.54	265.08
421.91	268.06
422.28	271.21
422.66	274.54
423.03	277.82
423.40	281.17
423.77	284.83
424.15	288.49
424.52	292.34
424.89	296.54
425.26	300.61
425.64	304.58
426.01	308.85
426.38	313.34
426.75	317.92
427.13	322.62
427.50	327.60
427.87	332.81
428.24	338.02
428.61	343.00
428.99	348.48
429.36	354.52
429.73	360.45
430.10	366.25
430.47	372.36
430.85	378.68
431.22	385.46
431.59	392.55
431.96	399.43
432.33	406.93
432.70	414.20
433.08	422.73
433.45	430.75
433.82	438.84
434.19	447.81
434.56	456.55
434.93	464.93
435.30	473.22
435.68	482.37
436.05	491.38
436.42	500.32
436.79	508.51
437.16	517.22
437.53	526.53
437.90	535.70
438.27	544.65
438.64	553.89
439.01	562.45
439.38	570.08
439.75	577.39
440.13	585.87
440.50	593.90
440.87	600.39
441.24	607.05
441.61	614.39
441.98	619.77
442.35	626.18
442.72	632.56
443.09	638.68
443.46	642.46
443.83	645.02
444.20	647.28
444.57	650.46
444.94	652.01
445.31	653.52
445.68	654.88
446.05	655.56
446.42	654.77
446.79	653.73
447.16	652.66
447.53	651.93
447.90	648.55
448.27	645.15
448.64	640.49
449.01	637.20
449.37	631.31
449.74	625.56
450.11	618.56
450.48	611.12
450.85	603.68
451.22	597.19
451.59	591.10
451.96	585.20
452.33	577.28
452.70	570.09
453.07	561.50
453.43	552.93
453.80	544.58
454.17	536.55
454.54	529.01
454.91	520.75
455.28	512.70
455.65	505.31
456.02	497.81
456.38	491.45
456.75	483.50
457.12	476.90
457.49	470.39
457.86	464.18
458.23	458.77
458.59	452.73
458.96	446.72
459.33	441.29
459.70	435.88
460.07	431.61
460.43	426.68
460.80	422.13
461.17	418.10
461.54	413.88
461.91	409.83
462.27	405.68
462.64	402.29
463.01	398.50
463.38	394.77
463.74	391.04
464.11	387.77
464.48	384.97
464.85	381.82
465.21	379.39
465.58	376.76
465.95	373.62
466.32	371.05
466.68	368.42
467.05	365.83
467.42	363.30
467.78	360.60
468.15	358.06
468.52	356.11
468.88	353.59
469.25	351.34
469.62	349.56
469.98	347.62
470.35	345.71
470.72	344.00
471.08	342.17
471.45	340.69
471.82	339.15
472.18	337.45
472.55	336.26
472.92	334.86
473.28	333.62
473.65	332.47
474.02	331.31
474.38	330.38
474.75	329.62
475.11	328.84
475.48	328.30
475.85	327.86
476.21	327.38
476.58	327.04
476.94	326.76
477.31	326.47
477.67	326.20
478.04	326.05
478.41	326.00
478.77	326.19
479.14	326.12
479.50	326.27
479.87	326.58
480.23	326.87
480.60	327.08
480.96	327.38
481.33	327.95
481.69	328.50
482.06	329.04
482.42	329.52
482.79	330.08
483.15	330.85
483.52	331.76
483.88	332.58
484.25	333.54
484.61	334.57
484.98	335.61
485.34	336.98
485.71	338.37
486.07	339.81
486.44	341.08
486.80	342.72
487.17	344.39
487.53	346.19
487.90	348.04
488.26	350.11
488.62	352.32
488.99	354.36
489.35	356.52
489.72	358.85
490.08	361.35
490.44	363.92
490.81	366.64
491.17	369.38
491.54	372.41
491.90	375.48
492.26	378.72
492.63	382.13
492.99	385.60
493.36	389.29
493.72	393.17
494.08	397.24
494.45	401.41
494.81	405.72
495.17	410.21
495.54	414.97
495.90	419.79
496.26	424.67
496.63	429.86
496.99	435.26
497.35	440.88
497.72	446.71
498.08	452.67
498.44	458.77
498.80	465.19
499.17	471.69
499.53	478.39
499.89	485.34
500.26	492.33
500.62	499.42
500.98	506.82
501.34	514.32
501.71	522.14
502.07	530.00
502.43	538.08
502.79	546.24
503.16	554.62
503.52	563.21
503.88	571.97
504.24	580.97
504.60	590.09
504.97	599.30
505.33	608.64
505.69	618.45
506.05	628.28
506.41	638.18
506.78	648.26
507.14	658.57
507.50	669.04
507.86	679.78
508.22	690.55
508.59	701.25
508.95	712.31
509.31	723.60
509.67	735.09
510.03	746.48
510.39	758.33
510.75	770.18
511.12	782.24
511.48	794.38
511.84	806.77
512.20	819.22
512.56	831.98
512.92	844.82
513.28	857.59
513.64	870.46
514.00	883.30
514.37	896.30
514.73	909.47
515.09	922.50
515.45	935.47
515.81	948.65
516.17	962.11
516.53	975.42
516.89	988.56
517.25	1001.90
517.61	1015.62
517.97	1029.07
518.33	1042.38
518.69	1055.90
519.05	1069.72
519.41	1083.38
519.77	1097.28
520.13	1110.59
520.49	1123.86
520.85	1137.31
521.21	1150.70
521.57	1164.58
521.93	1177.81
522.29	1191.52
522.65	1205.21
523.01	1218.87
523.37	1232.17
523.73	1245.50
524.09	1258.85
524.45	1272.36
524.81	1285.94
525.17	1299.38
525.53	1312.60
525.89	1325.91
526.25	1339.08
526.61	1351.99
526.97	1365.19
527.33	1378.21
527.68	1391.77
528.04	1405.33
528.40	1418.57
528.76	1432.04
529.12	1444.97
529.48	1458.52
529.84	1470.95
530.20	1483.92
530.56	1496.71
530.91	1510.03
531.27	1523.12
531.63	1535.83
531.99	1548.71
532.35	1561.02
532.71	1573.58
533.07	1586.59
533.42	1598.99
533.78	1611.21
534.14	1623.41
534.50	1634.74
534.86	1646.48
535.21	1657.50
535.57	1669.12
535.93	1680.49
536.29	1691.76
536.65	1703.33
537.00	1714.25
537.36	1725.77
537.72	1736.82
538.08	1748.27
538.44	1759.29
538.79	1770.49
539.15	1781.57
539.51	1792.35
539.87	1803.79
540.22	1814.66
540.58	1825.63
540.94	1836.58
541.29	1847.02
541.65	1857.00
542.01	1867.66
542.37	1877.77
542.72	1888.08
543.08	1898.09
543.44	1908.75
543.79	1918.12
544.15	1927.56
544.51	1937.61
544.87	1947.54
545.22	1956.75
545.58	1965.71
545.94	1974.73
546.29	1983.26
546.65	1991.79
547.01	2000.24
547.36	2007.98
547.72	2015.82
548.07	2023.60
548.43	2031.57
548.79	2039.65
549.14	2047.83
549.50	2056.30
549.86	2064.33
550.21	2071.89
550.57	2079.57
550.92	2086.32
551.28	2093.85
551.64	2101.31
551.99	2108.88
552.35	2116.14
552.70	2123.22
553.06	2129.97
553.41	2136.30
553.77	2142.97
554.13	2149.39
554.48	2156.33
554.84	2163.43
555.19	2169.96
555.55	2176.44
555.90	2182.82
556.26	2189.53
556.61	2195.68
556.97	2200.54
557.32	2206.38
557.68	2212.78
558.03	2218.67
558.39	2224.16
558.74	2230.24
559.10	2235.84
559.45	2241.52
559.81	2247.06
560.16	2252.48
560.52	2258.47
560.87	2264.92
561.23	2270.72
561.58	2277.43
561.94	2282.68
562.29	2287.33
562.64	2293.48
563.00	2299.02
563.35	2304.42
563.71	2310.27
564.06	2315.77
564.42	2321.79
564.77	2326.77
565.12	2331.94
565.48	2336.92
565.83	2342.26
566.19	2347.54
566.54	2352.80
566.89	2357.30
567.25	2361.88
567.60	2367.67
567.96	2372.63
568.31	2377.24
568.66	2381.59
569.02	2385.39
569.37	2389.16
569.72	2393.77
570.08	2397.19
570.43	2400.31
570.78	2403.49
571.14	2405.98
571.49	2409.13
571.84	2412.58
572.20	2415.52
572.55	2418.56
572.90	2420.79
573.26	2423.73
573.61	2426.16
573.96	2428.24
574.31	2430.19
574.67	2432.04
575.02	2432.67
575.37	2434.11
575.72	2434.57
576.08	2436.01
576.43	2435.97
576.78	2436.34
577.13	2437.64
577.49	2438.67
577.84	2439.65
578.19	2440.72
578.54	2441.03
578.90	2441.72
579.25	2441.45
579.60	2441.07
579.95	2440.16
580.30	2440.08
580.66	2439.10
581.01	2437.39
581.36	2434.83
581.71	2433.23
582.06	2431.85
582.42	2431.03
582.77	2428.60
583.12	2427.00
583.47	2425.44
583.82	2424.79
584.17	2423.32
584.53	2421.09
584.88	2418.91
585.23	2416.84
585.58	2414.64
585.93	2412.48
586.28	2410.08
586.63	2407.44
586.98	2405.20
587.34	2403.05
587.69	2400.54
588.04	2398.42
588.39	2396.86
588.74	2394.28
589.09	2391.49
589.44	2388.30
589.79	2385.64
590.14	2383.66
590.49	2380.61
590.84	2376.50
591.19	2373.37
591.54	2370.26
591.89	2366.12
592.25	2362.81
592.60	2358.46
592.95	2354.09
593.30	2349.97
593.65	2345.42
594.00	2341.07
594.35	2337.91
594.70	2333.27
595.05	2328.62
595.40	2323.05
595.75	2317.14
596.10	2313.41
596.45	2308.60
596.80	2303.90
597.15	2298.59
597.50	2292.58
597.85	2287.62
598.19	2282.49
598.54	2276.68
598.89	2271.26
599.24	2266.64
599.59	2260.36
599.94	2254.46
600.29	2248.38
600.64	2242.32
600.99	2235.58
601.34	2229.98
601.69	2222.98
602.04	2216.54
602.39	2209.85
602.74	2203.69
603.08	2198.17
603.43	2191.68
603.78	2184.72
604.13	2177.67
604.48	2170.24
604.83	2164.08
605.18	2157.84
605.53	2150.89
605.87	2143.62
606.22	2136.82
606.57	2128.83
606.92	2120.86
607.27	2114.08
607.62	2107.45
607.96	2100.37
608.31	2093.94
608.66	2086.08
609.01	2078.48
609.36	2071.24
609.70	2063.54
610.05	2055.74
610.40	2047.36
610.75	2039.03
611.10	2031.41
611.44	2022.62
611.79	2013.98
612.14	2004.00
612.49	1993.27
612.83	1983.88
613.18	1974.65
613.53	1965.22
613.88	1955.64
614.22	1946.98
614.57	1936.89
614.92	1926.28
615.27	1916.12
615.61	1905.83
615.96	1896.31
616.31	1886.65
616.65	1877.28
617.00	1867.53
617.35	1857.84
617.70	1848.08
618.04	1837.97
618.39	1827.70
618.74	1817.80
619.08	1808.13
619.43	1799.42
619.78	1791.10
620.12	1782.38
620.47	1772.82
620.82	1762.61
621.16	1752.96
621.51	1743.09
621.85	1733.38
622.20	1723.10
622.55	1712.62
622.89	1702.74
623.24	1693.01
623.59	1683.32
623.93	1673.19
624.28	1663.46
624.62	1653.41
624.97	1643.19
625.32	1633.49
625.66	1624.71
626.01	1616.03
626.35	1606.76
626.70	1596.69
627.04	1586.62
627.39	1576.60
627.73	1567.37
628.08	1558.39
628.43	1548.80
628.77	1539.59
629.12	1530.69
629.46	1522.85
629.81	1514.46
630.15	1504.95
630.50	1495.01
630.84	1484.44
631.19	1474.50
631.53	1465.10
631.88	1455.01
632.22	1445.05
632.57	1435.75
632.91	1425.55
633.26	1415.76
633.60	1406.23
633.95	1396.96
634.29	1387.45
634.64	1378.12
634.98	1368.12
635.32	1358.83
635.67	1350.28
636.01	1340.96
636.36	1331.24
636.70	1321.61
637.05	1312.36
637.39	1303.52
637.73	1295.02
638.08	1287.47
638.42	1279.37
638.77	1270.69
639.11	1262.45
639.45	1254.57
639.80	1246.06
640.14	1237.38
640.49	1228.53
640.83	1219.66
641.17	1211.46
641.52	1203.48
641.86	1194.93
642.20	1187.13
642.55	1178.52
642.89	1169.64
643.23	1161.09
643.58	1153.03
643.92	1144.00
644.26	1135.14
644.61	1126.67
644.95	1117.80
645.29	1108.64
645.64	1099.45
645.98	1090.86
646.32	1082.87
646.66	1074.37
647.01	1065.99
647.35	1057.90
647.69	1049.49
648.04	1041.13
648.38	1032.28
648.72	1023.48
649.06	1015.00
649.41	1006.86
649.75	998.90
650.09	991.07
650.43	983.02
650.78	974.58
651.12	966.96
651.46	959.66
651.80	952.43
652.14	945.28
652.49	937.81
652.83	930.46
653.17	922.81
653.51	915.19
653.85	908.00
654.20	900.69
654.54	893.07
654.88	885.83
655.22	878.58
655.56	871.55
655.90	864.69
656.25	858.01
656.59	851.05
656.93	844.01
657.27	836.82
657.61	829.74
657.95	823.66
658.29	817.73
658.64	811.53
658.98	804.97
659.32	798.25
659.66	791.94
660.00	785.60
660.34	779.45
660.68	773.35
661.02	766.95
661.36	760.99
661.70	755.20
662.05	749.52
662.39	744.09
662.73	738.62
663.07	733.21
663.41	727.52
663.75	721.80
664.09	716.12
664.43	710.63
664.77	705.34
665.11	699.44
665.45	693.44
665.79	687.60
666.13	681.94
666.47	676.42
666.81	670.92
667.15	665.50
667.49	660.29
667.83	654.91
668.17	649.62
668.51	644.50
668.85	639.46
669.19	634.49
669.53	629.46
669.87	624.32
670.21	619.55
670.55	614.82
670.89	610.28
671.23	605.95
671.57	601.54
671.91	597.16
672.25	593.02
672.58	588.90
672.92	584.80
673.26	580.89
673.60	577.01
673.94	573.17
674.28	569.50
674.62	565.74
674.96	562.02
675.30	558.51
675.64	554.73
675.97	551.17
676.31	547.57
676.65	543.89
676.99	540.49
677.33	536.60
677.67	532.89
678.01	528.97
678.34	525.26
678.68	521.70
679.02	518.11
679.36	514.37
679.70	510.72
680.04	507.11
680.37	503.55
680.71	500.14
681.05	496.93
681.39	493.63
681.73	490.44
682.06	487.41
682.40	484.23
682.74	481.03
683.08	477.78
683.42	474.51
683.75	471.50
684.09	468.41
684.43	465.62
684.77	462.64
685.10	459.80
685.44	456.81
685.78	453.81
686.12	450.92
686.45	448.19
686.79	445.49
687.13	442.87
687.46	440.16
687.80	437.46
688.14	434.62
688.48	431.89
688.81	429.13
689.15	426.48
689.49	423.88
689.82	421.35
690.16	418.72
690.50	416.28
690.83	413.72
691.17	411.10
691.51	408.53
691.84	406.23
692.18	403.99
692.52	401.77
692.85	399.60
693.19	397.46
693.52	395.25
693.86	392.98
694.20	390.78
694.53	388.63
694.87	386.41
695.21	384.17
695.54	382.02
695.88	379.87
696.21	377.64
696.55	375.47
696.88	373.35
697.22	371.38
697.56	369.42
697.89	367.49
698.23	365.71
698.56	363.90
698.90	362.12
699.23	360.18
699.57	358.30
699.90	356.42
700.24	354.61
700.58	352.85
700.91	351.13
701.25	349.56
701.58	347.92
701.92	346.30
702.25	344.72
702.59	343.07
702.92	341.47
703.26	339.89
703.59	338.39
703.93	337.11
704.26	335.64
704.60	334.14
704.93	332.66
705.26	331.12
705.60	329.65
705.93	328.09
706.27	326.74
706.60	325.42
706.94	324.19
707.27	322.75
707.61	321.37
707.94	320.02
708.27	318.47
708.61	316.97
708.94	315.62
709.28	314.32
709.61	313.06
709.94	311.84
710.28	310.60
710.61	309.38
710.95	307.92
711.28	306.81
711.61	305.59
711.95	304.41
712.28	303.23
712.61	302.00
712.95	300.96
713.28	299.89
713.61	298.76
713.95	297.57
714.28	296.55
714.61	295.49
714.95	294.41
715.28	293.37
715.61	292.37
715.95	291.38
716.28	290.38
716.61	289.39
716.95	288.37
717.28	287.41
717.61	286.44
717.94	285.52
718.28	284.47
718.61	283.60
718.94	282.67
719.27	281.84
719.61	281.01
719.94	280.11
720.27	279.12
720.60	278.24
720.94	277.45
721.27	276.69
721.60	275.98
721.93	275.28
722.27	274.61
722.60	273.92
722.93	273.19
723.26	272.55
723.59	271.87
723.93	271.22
724.26	270.55
724.59	269.87
724.92	269.26
725.25	268.74
725.59	268.14
725.92	267.61
726.25	267.05
726.58	266.46
726.91	265.88
727.24	265.35
727.57	264.78
727.91	264.12
728.24	263.52
728.57	262.90
728.90	262.34
729.23	261.72
729.56	261.30
729.89	260.74
730.22	260.14
730.55	259.61
730.89	259.06
731.22	258.52
731.55	258.02
731.88	257.53
732.21	256.94
732.54	256.40
732.87	255.89
733.20	255.38
733.53	254.91
733.86	254.45
734.19	253.93
734.52	253.49
734.85	253.22
735.18	252.75
735.51	252.38
735.84	251.92
736.17	251.54
736.50	250.96
736.83	250.78
737.16	250.35
737.49	249.93
737.82	249.52
738.15	249.16
738.48	248.76
738.81	248.32
739.14	247.90
739.47	247.50
739.80	247.09
740.13	246.74
740.46	246.32
740.79	245.92
741.12	245.58
741.45	245.21
741.78	244.74
742.11	244.45
742.44	244.05
742.77	243.78
743.10	243.42
743.43	243.08
743.75	242.51
744.08	242.49
744.41	242.10
744.74	241.77
745.07	241.40
745.40	241.10
745.73	240.87
746.06	240.52
746.39	240.20
746.71	239.88
747.04	239.51
747.37	239.20
747.70	238.92
748.03	238.61
748.36	238.34
748.68	238.03
749.01	237.68
749.34	237.39
749.67	237.09
750.00	236.81
750.33	236.69
750.65	236.44
750.98	235.90
751.31	235.66
751.64	235.44
751.97	235.30
752.29	235.02
752.62	234.65
752.95	234.42
753.28	234.14
753.60	233.91
753.93	233.73
754.26	233.49
754.59	233.17
754.91	232.89
755.24	232.60
755.57	232.39
755.90	232.13
756.22	231.86
756.55	231.63
756.88	231.39
757.20	231.02
757.53	230.75
757.86	230.51
758.19	230.30
758.51	230.04
758.84	229.74
759.17	229.54
759.49	229.39
759.82	229.28
760.15	229.13
760.47	228.91
760.80	228.63
761.13	228.49
761.45	228.33
761.78	228.20
762.11	228.04
762.43	227.83
762.76	227.66
763.08	227.53
763.41	227.32
763.74	227.17
764.06	227.03
764.39	226.88
764.71	226.73
765.04	226.59
765.37	226.44
765.69	226.30
766.02	226.14
766.34	225.97
766.67	225.77
767.00	225.69
767.32	225.66
767.65	225.65
767.97	225.48
768.30	225.36
768.62	225.23
768.95	225.08
769.27	224.96
769.60	224.89
769.92	224.73
770.25	224.60
770.57	224.44
770.90	224.31
771.22	224.16
771.55	224.06
771.87	223.96
772.20	223.83
772.52	223.87
772.85	224.02
773.17	223.96
773.50	223.81
773.82	223.66
774.15	223.47
774.47	223.26
774.80	223.16
775.12	223.06
775.45	222.95
775.77	222.86
776.09	222.77
776.42	222.66
776.74	222.63
777.07	222.53
777.39	222.44
777.72	222.35
778.04	222.30
778.36	222.19
778.69	222.09
779.01	221.99
779.33	221.74
779.66	221.40
779.98	221.29
780.31	221.27
780.63	221.28
780.95	221.23
781.28	221.15
781.60	221.04
781.92	221.00
782.25	220.92
782.57	220.85
782.89	220.78
783.22	220.70
783.54	220.62
783.86	220.55
784.19	220.49
784.51	220.48
784.83	220.41
785.16	220.31
785.48	220.26
785.80	220.25
786.12	220.19
786.45	220.15
786.77	220.10
787.09	220.02
787.42	219.87
787.74	219.83
788.06	219.80
788.38	219.74
788.71	219.67
789.03	219.62
789.35	219.61
789.67	219.51
789.99	219.47
790.32	219.37
790.64	219.36
790.96	219.47
791.28	219.36
791.61	219.30
791.93	219.27
792.25	219.24
792.57	219.29
792.89	219.19
793.21	219.13
793.54	219.07
793.86	218.99
794.18	218.97
794.50	218.85
794.82	218.80
795.14	218.79
795.47	218.75
795.79	218.73
796.11	218.63
796.43	218.60
796.75	218.55
797.07	218.53
797.39	218.46
797.71	218.28
798.04	218.24
798.36	218.20
798.68	218.19
799.00	218.12
799.32	218.00
799.64	218.01
799.96	217.99
800.28	217.97
800.60	217.94
800.92	217.92
801.24	217.87
801.56	217.84
801.89	217.80
802.21	217.76
802.53	217.68
802.85	217.67
803.17	217.77
803.49	217.70
803.81	217.65
804.13	217.61
804.45	217.56
804.77	217.53
805.09	217.48
805.41	217.39
805.73	217.34
806.05	217.26
806.37	217.23
806.69	217.18
807.01	217.14
807.33	217.15
807.65	217.04
807.97	217.15
808.28	217.11
808.60	217.08
808.92	217.04
809.24	217.15
809.56	217.08
809.88	216.95
810.20	216.94
810.52	216.94
810.84	216.92
811.16	216.83
811.48	216.81
811.80	216.88
812.12	216.87
812.43	216.88
812.75	216.87
813.07	216.80
813.39	216.76
813.71	216.74
814.03	216.64
814.35	216.64
814.67	216.53
814.98	216.48
815.30	216.43
815.62	216.37
815.94	216.24
816.26	216.25
816.58	216.20
816.89	216.21
817.21	216.15
817.53	216.12
817.85	216.14
818.17	216.11
818.48	216.01
818.80	216.05
819.12	216.00
819.44	215.98
819.76	215.92
820.07	215.93
820.39	215.88
820.71	215.89
821.03	215.87
821.34	215.85
821.66	215.86
821.98	215.87
822.30	215.83
822.61	215.93
822.93	215.91
823.25	215.88
823.57	215.85
823.88	215.88
824.20	215.87
824.52	215.88
824.83	215.86
825.15	215.82
825.47	215.79
825.79	215.78
826.10	215.76
826.42	215.77
826.74	215.80
827.05	215.78
827.37	215.76
827.69	215.76
828.00	215.72
828.32	215.66
828.64	215.63
828.95	215.75
829.27	215.64
829.58	215.62
829.90	215.64
830.22	215.62
830.53	215.57
830.85	215.49
831.17	215.44
831.48	215.44
831.80	215.46
832.11	215.41
832.43	215.37
832.75	215.36
833.06	215.50
833.38	215.40
833.69	215.41
834.01	215.45
834.32	215.42
834.64	215.38
834.96	215.41
835.27	215.41
835.59	215.31
835.90	215.26
836.22	215.25
836.53	215.20
836.85	215.20
837.16	215.40
837.48	215.44
837.79	215.48
838.11	215.51
838.42	215.46
838.74	215.46
839.05	215.43
839.37	215.41
839.68	215.24
840.00	215.24
840.31	215.25
840.63	215.19
840.94	215.17
841.26	215.19
841.57	215.19
841.88	215.22
842.20	215.18
842.51	215.16
842.83	215.17
843.14	215.36
843.46	215.34
843.77	215.22
844.08	215.19
844.40	215.13
844.71	215.09
845.03	215.09
845.34	215.11
845.65	215.11
845.97	215.11
846.28	215.10
846.60	215.09
846.91	215.06
847.22	215.05
847.54	215.07
847.85	215.08
848.16	215.01
848.48	214.96
848.79	215.06
849.10	215.08
849.42	215.05
849.73	214.83
850.04	214.82
850.36	214.73
850.67	214.76
850.98	214.75
851.30	214.74
851.61	214.72
851.92	214.67
852.23	214.73
852.55	214.73
852.86	214.74
853.17	214.77
853.49	214.79
853.80	214.85
854.11	214.86
854.42	214.84
854.74	214.83
855.05	214.83
855.36	214.73
855.67	214.73
855.99	214.73
856.30	214.97
856.61	214.96
856.92	214.97
857.23	214.97
857.55	214.95
857.86	214.96
858.17	215.01
858.48	215.01
858.79	214.98
859.11	214.98
859.42	215.01
859.73	214.95
860.04	214.93
860.35	214.87
860.66	214.80
860.98	214.80
861.29	214.84
861.60	214.81
861.91	214.88
862.22	214.84
862.53	214.80
862.84	214.57
863.16	214.61
863.47	214.57
863.78	214.53
864.09	214.55
864.40	214.55
864.71	214.54
865.02	214.56
865.33	214.53
865.64	214.49
865.95	214.46
866.27	214.63
866.58	214.60
866.89	214.63
867.20	214.61
867.51	214.56
867.82	214.56
868.13	214.63
868.44	214.55
868.75	214.60
869.06	214.60
869.37	214.61
869.68	214.54
869.99	214.59
870.30	214.62
870.61	214.61
870.92	214.58
871.23	214.59
871.54	214.60
871.85	214.66
872.16	214.72
872.47	214.72
872.78	214.56
873.09	214.59
873.40	214.57
873.71	214.60
874.02	214.65
874.33	214.61
874.64	214.58
874.95	214.62
875.26	214.59
875.56	214.60
875.87	214.60
876.18	214.62
876.49	214.81
876.80	214.77
877.11	214.74
877.42	214.74
877.73	214.72
878.04	214.66
878.35	214.66
878.66	214.64
878.96	214.63
879.27	214.65
879.58	214.62
879.89	214.60
880.20	214.67
880.51	214.65
880.82	214.66
881.12	214.62
881.43	214.57
881.74	214.54
882.05	214.52
882.36	214.54
882.67	214.57
882.97	214.33
883.28	214.34
883.59	214.35
883.90	214.37
884.21	214.39
884.51	214.38
884.82	214.33
885.13	214.34
885.44	214.33
885.74	214.29
886.05	214.28
886.36	214.26
886.67	214.19
886.98	214.29
887.28	214.32
887.59	214.32
887.90	214.33
888.20	214.36
888.51	214.38
888.82	214.34
889.13	214.32
889.43	214.49
889.74	214.49
890.05	214.49
890.35	214.47
890.66	214.43
890.97	214.43
891.28	214.39
891.58	214.36
891.89	214.35
892.20	214.35
892.50	214.33
892.81	214.34
893.12	214.33
893.42	214.23
893.73	214.22
894.04	214.26
894.34	214.27
894.65	214.24
894.95	214.21
895.26	214.22
895.57	214.29
895.87	214.09
896.18	214.10
896.48	214.10
896.79	214.09
897.10	214.10
897.40	214.11
897.71	214.17
898.01	214.17
898.32	214.19
898.63	214.19
898.93	214.23
899.24	214.26
899.54	214.23
899.85	214.22
900.15	214.23
900.46	214.21
900.76	214.22
901.07	214.21
901.38	214.22
901.68	214.23
901.99	214.17
902.29	214.19
902.60	214.17
902.90	214.14
903.21	214.17
903.51	214.19
903.82	214.23
904.12	214.21
904.43	214.21
904.73	214.21
905.03	214.20
905.34	214.39
905.64	214.34
905.95	214.36
906.25	214.34
906.56	214.32
906.86	214.31
907.17	214.30
907.47	214.35
907.77	214.33
908.08	214.30
908.38	214.29
908.69	214.30
908.99	214.32
909.30	214.35
909.60	214.35
909.90	214.38
910.21	214.31
910.51	214.31
910.81	214.33
911.12	214.34
911.42	214.36
911.73	214.13
912.03	214.19
912.33	214.25
912.64	214.27
912.94	214.27
913.24	214.22
913.55	214.19
913.85	214.18
914.15	214.18
914.46	214.21
914.76	214.20
915.06	214.19
915.37	214.19
915.67	214.17
915.97	214.15
916.27	214.06
916.58	214.08
916.88	214.07
917.18	214.08
917.49	214.21
917.79	214.22
918.09	214.23
918.39	214.28
918.70	214.26
919.00	214.25
919.30	214.36
919.60	214.36
919.91	214.34
920.21	214.34
920.51	214.34
920.81	214.30
921.12	214.31
921.42	214.33
921.72	214.38
922.02	214.38
922.32	214.42
922.63	214.44
922.93	214.51
923.23	214.52
923.53	214.46
923.83	214.34
924.13	214.36
924.44	214.38
924.74	214.43
925.04	214.46
925.34	214.44
925.64	214.33
925.94	214.34
926.24	214.48
926.55	214.45
926.85	214.47
927.15	214.51
927.45	214.53
927.75	214.52
928.05	214.48
928.35	214.45
928.65	214.48
928.95	214.51
929.26	214.45
929.56	214.49
929.86	214.54
930.16	214.48
930.46	214.46
930.76	214.47
931.06	214.34
931.36	214.29
931.66	214.34
931.96	214.34
932.26	214.37
932.56	214.29
932.86	214.30
933.16	214.29
933.46	214.28
933.76	214.25
934.06	214.29
934.36	214.37
934.66	214.37
934.96	214.33
935.26	214.31
935.56	214.34
935.86	214.29
936.16	214.24
936.46	214.27
936.76	214.25
937.06	214.24
937.36	214.24
937.66	214.24
937.96	214.22
938.26	214.18
938.56	214.15
938.86	214.17
939.16	214.22
939.46	214.26
939.76	214.25
940.06	214.24
940.35	214.18
940.65	214.09
940.95	214.10
941.25	214.05
941.55	214.03
941.85	214.01
942.15	214.08
942.45	214.15
942.75	214.15
943.04	214.17
943.34	214.20
943.64	214.18
943.94	214.16
944.24	214.20
944.54	214.21
944.84	214.21
945.13	214.13
945.43	214.10
945.73	214.10
946.03	214.07
946.33	214.03
946.62	213.99
946.92	213.97
947.22	213.99
947.52	213.99
947.82	214.04
948.11	214.01
948.41	213.96
948.71	213.88
949.01	213.88
949.31	213.85
949.60	213.81
949.90	213.86
950.20	213.86
950.50	213.81
950.79	213.81
951.09	213.87
951.39	213.87
951.69	213.84
951.98	213.89
952.28	213.91
952.58	213.92
952.87	213.98
953.17	214.02
953.47	214.01
953.76	214.05
954.06	214.01
954.36	214.00
954.66	214.01
954.95	214.09
955.25	214.11
955.55	214.14
955.84	214.15
956.14	214.17
956.44	214.17
956.73	214.16
957.03	214.18
957.32	214.15
957.62	214.18
957.92	214.20
958.21	214.12
958.51	214.36
958.81	214.39
959.10	214.39
959.40	214.42
959.69	214.42
959.99	214.43
960.29	214.43
960.58	214.43
960.88	214.47
961.17	214.44
961.47	214.47
961.76	214.41
962.06	214.43
962.36	214.38
962.65	214.38
962.95	214.36
963.24	214.35
963.54	214.35
963.83	214.31
964.13	214.34
964.42	214.29
964.72	214.13
965.01	214.13
965.31	214.12
965.60	214.08
965.90	214.22
966.19	214.18
966.49	214.19
966.78	214.18
967.08	214.18
967.37	214.19
967.67	214.11
967.96	214.16
968.26	214.15
968.55	214.21
968.85	214.21
969.14	214.27
969.43	214.24
969.73	214.21
970.02	214.22
970.32	214.21
970.61	214.21
970.91	214.14
971.20	214.11
971.49	214.12
971.79	214.16
972.08	214.03
972.38	214.03
972.67	214.02
972.96	214.06
973.26	213.99
973.55	214.03
973.85	214.05
974.14	214.08
974.43	214.09
974.73	214.03
975.02	214.02
975.31	214.00
975.61	214.00
975.90	214.03
976.19	214.02
976.49	214.02
976.78	214.04
977.07	214.05
977.37	214.06
977.66	214.06
977.95	214.01
978.24	213.98
978.54	214.05
978.83	214.03
979.12	214.00
979.42	214.04
979.71	214.01
980.00	214.01
980.29	213.98
980.59	213.96
980.88	214.00
981.17	213.99
981.46	213.97
981.76	213.96
982.05	214.01
982.34	214.04
982.63	214.04
982.93	214.06
983.22	214.12
983.51	214.13
983.80	214.17
984.09	214.19
984.39	214.17
984.68	214.13
984.97	214.16
985.26	214.14
985.55	214.16
985.85	214.10
986.14	214.12
986.43	214.13
986.72	214.11
987.01	214.08
987.30	214.07
987.59	214.06
987.89	214.11
988.18	214.01
988.47	213.99
988.76	213.93
989.05	213.92
989.34	213.88
989.63	213.93
989.92	213.90
990.22	213.87
990.51	213.90
990.80	213.85
991.09	213.84
991.38	213.85
991.67	213.81
991.96	213.81
992.25	213.85
992.54	213.79
992.83	213.81
993.12	213.76
993.41	213.76
993.70	213.89
993.99	213.90
994.28	213.97
994.58	213.97
994.87	213.99
995.16	213.96
995.45	213.93
995.74	213.86
996.03	213.87
996.32	213.89
996.61	213.94
996.90	213.99
997.19	213.99
997.48	214.01
997.77	213.98
998.06	214.00
998.34	213.95
998.63	213.97
998.92	213.99
999.21	214.06
999.50	214.11
999.79	214.00
1000.08	214.02
1000.37	214.02
1000.66	214.03
1000.95	214.07
1001.24	214.12
1001.53	214.15
1001.82	214.14
1002.11	214.11
1002.40	214.11
1002.68	214.14
1002.97	214.26
1003.26	214.21
1003.55	214.16
1003.84	214.18
1004.13	214.26
1004.42	214.24
1004.71	214.26
1004.99	214.25
1005.28	214.29
1005.57	214.25
1005.86	214.27
1006.15	214.22
1006.44	214.19
1006.72	214.19
1007.01	214.14
1007.30	214.14
1007.59	214.11
1007.88	214.11
1008.17	214.10
1008.45	214.06
1008.74	213.98
1009.03	213.90
1009.32	213.94
1009.60	213.97
1009.89	213.95
1010.18	213.86
1010.47	213.89
1010.76	213.85
1011.04	213.82
1011.33	213.79
1011.62	213.83
1011.91	213.81
1012.19	213.81
1012.48	213.81
1012.77	213.80
1013.05	213.92
1013.34	213.91
1013.63	213.89
1013.92	213.94
1014.20	213.94
1014.49	213.95
1014.78	213.98
1015.06	213.89
1015.35	213.89
1015.64	213.91
1015.92	213.97
1016.21	213.98
1016.50	213.96
1016.78	214.04
1017.07	214.08
1017.36	214.03
1017.64	213.98
1017.93	214.00
1018.22	213.99
1018.50	213.99
1018.79	213.98
1019.08	213.85
1019.36	213.87
1019.65	213.89
1019.93	213.91
1020.22	213.94
1020.51	214.05
1020.79	214.04
1021.08	213.59
1021.36	213.39
1021.65	213.57
1021.94	213.73
1022.22	214.10
1022.51	213.85
1022.79	214.89
1023.08	214.00
1023.36	216.59
1023.65	213.62
>>>>>End Processed Spectral Data<<<<<
