SpectraSuite Data File
++++++++++++++++++++++++++++++++++++
Date: Tue Jan 29 15:56:31 EST 2013
User: group
Dark Spectrum Present: No
Reference Spectrum Present: No
Number of Sampled Component Spectra: 1
Spectrometers: USB2E7196
Integration Time (usec): 65000 (USB2E7196)
Spectra Averaged: 100 (USB2E7196)
Boxcar Smoothing: 10 (USB2E7196)
Correct for Electrical Dark: No (USB2E7196)
Strobe/Lamp Enabled: No (USB2E7196)
Correct for Detector Non-linearity: No (USB2E7196)
Correct for Stray Light: No (USB2E7196)
Number of Pixels in Processed Spectrum: 2048
>>>>>Begin Processed Spectral Data<<<<<
339.09	0.00
339.48	202.69
339.86	204.35
340.24	205.99
340.63	207.41
341.01	211.52
341.39	209.70
341.78	211.60
342.16	212.43
342.54	213.26
342.93	202.13
343.31	212.34
343.69	212.88
344.07	213.34
344.46	213.77
344.84	214.15
345.22	214.31
345.60	214.57
345.99	214.73
346.37	214.88
346.75	214.97
347.13	215.04
347.52	215.10
347.90	215.23
348.28	215.23
348.66	215.31
349.05	215.28
349.43	215.33
349.81	215.36
350.19	215.37
350.57	215.43
350.96	215.50
351.34	215.61
351.72	215.72
352.10	215.83
352.48	215.90
352.87	215.95
353.25	215.99
353.63	216.07
354.01	216.13
354.39	216.21
354.77	216.29
355.15	216.43
355.54	216.49
355.92	216.45
356.30	216.52
356.68	216.71
357.06	216.75
357.44	216.80
357.82	216.88
358.20	217.00
358.58	217.06
358.97	217.14
359.35	217.23
359.73	217.33
360.11	217.36
360.49	217.41
360.87	217.47
361.25	217.56
361.63	217.65
362.01	217.73
362.39	217.75
362.77	217.81
363.15	217.83
363.53	217.89
363.91	217.95
364.29	218.00
364.67	217.83
365.05	217.90
365.43	217.93
365.81	217.99
366.19	218.08
366.57	218.17
366.95	218.18
367.33	218.16
367.71	218.13
368.09	218.20
368.47	218.22
368.85	218.24
369.23	218.29
369.61	218.26
369.99	218.34
370.37	218.33
370.75	218.43
371.13	218.39
371.51	218.36
371.89	218.37
372.27	218.35
372.65	218.38
373.03	218.34
373.41	218.30
373.78	218.28
374.16	218.14
374.54	218.00
374.92	217.93
375.30	217.88
375.68	217.81
376.06	217.79
376.44	217.73
376.82	217.70
377.19	217.63
377.57	217.56
377.95	217.42
378.33	217.37
378.71	217.19
379.09	217.18
379.47	217.15
379.84	217.07
380.22	217.04
380.60	216.95
380.98	216.91
381.36	216.90
381.73	216.81
382.11	216.83
382.49	216.83
382.87	216.81
383.25	216.77
383.62	216.99
384.00	216.91
384.38	216.86
384.76	216.89
385.13	216.94
385.51	216.92
385.89	216.87
386.27	216.87
386.64	216.86
387.02	216.77
387.40	216.72
387.78	216.71
388.15	216.67
388.53	216.65
388.91	216.63
389.29	216.55
389.66	216.56
390.04	216.47
390.42	216.48
390.79	216.45
391.17	216.44
391.55	216.21
391.92	216.19
392.30	216.21
392.68	216.12
393.05	216.09
393.43	216.08
393.81	216.08
394.18	216.03
394.56	216.03
394.94	216.12
395.31	216.12
395.69	216.18
396.06	216.21
396.44	216.21
396.82	216.22
397.19	216.34
397.57	216.36
397.95	216.44
398.32	216.42
398.70	216.45
399.07	216.54
399.45	216.57
399.82	216.61
400.20	216.64
400.58	216.72
400.95	216.69
401.33	216.82
401.70	217.04
402.08	217.11
402.45	217.20
402.83	217.32
403.20	217.42
403.58	217.48
403.95	217.63
404.33	217.80
404.71	217.96
405.08	218.20
405.46	218.38
405.83	218.58
406.21	218.77
406.58	218.99
406.96	219.18
407.33	219.44
407.70	219.73
408.08	220.17
408.45	220.50
408.83	220.88
409.20	221.17
409.58	221.43
409.95	221.89
410.33	222.36
410.70	222.79
411.08	223.32
411.45	223.89
411.82	224.46
412.20	225.11
412.57	225.89
412.95	226.44
413.32	227.20
413.69	228.01
414.07	228.86
414.44	229.85
414.82	230.82
415.19	231.94
415.56	233.07
415.94	234.17
416.31	235.50
416.68	236.87
417.06	238.45
417.43	239.92
417.81	241.59
418.18	243.28
418.55	245.08
418.93	247.01
419.30	249.03
419.67	251.12
420.04	253.32
420.42	255.59
420.79	258.32
421.16	260.96
421.54	263.73
421.91	266.60
422.28	269.54
422.66	272.67
423.03	275.82
423.40	279.06
423.77	282.52
424.15	286.06
424.52	289.69
424.89	293.66
425.26	297.59
425.64	301.32
426.01	305.46
426.38	309.74
426.75	314.09
427.13	318.63
427.50	323.38
427.87	328.38
428.24	333.30
428.61	338.10
428.99	343.47
429.36	349.21
429.73	354.86
430.10	360.53
430.47	366.34
430.85	372.38
431.22	378.80
431.59	385.63
431.96	392.15
432.33	399.40
432.70	406.40
433.08	414.64
433.45	422.36
433.82	430.13
434.19	438.69
434.56	447.08
434.93	455.09
435.30	463.08
435.68	471.81
436.05	480.52
436.42	489.04
436.79	496.83
437.16	505.28
437.53	514.19
437.90	522.97
438.27	531.57
438.64	540.46
439.01	548.72
439.38	555.97
439.75	563.05
440.13	571.14
440.50	578.74
440.87	584.83
441.24	591.28
441.61	598.28
441.98	603.43
442.35	609.48
442.72	615.49
443.09	621.25
443.46	624.83
443.83	627.23
444.20	629.32
444.57	632.32
444.94	633.65
445.31	634.97
445.68	636.22
446.05	636.84
446.42	635.98
446.79	635.00
447.16	633.96
447.53	633.18
447.90	629.94
448.27	626.80
448.64	622.32
449.01	619.06
449.37	613.33
449.74	607.82
450.11	601.14
450.48	594.07
450.85	586.95
451.22	580.74
451.59	574.83
451.96	569.19
452.33	561.62
452.70	554.82
453.07	546.74
453.43	538.53
453.80	530.59
454.17	523.00
454.54	515.74
454.91	507.92
455.28	500.30
455.65	493.20
456.02	486.08
456.38	480.11
456.75	472.58
457.12	466.35
457.49	460.24
457.86	454.37
458.23	449.23
458.59	443.53
458.96	437.84
459.33	432.76
459.70	427.72
460.07	423.66
460.43	419.01
460.80	414.62
461.17	410.84
461.54	406.75
461.91	402.89
462.27	398.98
462.64	395.67
463.01	392.04
463.38	388.50
463.74	384.88
464.11	381.69
464.48	378.98
464.85	375.96
465.21	373.59
465.58	371.05
465.95	368.06
466.32	365.59
466.68	363.11
467.05	360.72
467.42	358.26
467.78	355.73
468.15	353.31
468.52	351.53
468.88	349.16
469.25	347.09
469.62	345.41
469.98	343.55
470.35	341.89
470.72	340.31
471.08	338.63
471.45	337.22
471.82	335.80
472.18	334.21
472.55	333.09
472.92	331.80
473.28	330.67
473.65	329.56
474.02	328.50
474.38	327.65
474.75	326.90
475.11	326.13
475.48	325.62
475.85	325.17
476.21	324.69
476.58	324.37
476.94	324.20
477.31	323.91
477.67	323.69
478.04	323.58
478.41	323.57
478.77	323.74
479.14	323.75
479.50	323.93
479.87	324.26
480.23	324.64
480.60	324.94
480.96	325.27
481.33	325.93
481.69	326.54
482.06	327.05
482.42	327.52
482.79	328.14
483.15	328.91
483.52	329.92
483.88	330.83
484.25	331.77
484.61	332.82
484.98	333.92
485.34	335.22
485.71	336.56
486.07	337.97
486.44	339.29
486.80	340.86
487.17	342.52
487.53	344.35
487.90	346.21
488.26	348.24
488.62	350.41
488.99	352.45
489.35	354.59
489.72	356.99
490.08	359.51
490.44	362.01
490.81	364.75
491.17	367.40
491.54	370.36
491.90	373.37
492.26	376.58
492.63	379.94
492.99	383.46
493.36	387.16
493.72	391.03
494.08	395.03
494.45	399.23
494.81	403.58
495.17	408.03
495.54	412.65
495.90	417.43
496.26	422.34
496.63	427.56
496.99	432.98
497.35	438.57
497.72	444.38
498.08	450.38
498.44	456.42
498.80	462.85
499.17	469.33
499.53	476.04
499.89	482.98
500.26	489.89
500.62	496.94
500.98	504.26
501.34	511.71
501.71	519.49
502.07	527.28
502.43	535.25
502.79	543.30
503.16	551.70
503.52	560.21
503.88	568.92
504.24	577.82
504.60	586.81
504.97	595.99
505.33	605.21
505.69	614.97
506.05	624.83
506.41	634.66
506.78	644.62
507.14	654.92
507.50	665.26
507.86	675.98
508.22	686.62
508.59	697.23
508.95	708.24
509.31	719.43
509.67	730.83
510.03	742.21
510.39	753.95
510.75	765.67
511.12	777.55
511.48	789.53
511.84	801.64
512.20	813.86
512.56	826.39
512.92	839.09
513.28	851.61
513.64	864.18
514.00	876.87
514.37	889.75
514.73	902.60
515.09	915.39
515.45	928.16
515.81	941.17
516.17	954.48
516.53	967.44
516.89	980.35
517.25	993.34
517.61	1006.73
517.97	1019.88
518.33	1032.84
518.69	1046.21
519.05	1059.73
519.41	1073.22
519.77	1086.91
520.13	1099.98
520.49	1112.95
520.85	1126.27
521.21	1139.47
521.57	1152.92
521.93	1165.82
522.29	1179.41
522.65	1192.90
523.01	1206.25
523.37	1219.17
523.73	1232.08
524.09	1245.15
524.45	1258.31
524.81	1271.58
525.17	1284.49
525.53	1297.38
525.89	1310.49
526.25	1323.32
526.61	1335.78
526.97	1348.69
527.33	1361.31
527.68	1374.47
528.04	1387.63
528.40	1400.26
528.76	1413.30
529.12	1425.85
529.48	1438.80
529.84	1450.72
530.20	1463.21
530.56	1475.46
530.91	1488.37
531.27	1501.03
531.63	1513.54
531.99	1525.97
532.35	1537.80
532.71	1549.91
533.07	1562.53
533.42	1574.38
533.78	1586.03
534.14	1597.89
534.50	1608.70
534.86	1619.98
535.21	1630.43
535.57	1641.55
535.93	1652.60
536.29	1663.35
536.65	1674.55
537.00	1685.23
537.36	1696.18
537.72	1706.73
538.08	1717.63
538.44	1728.16
538.79	1738.76
539.15	1749.09
539.51	1759.41
539.87	1770.41
540.22	1780.87
540.58	1791.30
540.94	1801.88
541.29	1811.89
541.65	1821.30
542.01	1831.39
542.37	1841.09
542.72	1851.12
543.08	1860.55
543.44	1870.53
543.79	1879.50
544.15	1888.51
544.51	1898.21
544.87	1907.79
545.22	1916.52
545.58	1925.18
545.94	1933.73
546.29	1941.92
546.65	1949.92
547.01	1957.87
547.36	1965.18
547.72	1972.57
548.07	1979.94
548.43	1987.32
548.79	1994.89
549.14	2002.81
549.50	2011.02
549.86	2018.43
550.21	2025.46
550.57	2032.80
550.92	2039.37
551.28	2046.48
551.64	2053.50
551.99	2060.72
552.35	2067.47
552.70	2074.24
553.06	2080.68
553.41	2086.84
553.77	2093.18
554.13	2099.45
554.48	2106.21
554.84	2113.14
555.19	2119.47
555.55	2125.81
555.90	2131.88
556.26	2138.42
556.61	2143.95
556.97	2148.56
557.32	2154.35
557.68	2160.69
558.03	2166.31
558.39	2171.40
558.74	2177.24
559.10	2182.74
559.45	2188.20
559.81	2193.60
560.16	2199.08
560.52	2204.97
560.87	2211.31
561.23	2217.20
561.58	2223.79
561.94	2228.92
562.29	2233.68
562.64	2239.91
563.00	2245.34
563.35	2250.98
563.71	2256.97
564.06	2262.87
564.42	2268.90
564.77	2274.11
565.12	2279.30
565.48	2284.50
565.83	2290.21
566.19	2295.86
566.54	2301.32
566.89	2305.95
567.25	2310.75
567.60	2316.54
567.96	2321.63
568.31	2326.21
568.66	2330.63
569.02	2334.57
569.37	2338.45
569.72	2342.93
570.08	2346.47
570.43	2349.71
570.78	2352.86
571.14	2355.38
571.49	2358.60
571.84	2362.30
572.20	2365.21
572.55	2368.35
572.90	2370.91
573.26	2374.03
573.61	2376.52
573.96	2378.91
574.31	2381.01
574.67	2383.11
575.02	2384.14
575.37	2385.83
575.72	2386.84
576.08	2388.28
576.43	2388.55
576.78	2389.59
577.13	2391.55
577.49	2392.74
577.84	2394.26
578.19	2395.94
578.54	2396.90
578.90	2398.11
579.25	2398.27
579.60	2398.64
579.95	2398.28
580.30	2398.89
580.66	2398.30
581.01	2396.91
581.36	2394.95
581.71	2393.86
582.06	2393.05
582.42	2392.49
582.77	2390.66
583.12	2389.40
583.47	2388.51
583.82	2388.33
584.17	2387.21
584.53	2385.26
584.88	2383.64
585.23	2382.03
585.58	2379.93
585.93	2378.04
586.28	2376.11
586.63	2373.99
586.98	2371.91
587.34	2370.30
587.69	2368.03
588.04	2366.32
588.39	2365.21
588.74	2362.94
589.09	2360.64
589.44	2357.90
589.79	2355.77
590.14	2354.00
590.49	2351.26
590.84	2347.80
591.19	2345.19
591.54	2341.94
591.89	2338.09
592.25	2335.19
592.60	2331.04
592.95	2327.22
593.30	2323.30
593.65	2318.88
594.00	2314.65
594.35	2311.81
594.70	2307.14
595.05	2302.57
595.40	2297.14
595.75	2291.82
596.10	2288.33
596.45	2283.55
596.80	2279.09
597.15	2273.80
597.50	2268.15
597.85	2263.31
598.19	2258.08
598.54	2252.29
598.89	2247.47
599.24	2243.09
599.59	2237.02
599.94	2231.66
600.29	2225.88
600.64	2220.01
600.99	2213.54
601.34	2208.29
601.69	2201.48
602.04	2195.30
602.39	2188.82
602.74	2183.05
603.08	2177.51
603.43	2171.03
603.78	2164.37
604.13	2157.29
604.48	2150.32
604.83	2144.31
605.18	2138.23
605.53	2131.35
605.87	2124.43
606.22	2117.64
606.57	2109.84
606.92	2102.07
607.27	2095.27
607.62	2088.73
607.96	2081.89
608.31	2075.36
608.66	2067.45
609.01	2060.02
609.36	2052.98
609.70	2045.46
610.05	2037.71
610.40	2029.49
610.75	2021.32
611.10	2013.68
611.44	2005.08
611.79	1996.35
612.14	1986.32
612.49	1975.90
612.83	1966.80
613.18	1957.75
613.53	1948.52
613.88	1939.06
614.22	1930.37
614.57	1920.34
614.92	1909.85
615.27	1899.78
615.61	1889.94
615.96	1880.34
616.31	1870.78
616.65	1861.49
617.00	1851.65
617.35	1842.01
617.70	1832.15
618.04	1822.08
618.39	1811.79
618.74	1802.01
619.08	1792.41
619.43	1783.74
619.78	1775.44
620.12	1766.77
620.47	1756.88
620.82	1746.67
621.16	1736.91
621.51	1727.01
621.85	1717.03
622.20	1706.53
622.55	1695.93
622.89	1686.02
623.24	1676.48
623.59	1666.65
623.93	1656.45
624.28	1646.76
624.62	1636.56
624.97	1626.32
625.32	1616.61
625.66	1607.90
626.01	1599.05
626.35	1589.65
626.70	1579.47
627.04	1569.27
627.39	1559.07
627.73	1549.80
628.08	1540.66
628.43	1530.99
628.77	1521.78
629.12	1512.88
629.46	1505.06
629.81	1496.59
630.15	1486.96
630.50	1477.09
630.84	1466.61
631.19	1456.70
631.53	1447.23
631.88	1437.17
632.22	1427.26
632.57	1417.92
632.91	1407.66
633.26	1397.66
633.60	1387.97
633.95	1378.71
634.29	1369.32
634.64	1359.99
634.98	1350.23
635.32	1340.97
635.67	1332.45
636.01	1323.16
636.36	1313.43
636.70	1303.89
637.05	1294.53
637.39	1285.63
637.73	1276.96
638.08	1269.32
638.42	1261.07
638.77	1252.20
639.11	1243.93
639.45	1235.92
639.80	1227.19
640.14	1218.48
640.49	1209.79
640.83	1201.04
641.17	1192.97
641.52	1184.81
641.86	1176.10
642.20	1168.10
642.55	1159.47
642.89	1150.57
643.23	1141.85
643.58	1133.75
643.92	1124.64
644.26	1115.96
644.61	1107.41
644.95	1098.57
645.29	1089.23
645.64	1080.02
645.98	1071.65
646.32	1063.66
646.66	1055.17
647.01	1046.74
647.35	1038.50
647.69	1030.04
648.04	1021.69
648.38	1012.65
648.72	1003.78
649.06	995.38
649.41	987.09
649.75	979.07
650.09	971.16
650.43	963.11
650.78	954.80
651.12	947.22
651.46	939.83
651.80	932.54
652.14	925.26
652.49	917.79
652.83	910.49
653.17	902.82
653.51	895.26
653.85	888.05
654.20	880.80
654.54	873.33
654.88	866.16
655.22	859.05
655.56	852.16
655.90	845.38
656.25	838.87
656.59	832.02
656.93	825.05
657.27	817.94
657.61	811.10
657.95	805.12
658.29	799.17
658.64	793.05
658.98	786.70
659.32	780.14
659.66	773.94
660.00	767.62
660.34	761.70
660.68	755.59
661.02	749.40
661.36	743.55
661.70	737.82
662.05	732.21
662.39	726.72
662.73	721.34
663.07	716.02
663.41	710.42
663.75	704.79
664.09	699.29
664.43	693.97
664.77	688.63
665.11	682.76
665.45	676.92
665.79	671.17
666.13	665.51
666.47	660.04
666.81	654.72
667.15	649.41
667.49	644.24
667.83	639.01
668.17	633.73
668.51	628.70
668.85	623.81
669.19	619.00
669.53	614.09
669.87	609.11
670.21	604.41
670.55	599.75
670.89	595.38
671.23	591.16
671.57	586.82
671.91	582.61
672.25	578.59
672.58	574.51
672.92	570.57
673.26	566.65
673.60	562.91
673.94	559.09
674.28	555.48
674.62	551.80
674.96	548.13
675.30	544.74
675.64	541.14
675.97	537.59
676.31	534.08
676.65	530.47
676.99	527.05
677.33	523.31
677.67	519.68
678.01	515.91
678.34	512.21
678.68	508.77
679.02	505.21
679.36	501.54
679.70	498.01
680.04	494.51
680.37	491.19
680.71	487.95
681.05	484.88
681.39	481.74
681.73	478.64
682.06	475.68
682.40	472.60
682.74	469.49
683.08	466.44
683.42	463.29
683.75	460.46
684.09	457.54
684.43	454.75
684.77	451.92
685.10	449.22
685.44	446.40
685.78	443.48
686.12	440.75
686.45	438.11
686.79	435.42
687.13	432.91
687.46	430.31
687.80	427.65
688.14	424.86
688.48	422.31
688.81	419.64
689.15	417.13
689.49	414.61
689.82	412.14
690.16	409.61
690.50	407.21
690.83	404.67
691.17	402.12
691.51	399.71
691.84	397.57
692.18	395.32
692.52	393.14
692.85	391.10
693.19	389.05
693.52	386.92
693.86	384.84
694.20	382.77
694.53	380.70
694.87	378.60
695.21	376.50
695.54	374.39
695.88	372.31
696.21	370.14
696.55	368.05
696.88	366.01
697.22	364.11
697.56	362.26
697.89	360.50
698.23	358.83
698.56	357.14
698.90	355.35
699.23	353.49
699.57	351.67
699.90	349.88
700.24	348.13
700.58	346.42
700.91	344.77
701.25	343.20
701.58	341.67
701.92	340.12
702.25	338.59
702.59	337.02
702.92	335.52
703.26	334.02
703.59	332.64
703.93	331.45
704.26	330.03
704.60	328.54
704.93	327.10
705.26	325.66
705.60	324.21
705.93	322.75
706.27	321.48
706.60	320.25
706.94	319.03
707.27	317.65
707.61	316.36
707.94	315.07
708.27	313.60
708.61	312.21
708.94	310.86
709.28	309.63
709.61	308.44
709.94	307.27
710.28	306.11
710.61	304.93
710.95	303.52
711.28	302.50
711.61	301.41
711.95	300.30
712.28	299.12
712.61	297.98
712.95	296.96
713.28	295.99
713.61	294.91
713.95	293.80
714.28	292.84
714.61	291.81
714.95	290.83
715.28	289.84
715.61	288.86
715.95	287.95
716.28	287.02
716.61	286.12
716.95	285.20
717.28	284.33
717.61	283.44
717.94	282.52
718.28	281.49
718.61	280.65
718.94	279.79
719.27	279.02
719.61	278.21
719.94	277.38
720.27	276.39
720.60	275.59
720.94	274.84
721.27	274.09
721.60	273.49
721.93	272.80
722.27	272.19
722.60	271.54
722.93	270.86
723.26	270.19
723.59	269.50
723.93	268.90
724.26	268.26
724.59	267.63
724.92	267.13
725.25	266.66
725.59	266.11
725.92	265.64
726.25	265.07
726.58	264.55
726.91	263.94
727.24	263.49
727.57	262.93
727.91	262.35
728.24	261.80
728.57	261.17
728.90	260.65
729.23	260.07
729.56	259.67
729.89	259.12
730.22	258.57
730.55	258.03
730.89	257.46
731.22	256.93
731.55	256.43
731.88	255.91
732.21	255.32
732.54	254.79
732.87	254.28
733.20	253.80
733.53	253.32
733.86	252.93
734.19	252.42
734.52	252.04
734.85	251.76
735.18	251.34
735.51	250.99
735.84	250.57
736.17	250.22
736.50	249.70
736.83	249.58
737.16	249.27
737.49	248.94
737.82	248.54
738.15	248.20
738.48	247.84
738.81	247.45
739.14	247.08
739.47	246.70
739.80	246.33
740.13	245.96
740.46	245.56
740.79	245.18
741.12	244.82
741.45	244.44
741.78	244.04
742.11	243.77
742.44	243.39
742.77	243.10
743.10	242.75
743.43	242.42
743.75	241.87
744.08	241.76
744.41	241.38
744.74	241.11
745.07	240.77
745.40	240.51
745.73	240.26
746.06	239.98
746.39	239.69
746.71	239.35
747.04	239.08
747.37	238.79
747.70	238.52
748.03	238.25
748.36	237.99
748.68	237.63
749.01	237.30
749.34	237.03
749.67	236.74
750.00	236.47
750.33	236.36
750.65	236.11
750.98	235.62
751.31	235.42
751.64	235.17
751.97	235.07
752.29	234.81
752.62	234.50
752.95	234.25
753.28	234.00
753.60	233.76
753.93	233.56
754.26	233.36
754.59	233.08
754.91	232.88
755.24	232.63
755.57	232.43
755.90	232.22
756.22	231.96
756.55	231.74
756.88	231.50
757.20	231.15
757.53	230.94
757.86	230.75
758.19	230.57
758.51	230.33
758.84	230.00
759.17	229.78
759.49	229.64
759.82	229.58
760.15	229.42
760.47	229.27
760.80	229.03
761.13	228.86
761.45	228.66
761.78	228.49
762.11	228.35
762.43	228.18
762.76	228.00
763.08	227.88
763.41	227.72
763.74	227.57
764.06	227.43
764.39	227.21
764.71	227.05
765.04	226.89
765.37	226.76
765.69	226.63
766.02	226.49
766.34	226.35
766.67	226.15
767.00	226.08
767.32	226.04
767.65	226.02
767.97	225.88
768.30	225.83
768.62	225.67
768.95	225.51
769.27	225.38
769.60	225.27
769.92	225.12
770.25	224.98
770.57	224.85
770.90	224.71
771.22	224.63
771.55	224.50
771.87	224.40
772.20	224.31
772.52	224.37
772.85	224.51
773.17	224.38
773.50	224.23
773.82	224.08
774.15	223.88
774.47	223.71
774.80	223.65
775.12	223.57
775.45	223.49
775.77	223.44
776.09	223.38
776.42	223.33
776.74	223.34
777.07	223.24
777.39	223.17
777.72	223.07
778.04	222.98
778.36	222.89
778.69	222.81
779.01	222.73
779.33	222.46
779.66	222.17
779.98	222.10
780.31	222.01
780.63	222.03
780.95	222.00
781.28	221.91
781.60	221.78
781.92	221.67
782.25	221.60
782.57	221.51
782.89	221.44
783.22	221.34
783.54	221.20
783.86	221.18
784.19	221.11
784.51	221.14
784.83	221.07
785.16	221.03
785.48	220.97
785.80	220.93
786.12	220.91
786.45	220.83
786.77	220.78
787.09	220.74
787.42	220.62
787.74	220.52
788.06	220.47
788.38	220.43
788.71	220.37
789.03	220.30
789.35	220.29
789.67	220.19
789.99	220.16
790.32	220.09
790.64	220.04
790.96	220.17
791.28	220.04
791.61	220.00
791.93	219.96
792.25	219.91
792.57	219.98
792.89	219.88
793.21	219.85
793.54	219.78
793.86	219.73
794.18	219.69
794.50	219.63
794.82	219.58
795.14	219.58
795.47	219.56
795.79	219.55
796.11	219.43
796.43	219.37
796.75	219.34
797.07	219.31
797.39	219.28
797.71	219.11
798.04	219.11
798.36	219.09
798.68	219.03
799.00	219.01
799.32	218.87
799.64	218.87
799.96	218.83
800.28	218.85
800.60	218.79
800.92	218.77
801.24	218.72
801.56	218.70
801.89	218.63
802.21	218.64
802.53	218.54
802.85	218.58
803.17	218.67
803.49	218.59
803.81	218.54
804.13	218.49
804.45	218.42
804.77	218.38
805.09	218.32
805.41	218.28
805.73	218.21
806.05	218.12
806.37	218.05
806.69	218.02
807.01	217.94
807.33	217.95
807.65	217.87
807.97	217.93
808.28	217.89
808.60	217.88
808.92	217.78
809.24	217.93
809.56	217.87
809.88	217.78
810.20	217.79
810.52	217.80
810.84	217.75
811.16	217.70
811.48	217.63
811.80	217.69
812.12	217.66
812.43	217.69
812.75	217.71
813.07	217.73
813.39	217.70
813.71	217.69
814.03	217.67
814.35	217.66
814.67	217.54
814.98	217.52
815.30	217.49
815.62	217.44
815.94	217.26
816.26	217.27
816.58	217.20
816.89	217.18
817.21	217.09
817.53	217.09
817.85	217.08
818.17	217.09
818.48	217.02
818.80	217.07
819.12	217.05
819.44	216.98
819.76	216.94
820.07	216.91
820.39	216.89
820.71	216.88
821.03	216.87
821.34	216.87
821.66	216.87
821.98	216.89
822.30	216.90
822.61	217.01
822.93	216.97
823.25	216.98
823.57	216.93
823.88	216.99
824.20	216.99
824.52	217.01
824.83	216.97
825.15	216.95
825.47	216.89
825.79	216.86
826.10	216.82
826.42	216.78
826.74	216.80
827.05	216.78
827.37	216.76
827.69	216.74
828.00	216.71
828.32	216.70
828.64	216.65
828.95	216.73
829.27	216.69
829.58	216.69
829.90	216.69
830.22	216.72
830.53	216.65
830.85	216.60
831.17	216.55
831.48	216.56
831.80	216.54
832.11	216.53
832.43	216.49
832.75	216.51
833.06	216.65
833.38	216.61
833.69	216.59
834.01	216.58
834.32	216.57
834.64	216.57
834.96	216.55
835.27	216.54
835.59	216.48
835.90	216.44
836.22	216.39
836.53	216.34
836.85	216.30
837.16	216.50
837.48	216.53
837.79	216.57
838.11	216.56
838.42	216.56
838.74	216.57
839.05	216.57
839.37	216.55
839.68	216.43
840.00	216.38
840.31	216.39
840.63	216.37
840.94	216.36
841.26	216.31
841.57	216.30
841.88	216.34
842.20	216.30
842.51	216.26
842.83	216.28
843.14	216.46
843.46	216.45
843.77	216.32
844.08	216.31
844.40	216.26
844.71	216.20
845.03	216.17
845.34	216.13
845.65	216.08
845.97	216.09
846.28	216.09
846.60	216.09
846.91	216.05
847.22	216.04
847.54	216.06
847.85	216.10
848.16	216.07
848.48	216.00
848.79	216.10
849.10	216.15
849.42	216.17
849.73	215.99
850.04	215.96
850.36	215.88
850.67	215.91
850.98	215.89
851.30	215.93
851.61	215.95
851.92	215.96
852.23	216.01
852.55	216.01
852.86	216.01
853.17	216.03
853.49	216.07
853.80	216.12
854.11	216.13
854.42	216.14
854.74	216.12
855.05	216.10
855.36	215.99
855.67	215.96
855.99	215.92
856.30	216.17
856.61	216.17
856.92	216.17
857.23	216.15
857.55	216.14
857.86	216.14
858.17	216.16
858.48	216.12
858.79	216.11
859.11	216.15
859.42	216.15
859.73	216.12
860.04	216.10
860.35	216.04
860.66	215.96
860.98	215.93
861.29	215.95
861.60	215.94
861.91	215.94
862.22	215.91
862.53	215.88
862.84	215.64
863.16	215.68
863.47	215.65
863.78	215.62
864.09	215.65
864.40	215.63
864.71	215.62
865.02	215.66
865.33	215.61
865.64	215.55
865.95	215.51
866.27	215.68
866.58	215.67
866.89	215.67
867.20	215.67
867.51	215.64
867.82	215.63
868.13	215.72
868.44	215.69
868.75	215.72
869.06	215.69
869.37	215.70
869.68	215.65
869.99	215.70
870.30	215.74
870.61	215.74
870.92	215.68
871.23	215.62
871.54	215.63
871.85	215.67
872.16	215.73
872.47	215.73
872.78	215.57
873.09	215.60
873.40	215.61
873.71	215.66
874.02	215.68
874.33	215.69
874.64	215.62
874.95	215.65
875.26	215.63
875.56	215.66
875.87	215.66
876.18	215.67
876.49	215.86
876.80	215.80
877.11	215.76
877.42	215.82
877.73	215.86
878.04	215.84
878.35	215.84
878.66	215.82
878.96	215.81
879.27	215.78
879.58	215.75
879.89	215.71
880.20	215.74
880.51	215.72
880.82	215.69
881.12	215.70
881.43	215.63
881.74	215.59
882.05	215.58
882.36	215.58
882.67	215.58
882.97	215.36
883.28	215.37
883.59	215.36
883.90	215.37
884.21	215.39
884.51	215.38
884.82	215.34
885.13	215.32
885.44	215.32
885.74	215.33
886.05	215.29
886.36	215.30
886.67	215.24
886.98	215.36
887.28	215.38
887.59	215.38
887.90	215.39
888.20	215.43
888.51	215.49
888.82	215.43
889.13	215.44
889.43	215.63
889.74	215.60
890.05	215.60
890.35	215.61
890.66	215.55
890.97	215.56
891.28	215.54
891.58	215.58
891.89	215.56
892.20	215.52
892.50	215.52
892.81	215.51
893.12	215.47
893.42	215.39
893.73	215.42
894.04	215.44
894.34	215.46
894.65	215.43
894.95	215.38
895.26	215.41
895.57	215.49
895.87	215.26
896.18	215.28
896.48	215.30
896.79	215.30
897.10	215.36
897.40	215.33
897.71	215.37
898.01	215.30
898.32	215.37
898.63	215.39
898.93	215.41
899.24	215.42
899.54	215.44
899.85	215.41
900.15	215.40
900.46	215.40
900.76	215.44
901.07	215.44
901.38	215.43
901.68	215.45
901.99	215.34
902.29	215.36
902.60	215.36
902.90	215.32
903.21	215.27
903.51	215.26
903.82	215.32
904.12	215.31
904.43	215.36
904.73	215.32
905.03	215.32
905.34	215.49
905.64	215.48
905.95	215.46
906.25	215.47
906.56	215.45
906.86	215.44
907.17	215.41
907.47	215.41
907.77	215.41
908.08	215.36
908.38	215.42
908.69	215.44
908.99	215.47
909.30	215.51
909.60	215.49
909.90	215.48
910.21	215.43
910.51	215.44
910.81	215.42
911.12	215.46
911.42	215.45
911.73	215.26
912.03	215.29
912.33	215.35
912.64	215.34
912.94	215.30
913.24	215.25
913.55	215.24
913.85	215.23
914.15	215.26
914.46	215.30
914.76	215.24
915.06	215.25
915.37	215.19
915.67	215.17
915.97	215.19
916.27	215.12
916.58	215.12
916.88	215.09
917.18	215.07
917.49	215.18
917.79	215.19
918.09	215.22
918.39	215.25
918.70	215.23
919.00	215.25
919.30	215.34
919.60	215.33
919.91	215.29
920.21	215.32
920.51	215.28
920.81	215.25
921.12	215.29
921.42	215.26
921.72	215.30
922.02	215.31
922.32	215.33
922.63	215.37
922.93	215.48
923.23	215.47
923.53	215.44
923.83	215.31
924.13	215.35
924.44	215.35
924.74	215.38
925.04	215.39
925.34	215.34
925.64	215.29
925.94	215.28
926.24	215.42
926.55	215.38
926.85	215.38
927.15	215.41
927.45	215.40
927.75	215.42
928.05	215.43
928.35	215.42
928.65	215.46
928.95	215.46
929.26	215.37
929.56	215.43
929.86	215.47
930.16	215.44
930.46	215.40
930.76	215.39
931.06	215.28
931.36	215.22
931.66	215.27
931.96	215.29
932.26	215.34
932.56	215.25
932.86	215.26
933.16	215.28
933.46	215.25
933.76	215.21
934.06	215.26
934.36	215.29
934.66	215.27
934.96	215.23
935.26	215.27
935.56	215.29
935.86	215.24
936.16	215.20
936.46	215.18
936.76	215.18
937.06	215.18
937.36	215.21
937.66	215.25
937.96	215.26
938.26	215.20
938.56	215.17
938.86	215.16
939.16	215.20
939.46	215.21
939.76	215.24
940.06	215.25
940.35	215.15
940.65	215.07
940.95	215.09
941.25	215.04
941.55	214.99
941.85	214.98
942.15	215.05
942.45	215.10
942.75	215.12
943.04	215.10
943.34	215.13
943.64	215.14
943.94	215.11
944.24	215.11
944.54	215.13
944.84	215.11
945.13	215.08
945.43	215.07
945.73	215.06
946.03	215.05
946.33	215.02
946.62	215.02
946.92	215.03
947.22	215.02
947.52	215.07
947.82	215.08
948.11	215.05
948.41	215.00
948.71	214.94
949.01	214.93
949.31	214.94
949.60	214.92
949.90	214.93
950.20	214.92
950.50	214.89
950.79	214.87
951.09	214.90
951.39	214.90
951.69	214.89
951.98	214.92
952.28	214.89
952.58	214.90
952.87	214.93
953.17	214.93
953.47	214.96
953.76	214.97
954.06	214.93
954.36	214.91
954.66	214.91
954.95	215.01
955.25	215.01
955.55	215.01
955.84	215.00
956.14	215.03
956.44	215.04
956.73	215.03
957.03	215.07
957.32	215.08
957.62	215.09
957.92	215.11
958.21	215.09
958.51	215.36
958.81	215.40
959.10	215.39
959.40	215.46
959.69	215.42
959.99	215.44
960.29	215.46
960.58	215.47
960.88	215.52
961.17	215.48
961.47	215.51
961.76	215.50
962.06	215.51
962.36	215.47
962.65	215.45
962.95	215.45
963.24	215.40
963.54	215.40
963.83	215.39
964.13	215.39
964.42	215.30
964.72	215.16
965.01	215.13
965.31	215.14
965.60	215.07
965.90	215.22
966.19	215.17
966.49	215.17
966.78	215.17
967.08	215.16
967.37	215.13
967.67	215.10
967.96	215.14
968.26	215.13
968.55	215.15
968.85	215.15
969.14	215.17
969.43	215.18
969.73	215.17
970.02	215.18
970.32	215.14
970.61	215.17
970.91	215.07
971.20	215.06
971.49	215.02
971.79	215.06
972.08	214.90
972.38	214.93
972.67	214.91
972.96	214.96
973.26	214.91
973.55	214.99
973.85	214.98
974.14	214.96
974.43	214.98
974.73	214.94
975.02	214.98
975.31	214.96
975.61	214.98
975.90	214.96
976.19	214.93
976.49	214.97
976.78	215.01
977.07	215.03
977.37	215.03
977.66	215.07
977.95	215.02
978.24	215.02
978.54	215.05
978.83	215.04
979.12	215.04
979.42	215.03
979.71	214.96
980.00	214.94
980.29	214.94
980.59	214.95
980.88	215.03
981.17	214.99
981.46	215.01
981.76	215.02
982.05	215.10
982.34	215.14
982.63	215.14
982.93	215.15
983.22	215.24
983.51	215.28
983.80	215.28
984.09	215.36
984.39	215.35
984.68	215.33
984.97	215.33
985.26	215.29
985.55	215.34
985.85	215.33
986.14	215.37
986.43	215.38
986.72	215.33
987.01	215.25
987.30	215.28
987.59	215.27
987.89	215.24
988.18	215.18
988.47	215.14
988.76	215.09
989.05	215.07
989.34	214.97
989.63	214.97
989.92	214.98
990.22	214.92
990.51	214.95
990.80	214.94
991.09	214.98
991.38	215.02
991.67	214.98
991.96	215.01
992.25	215.03
992.54	215.01
992.83	215.02
993.12	215.01
993.41	215.04
993.70	215.10
993.99	215.14
994.28	215.18
994.58	215.21
994.87	215.20
995.16	215.19
995.45	215.20
995.74	215.15
996.03	215.14
996.32	215.19
996.61	215.21
996.90	215.21
997.19	215.17
997.48	215.13
997.77	215.12
998.06	215.09
998.34	215.08
998.63	215.07
998.92	215.10
999.21	215.12
999.50	215.11
999.79	215.05
1000.08	215.04
1000.37	215.03
1000.66	215.02
1000.95	215.06
1001.24	215.08
1001.53	215.10
1001.82	215.07
1002.11	215.01
1002.40	215.02
1002.68	215.04
1002.97	215.16
1003.26	215.16
1003.55	215.15
1003.84	215.16
1004.13	215.23
1004.42	215.22
1004.71	215.21
1004.99	215.17
1005.28	215.23
1005.57	215.22
1005.86	215.22
1006.15	215.21
1006.44	215.15
1006.72	215.19
1007.01	215.17
1007.30	215.16
1007.59	215.14
1007.88	215.14
1008.17	215.15
1008.45	215.09
1008.74	215.04
1009.03	214.96
1009.32	214.97
1009.60	214.97
1009.89	214.94
1010.18	214.85
1010.47	214.83
1010.76	214.82
1011.04	214.83
1011.33	214.90
1011.62	214.88
1011.91	214.89
1012.19	214.91
1012.48	214.93
1012.77	214.90
1013.05	215.01
1013.34	215.02
1013.63	215.03
1013.92	215.05
1014.20	215.08
1014.49	215.09
1014.78	215.11
1015.06	215.03
1015.35	215.03
1015.64	215.06
1015.92	215.12
1016.21	215.15
1016.50	215.15
1016.78	215.20
1017.07	215.23
1017.36	215.12
1017.64	215.10
1017.93	215.10
1018.22	215.06
1018.50	215.06
1018.79	215.06
1019.08	214.92
1019.36	214.95
1019.65	214.92
1019.93	214.99
1020.22	215.01
1020.51	215.10
1020.79	215.07
1021.08	214.36
1021.36	214.77
1021.65	214.90
1021.94	214.54
1022.22	215.41
1022.51	214.42
1022.79	216.45
1023.08	215.22
1023.36	217.03
1023.65	214.53
>>>>>End Processed Spectral Data<<<<<
