SpectraSuite Data File
++++++++++++++++++++++++++++++++++++
Date: Tue Jan 29 16:27:07 EST 2013
User: group
Dark Spectrum Present: No
Reference Spectrum Present: No
Number of Sampled Component Spectra: 1
Spectrometers: USB2E7196
Integration Time (usec): 65000 (USB2E7196)
Spectra Averaged: 100 (USB2E7196)
Boxcar Smoothing: 10 (USB2E7196)
Correct for Electrical Dark: No (USB2E7196)
Strobe/Lamp Enabled: No (USB2E7196)
Correct for Detector Non-linearity: No (USB2E7196)
Correct for Stray Light: No (USB2E7196)
Number of Pixels in Processed Spectrum: 2048
>>>>>Begin Processed Spectral Data<<<<<
339.09	0.00
339.48	202.30
339.86	203.84
340.24	205.39
340.63	206.70
341.01	210.57
341.39	209.06
341.78	211.17
342.16	212.20
342.54	211.72
342.93	201.40
343.31	211.56
343.69	212.09
344.07	212.53
344.46	212.98
344.84	213.35
345.22	213.54
345.60	213.80
345.99	213.92
346.37	214.02
346.75	214.18
347.13	214.26
347.52	214.33
347.90	214.48
348.28	214.54
348.66	214.69
349.05	214.66
349.43	214.72
349.81	214.79
350.19	214.84
350.57	214.91
350.96	215.03
351.34	215.10
351.72	215.20
352.10	215.35
352.48	215.38
352.87	215.47
353.25	215.55
353.63	215.63
354.01	215.74
354.39	215.85
354.77	215.91
355.15	216.04
355.54	216.09
355.92	216.09
356.30	216.15
356.68	216.32
357.06	216.40
357.44	216.45
357.82	216.47
358.20	216.56
358.58	216.60
358.97	216.68
359.35	216.83
359.73	216.95
360.11	216.98
360.49	217.05
360.87	217.07
361.25	217.14
361.63	217.26
362.01	217.32
362.39	217.37
362.77	217.42
363.15	217.44
363.53	217.45
363.91	217.46
364.29	217.46
364.67	217.27
365.05	217.31
365.43	217.35
365.81	217.39
366.19	217.49
366.57	217.60
366.95	217.56
367.33	217.50
367.71	217.48
368.09	217.51
368.47	217.52
368.85	217.49
369.23	217.52
369.61	217.43
369.99	217.47
370.37	217.45
370.75	217.52
371.13	217.46
371.51	217.44
371.89	217.46
372.27	217.46
372.65	217.45
373.03	217.40
373.41	217.35
373.78	217.31
374.16	217.13
374.54	217.04
374.92	216.99
375.30	216.94
375.68	216.84
376.06	216.80
376.44	216.74
376.82	216.74
377.19	216.66
377.57	216.64
377.95	216.54
378.33	216.48
378.71	216.33
379.09	216.31
379.47	216.32
379.84	216.24
380.22	216.16
380.60	216.13
380.98	216.08
381.36	216.03
381.73	215.97
382.11	215.98
382.49	215.94
382.87	215.88
383.25	215.88
383.62	216.09
384.00	216.02
384.38	215.99
384.76	215.97
385.13	216.04
385.51	215.99
385.89	215.91
386.27	215.86
386.64	215.86
387.02	215.82
387.40	215.73
387.78	215.71
388.15	215.67
388.53	215.62
388.91	215.60
389.29	215.55
389.66	215.56
390.04	215.50
390.42	215.50
390.79	215.52
391.17	215.46
391.55	215.22
391.92	215.22
392.30	215.23
392.68	215.17
393.05	215.11
393.43	215.09
393.81	215.14
394.18	215.10
394.56	215.09
394.94	215.14
395.31	215.15
395.69	215.23
396.06	215.27
396.44	215.29
396.82	215.28
397.19	215.41
397.57	215.43
397.95	215.51
398.32	215.49
398.70	215.55
399.07	215.65
399.45	215.68
399.82	215.73
400.20	215.76
400.58	215.80
400.95	215.77
401.33	215.89
401.70	216.09
402.08	216.20
402.45	216.28
402.83	216.40
403.20	216.52
403.58	216.58
403.95	216.75
404.33	216.92
404.71	217.10
405.08	217.36
405.46	217.52
405.83	217.70
406.21	217.92
406.58	218.16
406.96	218.35
407.33	218.62
407.70	218.93
408.08	219.38
408.45	219.77
408.83	220.19
409.20	220.51
409.58	220.79
409.95	221.25
410.33	221.73
410.70	222.14
411.08	222.66
411.45	223.23
411.82	223.80
412.20	224.49
412.57	225.30
412.95	225.85
413.32	226.70
413.69	227.53
414.07	228.43
414.44	229.44
414.82	230.50
415.19	231.68
415.56	232.87
415.94	234.04
416.31	235.43
416.68	236.83
417.06	238.45
417.43	240.02
417.81	241.75
418.18	243.55
418.55	245.49
418.93	247.57
419.30	249.70
419.67	251.91
420.04	254.19
420.42	256.59
420.79	259.44
421.16	262.22
421.54	265.13
421.91	268.14
422.28	271.14
422.66	274.44
423.03	277.70
423.40	281.06
423.77	284.67
424.15	288.33
424.52	292.17
424.89	296.34
425.26	300.38
425.64	304.27
426.01	308.50
426.38	313.01
426.75	317.51
427.13	322.23
427.50	327.22
427.87	332.43
428.24	337.58
428.61	342.59
428.99	348.10
429.36	354.06
429.73	359.92
430.10	365.83
430.47	371.90
430.85	378.20
431.22	384.83
431.59	391.90
431.96	398.70
432.33	406.16
432.70	413.42
433.08	421.94
433.45	429.97
433.82	438.00
434.19	446.82
434.56	455.53
434.93	463.84
435.30	472.07
435.68	481.15
436.05	490.09
436.42	498.91
436.79	507.00
437.16	515.77
437.53	525.02
437.90	534.06
438.27	542.96
438.64	552.07
439.01	560.64
439.38	568.22
439.75	575.49
440.13	583.86
440.50	591.73
440.87	598.20
441.24	604.78
441.61	612.16
441.98	617.56
442.35	623.79
442.72	630.14
443.09	636.20
443.46	639.96
443.83	642.50
444.20	644.77
444.57	647.89
444.94	649.35
445.31	650.81
445.68	652.30
446.05	652.88
446.42	652.11
446.79	651.13
447.16	650.05
447.53	649.36
447.90	646.06
448.27	642.79
448.64	638.05
449.01	634.76
449.37	628.84
449.74	623.19
450.11	616.38
450.48	608.90
450.85	601.42
451.22	594.95
451.59	588.83
451.96	582.96
452.33	575.13
452.70	567.98
453.07	559.50
453.43	550.88
453.80	542.58
454.17	534.66
454.54	527.14
454.91	518.97
455.28	510.94
455.65	503.53
456.02	496.11
456.38	489.81
456.75	482.02
457.12	475.45
457.49	468.94
457.86	462.72
458.23	457.41
458.59	451.49
458.96	445.48
459.33	440.20
459.70	434.79
460.07	430.55
460.43	425.77
460.80	421.18
461.17	417.20
461.54	413.03
461.91	409.06
462.27	404.94
462.64	401.53
463.01	397.83
463.38	394.18
463.74	390.46
464.11	387.26
464.48	384.44
464.85	381.32
465.21	378.91
465.58	376.32
465.95	373.16
466.32	370.58
466.68	367.96
467.05	365.37
467.42	362.87
467.78	360.20
468.15	357.64
468.52	355.74
468.88	353.26
469.25	351.05
469.62	349.20
469.98	347.28
470.35	345.49
470.72	343.76
471.08	341.97
471.45	340.47
471.82	338.97
472.18	337.30
472.55	336.11
472.92	334.70
473.28	333.48
473.65	332.40
474.02	331.31
474.38	330.41
474.75	329.70
475.11	328.86
475.48	328.31
475.85	327.82
476.21	327.33
476.58	326.98
476.94	326.76
477.31	326.47
477.67	326.22
478.04	326.03
478.41	326.00
478.77	326.15
479.14	326.10
479.50	326.18
479.87	326.45
480.23	326.78
480.60	327.01
480.96	327.29
481.33	327.84
481.69	328.42
482.06	328.98
482.42	329.46
482.79	330.10
483.15	330.88
483.52	331.85
483.88	332.78
484.25	333.74
484.61	334.78
484.98	335.86
485.34	337.15
485.71	338.57
486.07	339.98
486.44	341.31
486.80	342.92
487.17	344.63
487.53	346.41
487.90	348.30
488.26	350.35
488.62	352.51
488.99	354.54
489.35	356.70
489.72	359.08
490.08	361.55
490.44	364.12
490.81	366.78
491.17	369.46
491.54	372.43
491.90	375.45
492.26	378.71
492.63	382.09
492.99	385.61
493.36	389.25
493.72	393.17
494.08	397.16
494.45	401.42
494.81	405.77
495.17	410.32
495.54	414.98
495.90	419.83
496.26	424.78
496.63	430.07
496.99	435.45
497.35	441.09
497.72	446.95
498.08	452.91
498.44	459.03
498.80	465.48
499.17	471.97
499.53	478.74
499.89	485.65
500.26	492.73
500.62	499.84
500.98	507.33
501.34	514.83
501.71	522.68
502.07	530.56
502.43	538.57
502.79	546.74
503.16	555.24
503.52	563.87
503.88	572.62
504.24	581.60
504.60	590.74
504.97	600.04
505.33	609.43
505.69	619.35
506.05	629.29
506.41	639.29
506.78	649.39
507.14	659.75
507.50	670.29
507.86	681.04
508.22	691.90
508.59	702.66
508.95	713.82
509.31	725.15
509.67	736.56
510.03	748.15
510.39	759.99
510.75	771.90
511.12	783.92
511.48	796.12
511.84	808.49
512.20	820.96
512.56	833.70
512.92	846.59
513.28	859.26
513.64	872.14
514.00	885.02
514.37	898.14
514.73	911.25
515.09	924.34
515.45	937.35
515.81	950.47
516.17	963.93
516.53	977.30
516.89	990.55
517.25	1003.92
517.61	1017.47
517.97	1030.99
518.33	1044.20
518.69	1057.78
519.05	1071.58
519.41	1085.44
519.77	1099.39
520.13	1112.79
520.49	1126.02
520.85	1139.54
521.21	1153.06
521.57	1166.83
521.93	1179.94
522.29	1193.89
522.65	1207.75
523.01	1221.52
523.37	1234.87
523.73	1248.36
524.09	1261.61
524.45	1275.12
524.81	1288.81
525.17	1302.34
525.53	1315.63
525.89	1329.20
526.25	1342.50
526.61	1355.62
526.97	1368.85
527.33	1381.95
527.68	1395.45
528.04	1409.13
528.40	1422.55
528.76	1436.01
529.12	1449.09
529.48	1462.60
529.84	1474.98
530.20	1487.82
530.56	1500.61
530.91	1513.99
531.27	1526.89
531.63	1539.73
531.99	1552.55
532.35	1564.87
532.71	1577.42
533.07	1590.35
533.42	1602.63
533.78	1614.86
534.14	1627.06
534.50	1638.38
534.86	1650.09
535.21	1661.15
535.57	1672.76
535.93	1684.01
536.29	1695.21
536.65	1706.76
537.00	1717.81
537.36	1729.34
537.72	1740.50
538.08	1751.84
538.44	1762.83
538.79	1774.13
539.15	1785.20
539.51	1796.00
539.87	1807.38
540.22	1818.30
540.58	1829.38
540.94	1840.49
541.29	1850.82
541.65	1860.56
542.01	1871.24
542.37	1881.29
542.72	1891.50
543.08	1901.23
543.44	1911.79
543.79	1921.14
544.15	1930.72
544.51	1940.95
544.87	1950.90
545.22	1960.06
545.58	1969.04
545.94	1978.02
546.29	1986.43
546.65	1994.83
547.01	2003.30
547.36	2011.04
547.72	2018.91
548.07	2026.50
548.43	2034.23
548.79	2042.25
549.14	2050.47
549.50	2058.83
549.86	2066.70
550.21	2074.42
550.57	2082.35
550.92	2089.21
551.28	2096.83
551.64	2104.08
551.99	2111.47
552.35	2118.59
552.70	2125.55
553.06	2132.30
553.41	2138.75
553.77	2145.38
554.13	2151.86
554.48	2158.85
554.84	2166.07
555.19	2172.58
555.55	2179.22
555.90	2185.49
556.26	2192.20
556.61	2198.29
556.97	2203.13
557.32	2209.14
557.68	2215.45
558.03	2221.17
558.39	2226.59
558.74	2232.59
559.10	2238.10
559.45	2243.73
559.81	2249.43
560.16	2255.04
560.52	2260.89
560.87	2267.23
561.23	2273.33
561.58	2279.99
561.94	2285.32
562.29	2290.05
562.64	2296.20
563.00	2301.80
563.35	2307.52
563.71	2313.51
564.06	2319.35
564.42	2325.37
564.77	2330.40
565.12	2335.76
565.48	2341.06
565.83	2346.54
566.19	2351.93
566.54	2357.43
566.89	2362.11
567.25	2366.75
567.60	2372.45
567.96	2377.69
568.31	2382.44
568.66	2386.66
569.02	2390.70
569.37	2394.50
569.72	2398.95
570.08	2402.48
570.43	2405.55
570.78	2408.76
571.14	2411.28
571.49	2414.33
571.84	2417.91
572.20	2420.87
572.55	2423.83
572.90	2426.05
573.26	2428.90
573.61	2431.45
573.96	2433.67
574.31	2435.73
574.67	2437.56
575.02	2438.53
575.37	2440.05
575.72	2440.81
576.08	2442.19
576.43	2442.48
576.78	2442.88
577.13	2444.58
577.49	2445.72
577.84	2446.91
578.19	2448.14
578.54	2448.67
578.90	2449.60
579.25	2449.49
579.60	2449.45
579.95	2448.68
580.30	2448.82
580.66	2448.28
581.01	2446.74
581.36	2444.47
581.71	2443.14
582.06	2442.11
582.42	2441.19
582.77	2438.89
583.12	2437.15
583.47	2435.95
583.82	2435.20
584.17	2434.12
584.53	2431.94
584.88	2429.83
585.23	2427.91
585.58	2425.59
585.93	2423.63
586.28	2421.45
586.63	2419.09
586.98	2416.91
587.34	2414.96
587.69	2412.49
588.04	2410.31
588.39	2408.91
588.74	2406.33
589.09	2403.56
589.44	2400.39
589.79	2397.85
590.14	2395.96
590.49	2393.19
590.84	2389.18
591.19	2385.99
591.54	2382.54
591.89	2378.60
592.25	2375.44
592.60	2371.22
592.95	2367.07
593.30	2362.85
593.65	2358.19
594.00	2353.69
594.35	2350.75
594.70	2345.97
595.05	2341.38
595.40	2335.92
595.75	2330.00
596.10	2326.33
596.45	2321.40
596.80	2316.75
597.15	2311.44
597.50	2305.41
597.85	2300.41
598.19	2295.21
598.54	2289.46
598.89	2284.27
599.24	2279.47
599.59	2273.16
599.94	2267.25
600.29	2261.32
600.64	2255.36
600.99	2248.58
601.34	2243.07
601.69	2235.91
602.04	2229.52
602.39	2222.77
602.74	2216.74
603.08	2211.24
603.43	2204.76
603.78	2197.92
604.13	2190.80
604.48	2183.48
604.83	2177.36
605.18	2171.02
605.53	2164.19
605.87	2157.04
606.22	2150.21
606.57	2142.23
606.92	2134.21
607.27	2127.18
607.62	2120.50
607.96	2113.39
608.31	2106.98
608.66	2099.18
609.01	2091.65
609.36	2084.44
609.70	2076.77
610.05	2068.75
610.40	2060.24
610.75	2051.81
611.10	2044.11
611.44	2035.15
611.79	2026.48
612.14	2016.47
612.49	2005.80
612.83	1996.31
613.18	1987.03
613.53	1977.70
613.88	1968.16
614.22	1959.45
614.57	1949.64
614.92	1939.00
615.27	1928.75
615.61	1918.52
615.96	1908.79
616.31	1899.12
616.65	1889.76
617.00	1879.90
617.35	1870.25
617.70	1860.47
618.04	1850.35
618.39	1840.07
618.74	1830.30
619.08	1820.45
619.43	1811.68
619.78	1803.35
620.12	1794.64
620.47	1785.02
620.82	1774.63
621.16	1764.72
621.51	1754.77
621.85	1744.78
622.20	1734.28
622.55	1723.71
622.89	1713.60
623.24	1703.81
623.59	1693.87
623.93	1683.60
624.28	1673.77
624.62	1663.49
624.97	1653.25
625.32	1643.40
625.66	1634.39
626.01	1625.55
626.35	1616.24
626.70	1606.10
627.04	1595.93
627.39	1585.79
627.73	1576.40
628.08	1567.34
628.43	1557.80
628.77	1548.53
629.12	1539.60
629.46	1531.74
629.81	1523.21
630.15	1513.75
630.50	1503.79
630.84	1493.28
631.19	1483.30
631.53	1474.04
631.88	1463.83
632.22	1453.69
632.57	1444.18
632.91	1433.92
633.26	1423.89
633.60	1414.26
633.95	1404.89
634.29	1395.32
634.64	1385.86
634.98	1375.72
635.32	1366.33
635.67	1357.75
636.01	1348.43
636.36	1338.52
636.70	1328.93
637.05	1319.47
637.39	1310.42
637.73	1301.69
638.08	1294.00
638.42	1285.78
638.77	1276.80
639.11	1268.50
639.45	1260.66
639.80	1252.03
640.14	1243.23
640.49	1234.47
640.83	1225.46
641.17	1217.16
641.52	1208.94
641.86	1200.25
642.20	1192.36
642.55	1183.60
642.89	1174.60
643.23	1165.81
643.58	1157.68
643.92	1148.54
644.26	1139.84
644.61	1131.33
644.95	1122.50
645.29	1113.12
645.64	1103.85
645.98	1095.32
646.32	1087.32
646.66	1078.66
647.01	1070.25
647.35	1062.13
647.69	1053.55
648.04	1045.16
648.38	1036.21
648.72	1027.39
649.06	1018.79
649.41	1010.52
649.75	1002.49
650.09	994.37
650.43	986.28
650.78	977.87
651.12	970.05
651.46	962.42
651.80	955.16
652.14	947.66
652.49	940.16
652.83	932.68
653.17	924.82
653.51	917.13
653.85	909.83
654.20	902.52
654.54	894.86
654.88	887.62
655.22	880.26
655.56	873.17
655.90	866.24
656.25	859.57
656.59	852.55
656.93	845.47
657.27	838.33
657.61	831.25
657.95	825.14
658.29	819.15
658.64	813.05
658.98	806.35
659.32	799.81
659.66	793.44
660.00	787.06
660.34	780.93
660.68	774.68
661.02	768.29
661.36	762.29
661.70	756.44
662.05	750.80
662.39	745.30
662.73	739.84
663.07	734.40
663.41	728.70
663.75	722.92
664.09	717.17
664.43	711.73
664.77	706.38
665.11	700.44
665.45	694.46
665.79	688.56
666.13	682.93
666.47	677.37
666.81	671.85
667.15	666.34
667.49	661.08
667.83	655.80
668.17	650.45
668.51	645.21
668.85	640.25
669.19	635.24
669.53	630.22
669.87	624.97
670.21	620.13
670.55	615.35
670.89	610.92
671.23	606.50
671.57	602.04
671.91	597.66
672.25	593.44
672.58	589.23
672.92	585.14
673.26	581.08
673.60	577.20
673.94	573.33
674.28	569.72
674.62	565.93
674.96	562.14
675.30	558.57
675.64	554.85
675.97	551.13
676.31	547.42
676.65	543.71
676.99	540.31
677.33	536.40
677.67	532.73
678.01	528.73
678.34	525.10
678.68	521.52
679.02	517.87
679.36	514.11
679.70	510.44
680.04	506.76
680.37	503.21
680.71	499.79
681.05	496.54
681.39	493.22
681.73	489.95
682.06	486.86
682.40	483.77
682.74	480.54
683.08	477.27
683.42	474.07
683.75	471.05
684.09	467.92
684.43	465.10
684.77	462.09
685.10	459.25
685.44	456.30
685.78	453.34
686.12	450.54
686.45	447.78
686.79	445.07
687.13	442.54
687.46	439.94
687.80	437.20
688.14	434.35
688.48	431.61
688.81	428.98
689.15	426.38
689.49	423.69
689.82	421.13
690.16	418.58
690.50	416.06
690.83	413.54
691.17	411.02
691.51	408.42
691.84	406.15
692.18	403.93
692.52	401.65
692.85	399.48
693.19	397.30
693.52	395.06
693.86	392.80
694.20	390.55
694.53	388.34
694.87	386.11
695.21	383.95
695.54	381.82
695.88	379.56
696.21	377.32
696.55	375.19
696.88	373.13
697.22	371.09
697.56	369.15
697.89	367.22
698.23	365.39
698.56	363.61
698.90	361.81
699.23	359.88
699.57	358.01
699.90	356.08
700.24	354.20
700.58	352.49
700.91	350.82
701.25	349.23
701.58	347.64
701.92	346.02
702.25	344.41
702.59	342.78
702.92	341.21
703.26	339.61
703.59	338.08
703.93	336.78
704.26	335.37
704.60	333.86
704.93	332.33
705.26	330.85
705.60	329.31
705.93	327.82
706.27	326.45
706.60	325.14
706.94	323.94
707.27	322.56
707.61	321.16
707.94	319.79
708.27	318.25
708.61	316.79
708.94	315.45
709.28	314.11
709.61	312.83
709.94	311.60
710.28	310.38
710.61	309.17
710.95	307.73
711.28	306.62
711.61	305.39
711.95	304.26
712.28	303.06
712.61	301.89
712.95	300.77
713.28	299.71
713.61	298.56
713.95	297.38
714.28	296.33
714.61	295.24
714.95	294.24
715.28	293.17
715.61	292.14
715.95	291.16
716.28	290.21
716.61	289.27
716.95	288.31
717.28	287.36
717.61	286.37
717.94	285.43
718.28	284.33
718.61	283.48
718.94	282.58
719.27	281.69
719.61	280.88
719.94	279.98
720.27	279.03
720.60	278.13
720.94	277.30
721.27	276.53
721.60	275.86
721.93	275.11
722.27	274.52
722.60	273.86
722.93	273.17
723.26	272.47
723.59	271.72
723.93	271.05
724.26	270.38
724.59	269.78
724.92	269.17
725.25	268.65
725.59	268.06
725.92	267.50
726.25	266.91
726.58	266.32
726.91	265.72
727.24	265.14
727.57	264.59
727.91	263.97
728.24	263.37
728.57	262.78
728.90	262.21
729.23	261.58
729.56	261.10
729.89	260.48
730.22	259.93
730.55	259.38
730.89	258.87
731.22	258.30
731.55	257.74
731.88	257.24
732.21	256.68
732.54	256.12
732.87	255.60
733.20	255.11
733.53	254.62
733.86	254.18
734.19	253.67
734.52	253.24
734.85	252.94
735.18	252.50
735.51	252.14
735.84	251.68
736.17	251.29
736.50	250.75
736.83	250.61
737.16	250.26
737.49	249.88
737.82	249.46
738.15	249.09
738.48	248.71
738.81	248.29
739.14	247.88
739.47	247.51
739.80	247.15
740.13	246.82
740.46	246.46
740.79	246.04
741.12	245.70
741.45	245.31
741.78	244.87
742.11	244.59
742.44	244.19
742.77	243.95
743.10	243.57
743.43	243.21
743.75	242.63
744.08	242.51
744.41	242.17
744.74	241.80
745.07	241.45
745.40	241.14
745.73	240.86
746.06	240.56
746.39	240.22
746.71	239.86
747.04	239.47
747.37	239.12
747.70	238.86
748.03	238.55
748.36	238.27
748.68	237.96
749.01	237.55
749.34	237.24
749.67	236.91
750.00	236.68
750.33	236.54
750.65	236.27
750.98	235.78
751.31	235.51
751.64	235.27
751.97	235.13
752.29	234.87
752.62	234.55
752.95	234.29
753.28	234.07
753.60	233.82
753.93	233.66
754.26	233.45
754.59	233.19
754.91	232.95
755.24	232.73
755.57	232.51
755.90	232.32
756.22	232.09
756.55	231.81
756.88	231.54
757.20	231.23
757.53	230.98
757.86	230.75
758.19	230.55
758.51	230.35
758.84	230.03
759.17	229.83
759.49	229.66
759.82	229.56
760.15	229.37
760.47	229.19
760.80	228.94
761.13	228.80
761.45	228.58
761.78	228.39
762.11	228.17
762.43	228.00
762.76	227.80
763.08	227.66
763.41	227.51
763.74	227.35
764.06	227.18
764.39	227.01
764.71	226.85
765.04	226.66
765.37	226.48
765.69	226.36
766.02	226.24
766.34	226.06
766.67	225.87
767.00	225.72
767.32	225.69
767.65	225.68
767.97	225.54
768.30	225.47
768.62	225.33
768.95	225.21
769.27	225.05
769.60	224.95
769.92	224.80
770.25	224.67
770.57	224.52
770.90	224.41
771.22	224.29
771.55	224.18
771.87	224.08
772.20	223.95
772.52	223.99
772.85	224.14
773.17	224.01
773.50	223.87
773.82	223.80
774.15	223.58
774.47	223.38
774.80	223.25
775.12	223.14
775.45	223.06
775.77	222.94
776.09	222.87
776.42	222.76
776.74	222.73
777.07	222.63
777.39	222.54
777.72	222.43
778.04	222.36
778.36	222.26
778.69	222.19
779.01	222.15
779.33	221.91
779.66	221.55
779.98	221.49
780.31	221.42
780.63	221.40
780.95	221.36
781.28	221.32
781.60	221.22
781.92	221.17
782.25	221.09
782.57	221.05
782.89	220.97
783.22	220.89
783.54	220.80
783.86	220.76
784.19	220.67
784.51	220.70
784.83	220.61
785.16	220.55
785.48	220.48
785.80	220.41
786.12	220.37
786.45	220.34
786.77	220.30
787.09	220.22
787.42	220.09
787.74	220.04
788.06	219.91
788.38	219.84
788.71	219.76
789.03	219.73
789.35	219.71
789.67	219.61
789.99	219.59
790.32	219.48
790.64	219.45
790.96	219.58
791.28	219.43
791.61	219.39
791.93	219.35
792.25	219.33
792.57	219.42
792.89	219.32
793.21	219.25
793.54	219.19
793.86	219.13
794.18	219.06
794.50	218.96
794.82	218.96
795.14	218.93
795.47	218.90
795.79	218.85
796.11	218.78
796.43	218.74
796.75	218.71
797.07	218.69
797.39	218.64
797.71	218.44
798.04	218.44
798.36	218.39
798.68	218.34
799.00	218.26
799.32	218.13
799.64	218.13
799.96	218.15
800.28	218.16
800.60	218.10
800.92	218.13
801.24	218.12
801.56	218.09
801.89	218.06
802.21	218.01
802.53	217.94
802.85	217.95
803.17	218.03
803.49	217.92
803.81	217.88
804.13	217.84
804.45	217.78
804.77	217.76
805.09	217.72
805.41	217.65
805.73	217.61
806.05	217.51
806.37	217.45
806.69	217.35
807.01	217.30
807.33	217.32
807.65	217.18
807.97	217.25
808.28	217.21
808.60	217.18
808.92	217.14
809.24	217.26
809.56	217.19
809.88	217.05
810.20	217.06
810.52	217.04
810.84	217.00
811.16	216.96
811.48	216.92
811.80	217.00
812.12	217.00
812.43	217.03
812.75	217.05
813.07	217.03
813.39	217.04
813.71	217.00
814.03	216.96
814.35	216.97
814.67	216.87
814.98	216.83
815.30	216.81
815.62	216.76
815.94	216.61
816.26	216.59
816.58	216.55
816.89	216.57
817.21	216.52
817.53	216.53
817.85	216.54
818.17	216.52
818.48	216.39
818.80	216.42
819.12	216.38
819.44	216.31
819.76	216.26
820.07	216.25
820.39	216.22
820.71	216.19
821.03	216.20
821.34	216.14
821.66	216.19
821.98	216.16
822.30	216.13
822.61	216.23
822.93	216.19
823.25	216.20
823.57	216.16
823.88	216.17
824.20	216.15
824.52	216.18
824.83	216.17
825.15	216.14
825.47	216.09
825.79	216.07
826.10	216.08
826.42	216.06
826.74	216.08
827.05	216.04
827.37	216.03
827.69	216.01
828.00	216.00
828.32	215.96
828.64	215.93
828.95	216.04
829.27	215.99
829.58	215.97
829.90	215.99
830.22	216.00
830.53	215.96
830.85	215.93
831.17	215.84
831.48	215.86
831.80	215.88
832.11	215.88
832.43	215.84
832.75	215.82
833.06	215.93
833.38	215.85
833.69	215.83
834.01	215.84
834.32	215.84
834.64	215.82
834.96	215.81
835.27	215.81
835.59	215.76
835.90	215.69
836.22	215.67
836.53	215.63
836.85	215.61
837.16	215.81
837.48	215.80
837.79	215.88
838.11	215.86
838.42	215.83
838.74	215.84
839.05	215.81
839.37	215.82
839.68	215.70
840.00	215.68
840.31	215.75
840.63	215.73
840.94	215.68
841.26	215.67
841.57	215.65
841.88	215.65
842.20	215.58
842.51	215.55
842.83	215.56
843.14	215.70
843.46	215.69
843.77	215.57
844.08	215.49
844.40	215.41
844.71	215.37
845.03	215.35
845.34	215.33
845.65	215.33
845.97	215.31
846.28	215.32
846.60	215.34
846.91	215.28
847.22	215.26
847.54	215.32
847.85	215.32
848.16	215.31
848.48	215.26
848.79	215.32
849.10	215.33
849.42	215.33
849.73	215.16
850.04	215.13
850.36	215.01
850.67	215.10
850.98	215.10
851.30	215.10
851.61	215.10
851.92	215.08
852.23	215.12
852.55	215.14
852.86	215.12
853.17	215.11
853.49	215.16
853.80	215.19
854.11	215.18
854.42	215.21
854.74	215.17
855.05	215.16
855.36	215.07
855.67	215.07
855.99	215.11
856.30	215.36
856.61	215.35
856.92	215.40
857.23	215.39
857.55	215.35
857.86	215.33
858.17	215.34
858.48	215.30
858.79	215.27
859.11	215.25
859.42	215.23
859.73	215.22
860.04	215.21
860.35	215.11
860.66	215.05
860.98	215.03
861.29	215.06
861.60	215.05
861.91	215.12
862.22	215.09
862.53	215.04
862.84	214.80
863.16	214.85
863.47	214.78
863.78	214.78
864.09	214.79
864.40	214.81
864.71	214.83
865.02	214.82
865.33	214.77
865.64	214.74
865.95	214.73
866.27	214.85
866.58	214.76
866.89	214.79
867.20	214.78
867.51	214.75
867.82	214.71
868.13	214.80
868.44	214.75
868.75	214.79
869.06	214.78
869.37	214.82
869.68	214.74
869.99	214.82
870.30	214.81
870.61	214.87
870.92	214.86
871.23	214.82
871.54	214.89
871.85	214.96
872.16	214.97
872.47	214.95
872.78	214.83
873.09	214.90
873.40	214.91
873.71	214.93
874.02	214.93
874.33	214.94
874.64	214.88
874.95	214.88
875.26	214.84
875.56	214.82
875.87	214.78
876.18	214.80
876.49	214.96
876.80	214.94
877.11	214.85
877.42	214.86
877.73	214.84
878.04	214.81
878.35	214.85
878.66	214.88
878.96	214.88
879.27	214.85
879.58	214.83
879.89	214.81
880.20	214.87
880.51	214.86
880.82	214.83
881.12	214.83
881.43	214.80
881.74	214.76
882.05	214.79
882.36	214.77
882.67	214.79
882.97	214.56
883.28	214.56
883.59	214.56
883.90	214.56
884.21	214.61
884.51	214.57
884.82	214.50
885.13	214.49
885.44	214.49
885.74	214.49
886.05	214.50
886.36	214.52
886.67	214.42
886.98	214.56
887.28	214.58
887.59	214.61
887.90	214.62
888.20	214.65
888.51	214.66
888.82	214.63
889.13	214.63
889.43	214.79
889.74	214.81
890.05	214.79
890.35	214.77
890.66	214.74
890.97	214.75
891.28	214.72
891.58	214.69
891.89	214.70
892.20	214.66
892.50	214.60
892.81	214.58
893.12	214.61
893.42	214.49
893.73	214.49
894.04	214.47
894.34	214.49
894.65	214.48
894.95	214.48
895.26	214.49
895.57	214.58
895.87	214.37
896.18	214.36
896.48	214.38
896.79	214.36
897.10	214.38
897.40	214.38
897.71	214.42
898.01	214.41
898.32	214.39
898.63	214.44
898.93	214.47
899.24	214.48
899.54	214.45
899.85	214.47
900.15	214.50
900.46	214.51
900.76	214.54
901.07	214.49
901.38	214.49
901.68	214.52
901.99	214.42
902.29	214.44
902.60	214.45
902.90	214.47
903.21	214.49
903.51	214.46
903.82	214.51
904.12	214.51
904.43	214.53
904.73	214.55
905.03	214.54
905.34	214.75
905.64	214.73
905.95	214.73
906.25	214.69
906.56	214.67
906.86	214.66
907.17	214.64
907.47	214.69
907.77	214.67
908.08	214.59
908.38	214.58
908.69	214.60
908.99	214.62
909.30	214.61
909.60	214.61
909.90	214.64
910.21	214.59
910.51	214.58
910.81	214.61
911.12	214.63
911.42	214.64
911.73	214.43
912.03	214.45
912.33	214.51
912.64	214.50
912.94	214.47
913.24	214.42
913.55	214.38
913.85	214.36
914.15	214.40
914.46	214.44
914.76	214.45
915.06	214.45
915.37	214.42
915.67	214.39
915.97	214.38
916.27	214.32
916.58	214.29
916.88	214.27
917.18	214.25
917.49	214.39
917.79	214.38
918.09	214.40
918.39	214.46
918.70	214.42
919.00	214.45
919.30	214.58
919.60	214.57
919.91	214.59
920.21	214.58
920.51	214.56
920.81	214.56
921.12	214.58
921.42	214.56
921.72	214.55
922.02	214.58
922.32	214.63
922.63	214.65
922.93	214.78
923.23	214.76
923.53	214.72
923.83	214.58
924.13	214.59
924.44	214.57
924.74	214.59
925.04	214.66
925.34	214.62
925.64	214.51
925.94	214.54
926.24	214.67
926.55	214.65
926.85	214.65
927.15	214.66
927.45	214.66
927.75	214.66
928.05	214.67
928.35	214.67
928.65	214.69
928.95	214.72
929.26	214.65
929.56	214.68
929.86	214.70
930.16	214.68
930.46	214.68
930.76	214.71
931.06	214.58
931.36	214.52
931.66	214.58
931.96	214.60
932.26	214.58
932.56	214.46
932.86	214.49
933.16	214.48
933.46	214.45
933.76	214.42
934.06	214.49
934.36	214.58
934.66	214.55
934.96	214.52
935.26	214.50
935.56	214.52
935.86	214.46
936.16	214.41
936.46	214.39
936.76	214.39
937.06	214.34
937.36	214.35
937.66	214.33
937.96	214.30
938.26	214.28
938.56	214.25
938.86	214.28
939.16	214.30
939.46	214.33
939.76	214.38
940.06	214.40
940.35	214.36
940.65	214.22
940.95	214.23
941.25	214.17
941.55	214.15
941.85	214.14
942.15	214.22
942.45	214.32
942.75	214.33
943.04	214.33
943.34	214.39
943.64	214.40
943.94	214.36
944.24	214.37
944.54	214.40
944.84	214.39
945.13	214.34
945.43	214.37
945.73	214.31
946.03	214.25
946.33	214.19
946.62	214.17
946.92	214.20
947.22	214.23
947.52	214.26
947.82	214.27
948.11	214.23
948.41	214.16
948.71	214.09
949.01	214.09
949.31	214.06
949.60	214.04
949.90	214.07
950.20	214.11
950.50	214.10
950.79	214.07
951.09	214.10
951.39	214.12
951.69	214.06
951.98	214.13
952.28	214.14
952.58	214.17
952.87	214.17
953.17	214.21
953.47	214.17
953.76	214.14
954.06	214.12
954.36	214.13
954.66	214.15
954.95	214.20
955.25	214.24
955.55	214.26
955.84	214.22
956.14	214.28
956.44	214.27
956.73	214.27
957.03	214.27
957.32	214.30
957.62	214.29
957.92	214.34
958.21	214.31
958.51	214.56
958.81	214.59
959.10	214.61
959.40	214.62
959.69	214.66
959.99	214.70
960.29	214.71
960.58	214.69
960.88	214.70
961.17	214.71
961.47	214.71
961.76	214.70
962.06	214.74
962.36	214.67
962.65	214.69
962.95	214.65
963.24	214.64
963.54	214.61
963.83	214.63
964.13	214.62
964.42	214.55
964.72	214.38
965.01	214.40
965.31	214.39
965.60	214.37
965.90	214.47
966.19	214.45
966.49	214.43
966.78	214.42
967.08	214.45
967.37	214.44
967.67	214.40
967.96	214.43
968.26	214.39
968.55	214.41
968.85	214.39
969.14	214.39
969.43	214.38
969.73	214.34
970.02	214.32
970.32	214.32
970.61	214.33
970.91	214.27
971.20	214.25
971.49	214.23
971.79	214.23
972.08	214.08
972.38	214.08
972.67	214.11
972.96	214.16
973.26	214.15
973.55	214.20
973.85	214.18
974.14	214.16
974.43	214.20
974.73	214.17
975.02	214.17
975.31	214.18
975.61	214.17
975.90	214.20
976.19	214.15
976.49	214.16
976.78	214.16
977.07	214.15
977.37	214.14
977.66	214.17
977.95	214.19
978.24	214.22
978.54	214.24
978.83	214.19
979.12	214.17
979.42	214.15
979.71	214.11
980.00	214.14
980.29	214.15
980.59	214.10
980.88	214.15
981.17	214.14
981.46	214.14
981.76	214.13
982.05	214.18
982.34	214.22
982.63	214.19
982.93	214.24
983.22	214.28
983.51	214.28
983.80	214.29
984.09	214.30
984.39	214.28
984.68	214.25
984.97	214.26
985.26	214.20
985.55	214.20
985.85	214.18
986.14	214.20
986.43	214.21
986.72	214.21
987.01	214.17
987.30	214.18
987.59	214.19
987.89	214.22
988.18	214.14
988.47	214.12
988.76	214.09
989.05	214.07
989.34	214.04
989.63	214.05
989.92	214.01
990.22	213.98
990.51	214.00
990.80	214.00
991.09	214.03
991.38	214.10
991.67	214.05
991.96	214.03
992.25	214.02
992.54	214.00
992.83	214.01
993.12	213.96
993.41	213.98
993.70	214.05
993.99	214.09
994.28	214.11
994.58	214.17
994.87	214.17
995.16	214.15
995.45	214.14
995.74	214.12
996.03	214.14
996.32	214.18
996.61	214.25
996.90	214.23
997.19	214.22
997.48	214.25
997.77	214.24
998.06	214.23
998.34	214.22
998.63	214.20
998.92	214.22
999.21	214.25
999.50	214.27
999.79	214.21
1000.08	214.19
1000.37	214.19
1000.66	214.14
1000.95	214.22
1001.24	214.25
1001.53	214.30
1001.82	214.30
1002.11	214.30
1002.40	214.30
1002.68	214.29
1002.97	214.45
1003.26	214.43
1003.55	214.39
1003.84	214.41
1004.13	214.51
1004.42	214.49
1004.71	214.50
1004.99	214.45
1005.28	214.52
1005.57	214.54
1005.86	214.52
1006.15	214.49
1006.44	214.49
1006.72	214.54
1007.01	214.47
1007.30	214.47
1007.59	214.42
1007.88	214.41
1008.17	214.39
1008.45	214.34
1008.74	214.27
1009.03	214.15
1009.32	214.14
1009.60	214.14
1009.89	214.15
1010.18	214.03
1010.47	214.02
1010.76	214.01
1011.04	214.01
1011.33	214.09
1011.62	214.05
1011.91	214.07
1012.19	214.12
1012.48	214.13
1012.77	214.11
1013.05	214.23
1013.34	214.21
1013.63	214.19
1013.92	214.18
1014.20	214.16
1014.49	214.19
1014.78	214.18
1015.06	214.14
1015.35	214.17
1015.64	214.21
1015.92	214.23
1016.21	214.28
1016.50	214.31
1016.78	214.35
1017.07	214.37
1017.36	214.27
1017.64	214.25
1017.93	214.26
1018.22	214.22
1018.50	214.20
1018.79	214.21
1019.08	214.10
1019.36	214.10
1019.65	214.09
1019.93	214.14
1020.22	214.18
1020.51	214.29
1020.79	214.27
1021.08	214.01
1021.36	213.80
1021.65	214.31
1021.94	214.06
1022.22	213.85
1022.51	213.60
1022.79	214.59
1023.08	214.27
1023.36	216.68
1023.65	213.37
>>>>>End Processed Spectral Data<<<<<
