SpectraSuite Data File
++++++++++++++++++++++++++++++++++++
Date: Tue Jan 29 16:35:02 EST 2013
User: group
Dark Spectrum Present: No
Reference Spectrum Present: No
Number of Sampled Component Spectra: 1
Spectrometers: USB2E7196
Integration Time (usec): 65000 (USB2E7196)
Spectra Averaged: 100 (USB2E7196)
Boxcar Smoothing: 10 (USB2E7196)
Correct for Electrical Dark: No (USB2E7196)
Strobe/Lamp Enabled: No (USB2E7196)
Correct for Detector Non-linearity: No (USB2E7196)
Correct for Stray Light: No (USB2E7196)
Number of Pixels in Processed Spectrum: 2048
>>>>>Begin Processed Spectral Data<<<<<
339.09	0.00
339.48	202.14
339.86	203.56
340.24	204.84
340.63	206.18
341.01	211.04
341.39	209.28
341.78	210.11
342.16	212.83
342.54	212.07
342.93	201.42
343.31	211.60
343.69	212.14
344.07	212.60
344.46	213.06
344.84	213.46
345.22	213.62
345.60	213.89
345.99	214.09
346.37	214.18
346.75	214.29
347.13	214.35
347.52	214.38
347.90	214.48
348.28	214.52
348.66	214.57
349.05	214.55
349.43	214.59
349.81	214.67
350.19	214.74
350.57	214.80
350.96	214.85
351.34	214.94
351.72	215.05
352.10	215.14
352.48	215.17
352.87	215.20
353.25	215.23
353.63	215.25
354.01	215.31
354.39	215.35
354.77	215.41
355.15	215.48
355.54	215.53
355.92	215.49
356.30	215.54
356.68	215.74
357.06	215.78
357.44	215.78
357.82	215.82
358.20	215.87
358.58	215.91
358.97	215.98
359.35	216.06
359.73	216.10
360.11	216.14
360.49	216.23
360.87	216.29
361.25	216.35
361.63	216.48
362.01	216.55
362.39	216.59
362.77	216.66
363.15	216.68
363.53	216.71
363.91	216.78
364.29	216.80
364.67	216.63
365.05	216.68
365.43	216.78
365.81	216.81
366.19	216.93
366.57	216.99
366.95	217.00
367.33	216.94
367.71	216.95
368.09	216.98
368.47	216.97
368.85	216.92
369.23	216.96
369.61	216.86
369.99	216.90
370.37	216.90
370.75	216.98
371.13	216.93
371.51	216.92
371.89	216.90
372.27	216.89
372.65	216.87
373.03	216.83
373.41	216.75
373.78	216.70
374.16	216.55
374.54	216.44
374.92	216.39
375.30	216.39
375.68	216.34
376.06	216.32
376.44	216.25
376.82	216.26
377.19	216.22
377.57	216.19
377.95	216.10
378.33	216.04
378.71	215.85
379.09	215.84
379.47	215.79
379.84	215.74
380.22	215.66
380.60	215.59
380.98	215.53
381.36	215.50
381.73	215.45
382.11	215.46
382.49	215.47
382.87	215.41
383.25	215.33
383.62	215.53
384.00	215.45
384.38	215.44
384.76	215.44
385.13	215.49
385.51	215.48
385.89	215.42
386.27	215.38
386.64	215.38
387.02	215.35
387.40	215.33
387.78	215.33
388.15	215.33
388.53	215.32
388.91	215.33
389.29	215.29
389.66	215.33
390.04	215.27
390.42	215.26
390.79	215.26
391.17	215.27
391.55	215.02
391.92	214.99
392.30	215.01
392.68	214.94
393.05	214.89
393.43	214.85
393.81	214.85
394.18	214.84
394.56	214.85
394.94	214.88
395.31	214.87
395.69	214.91
396.06	214.97
396.44	214.97
396.82	214.95
397.19	215.07
397.57	215.05
397.95	215.10
398.32	215.08
398.70	215.12
399.07	215.21
399.45	215.26
399.82	215.36
400.20	215.39
400.58	215.48
400.95	215.49
401.33	215.62
401.70	215.85
402.08	215.96
402.45	216.08
402.83	216.24
403.20	216.35
403.58	216.44
403.95	216.57
404.33	216.74
404.71	216.89
405.08	217.14
405.46	217.31
405.83	217.55
406.21	217.74
406.58	217.98
406.96	218.23
407.33	218.48
407.70	218.78
408.08	219.25
408.45	219.62
408.83	220.02
409.20	220.36
409.58	220.63
409.95	221.10
410.33	221.58
410.70	221.98
411.08	222.53
411.45	223.11
411.82	223.72
412.20	224.41
412.57	225.28
412.95	225.84
413.32	226.69
413.69	227.51
414.07	228.46
414.44	229.45
414.82	230.43
415.19	231.60
415.56	232.80
415.94	233.98
416.31	235.43
416.68	236.80
417.06	238.39
417.43	239.96
417.81	241.69
418.18	243.48
418.55	245.45
418.93	247.51
419.30	249.62
419.67	251.81
420.04	254.09
420.42	256.45
420.79	259.30
421.16	262.11
421.54	265.01
421.91	267.99
422.28	271.08
422.66	274.41
423.03	277.69
423.40	281.05
423.77	284.68
424.15	288.27
424.52	292.14
424.89	296.36
425.26	300.43
425.64	304.37
426.01	308.61
426.38	313.04
426.75	317.60
427.13	322.32
427.50	327.32
427.87	332.51
428.24	337.71
428.61	342.72
428.99	348.28
429.36	354.34
429.73	360.28
430.10	366.16
430.47	372.23
430.85	378.53
431.22	385.22
431.59	392.30
431.96	399.16
432.33	406.66
432.70	413.85
433.08	422.40
433.45	430.45
433.82	438.54
434.19	447.51
434.56	456.20
434.93	464.52
435.30	472.79
435.68	481.92
436.05	490.94
436.42	499.82
436.79	507.95
437.16	516.68
437.53	525.94
437.90	535.06
438.27	544.04
438.64	553.27
439.01	561.85
439.38	569.48
439.75	576.81
440.13	585.33
440.50	593.34
440.87	599.81
441.24	606.40
441.61	613.71
441.98	619.06
442.35	625.42
442.72	631.80
443.09	637.86
443.46	641.63
443.83	644.15
444.20	646.42
444.57	649.59
444.94	651.09
445.31	652.52
445.68	653.93
446.05	654.51
446.42	653.71
446.79	652.73
447.16	651.66
447.53	650.93
447.90	647.61
448.27	644.29
448.64	639.66
449.01	636.40
449.37	630.54
449.74	624.90
450.11	617.97
450.48	610.57
450.85	603.13
451.22	596.69
451.59	590.51
451.96	584.65
452.33	576.68
452.70	569.56
453.07	561.05
453.43	552.46
453.80	544.17
454.17	536.20
454.54	528.63
454.91	520.37
455.28	512.31
455.65	504.79
456.02	497.34
456.38	490.92
456.75	483.00
457.12	476.38
457.49	469.82
457.86	463.63
458.23	458.28
458.59	452.33
458.96	446.28
459.33	441.01
459.70	435.57
460.07	431.38
460.43	426.49
460.80	421.86
461.17	417.90
461.54	413.72
461.91	409.69
462.27	405.49
462.64	402.10
463.01	398.34
463.38	394.65
463.74	390.91
464.11	387.67
464.48	384.84
464.85	381.75
465.21	379.32
465.58	376.68
465.95	373.49
466.32	370.86
466.68	368.24
467.05	365.63
467.42	363.09
467.78	360.41
468.15	357.79
468.52	355.95
468.88	353.38
469.25	351.19
469.62	349.38
469.98	347.50
470.35	345.64
470.72	343.94
471.08	342.15
471.45	340.64
471.82	339.08
472.18	337.41
472.55	336.16
472.92	334.75
473.28	333.51
473.65	332.37
474.02	331.27
474.38	330.39
474.75	329.66
475.11	328.86
475.48	328.26
475.85	327.82
476.21	327.32
476.58	326.99
476.94	326.77
477.31	326.48
477.67	326.21
478.04	326.09
478.41	326.06
478.77	326.18
479.14	326.13
479.50	326.30
479.87	326.62
480.23	326.99
480.60	327.23
480.96	327.51
481.33	328.11
481.69	328.66
482.06	329.17
482.42	329.61
482.79	330.17
483.15	330.95
483.52	331.93
483.88	332.81
484.25	333.75
484.61	334.71
484.98	335.76
485.34	337.09
485.71	338.46
486.07	339.91
486.44	341.22
486.80	342.87
487.17	344.55
487.53	346.34
487.90	348.21
488.26	350.29
488.62	352.47
488.99	354.50
489.35	356.68
489.72	359.06
490.08	361.59
490.44	364.18
490.81	366.87
491.17	369.58
491.54	372.55
491.90	375.56
492.26	378.82
492.63	382.24
492.99	385.75
493.36	389.40
493.72	393.28
494.08	397.32
494.45	401.48
494.81	405.82
495.17	410.27
495.54	414.95
495.90	419.78
496.26	424.67
496.63	429.88
496.99	435.32
497.35	440.92
497.72	446.76
498.08	452.71
498.44	458.77
498.80	465.21
499.17	471.76
499.53	478.52
499.89	485.48
500.26	492.49
500.62	499.52
500.98	506.94
501.34	514.42
501.71	522.23
502.07	530.07
502.43	538.07
502.79	546.30
503.16	554.73
503.52	563.40
503.88	572.18
504.24	581.20
504.60	590.25
504.97	599.53
505.33	608.83
505.69	618.73
506.05	628.76
506.41	638.64
506.78	648.72
507.14	658.96
507.50	669.34
507.86	680.12
508.22	690.95
508.59	701.66
508.95	712.77
509.31	724.03
509.67	735.57
510.03	747.11
510.39	758.79
510.75	770.69
511.12	782.62
511.48	794.76
511.84	807.05
512.20	819.51
512.56	832.19
512.92	845.11
513.28	857.84
513.64	870.65
514.00	883.59
514.37	896.63
514.73	909.75
515.09	922.88
515.45	935.77
515.81	948.96
516.17	962.44
516.53	975.79
516.89	989.02
517.25	1002.27
517.61	1015.87
517.97	1029.47
518.33	1042.70
518.69	1056.34
519.05	1070.23
519.41	1084.01
519.77	1098.00
520.13	1111.41
520.49	1124.58
520.85	1138.01
521.21	1151.34
521.57	1165.11
521.93	1178.29
522.29	1192.23
522.65	1205.89
523.01	1219.61
523.37	1232.89
523.73	1246.24
524.09	1259.48
524.45	1273.06
524.81	1286.74
525.17	1300.24
525.53	1313.49
525.89	1326.89
526.25	1340.13
526.61	1353.00
526.97	1366.19
527.33	1379.21
527.68	1392.83
528.04	1406.44
528.40	1419.70
528.76	1433.26
529.12	1446.29
529.48	1459.66
529.84	1471.99
530.20	1484.97
530.56	1497.70
530.91	1511.10
531.27	1524.22
531.63	1537.00
531.99	1549.77
532.35	1562.12
532.71	1574.49
533.07	1587.46
533.42	1599.83
533.78	1611.98
534.14	1624.23
534.50	1635.66
534.86	1647.32
535.21	1658.21
535.57	1669.87
535.93	1681.30
536.29	1692.48
536.65	1703.99
537.00	1715.19
537.36	1726.79
537.72	1737.90
538.08	1749.48
538.44	1760.48
538.79	1771.62
539.15	1782.86
539.51	1793.76
539.87	1805.14
540.22	1816.09
540.58	1827.22
540.94	1838.21
541.29	1848.63
541.65	1858.46
542.01	1869.01
542.37	1879.15
542.72	1889.52
543.08	1899.28
543.44	1909.76
543.79	1919.23
544.15	1928.80
544.51	1938.82
544.87	1948.68
545.22	1957.97
545.58	1966.96
545.94	1975.92
546.29	1984.57
546.65	1992.96
547.01	2001.34
547.36	2009.23
547.72	2017.08
548.07	2024.68
548.43	2032.51
548.79	2040.46
549.14	2048.69
549.50	2057.18
549.86	2065.29
550.21	2072.62
550.57	2080.56
550.92	2087.49
551.28	2094.97
551.64	2102.25
551.99	2109.75
552.35	2117.12
552.70	2124.10
553.06	2130.71
553.41	2137.05
553.77	2143.59
554.13	2150.00
554.48	2157.07
554.84	2164.05
555.19	2170.76
555.55	2177.15
555.90	2183.58
556.26	2190.53
556.61	2196.69
556.97	2201.65
557.32	2207.45
557.68	2213.97
558.03	2219.65
558.39	2225.08
558.74	2231.14
559.10	2236.79
559.45	2242.43
559.81	2247.95
560.16	2253.39
560.52	2259.49
560.87	2265.96
561.23	2271.82
561.58	2278.43
561.94	2283.57
562.29	2288.30
562.64	2294.27
563.00	2300.00
563.35	2305.54
563.71	2311.27
564.06	2317.03
564.42	2322.94
564.77	2328.00
565.12	2333.33
565.48	2338.48
565.83	2344.02
566.19	2349.34
566.54	2354.65
566.89	2359.16
567.25	2363.72
567.60	2369.46
567.96	2374.43
568.31	2378.92
568.66	2383.10
569.02	2386.96
569.37	2390.77
569.72	2395.29
570.08	2398.71
570.43	2401.76
570.78	2404.82
571.14	2407.27
571.49	2410.33
571.84	2413.91
572.20	2416.86
572.55	2419.90
572.90	2422.24
573.26	2424.87
573.61	2427.46
573.96	2429.48
574.31	2431.68
574.67	2433.44
575.02	2434.17
575.37	2435.60
575.72	2436.31
576.08	2437.82
576.43	2437.84
576.78	2438.15
577.13	2439.48
577.49	2440.78
577.84	2441.86
578.19	2443.07
578.54	2443.54
578.90	2444.10
579.25	2443.77
579.60	2443.55
579.95	2442.65
580.30	2442.63
580.66	2441.91
581.01	2440.10
581.36	2437.68
581.71	2436.03
582.06	2434.76
582.42	2433.64
582.77	2431.31
583.12	2429.59
583.47	2428.26
583.82	2427.73
584.17	2426.56
584.53	2424.43
584.88	2422.17
585.23	2420.05
585.58	2417.64
585.93	2415.55
586.28	2413.26
586.63	2410.73
586.98	2408.37
587.34	2406.30
587.69	2403.72
588.04	2401.48
588.39	2400.01
588.74	2397.56
589.09	2394.69
589.44	2391.57
589.79	2389.10
590.14	2387.04
590.49	2384.19
590.84	2380.21
591.19	2376.98
591.54	2373.70
591.89	2369.60
592.25	2366.40
592.60	2362.16
592.95	2358.01
593.30	2353.82
593.65	2349.32
594.00	2344.78
594.35	2341.67
594.70	2336.79
595.05	2332.16
595.40	2326.65
595.75	2320.73
596.10	2316.90
596.45	2312.07
596.80	2307.37
597.15	2302.31
597.50	2296.36
597.85	2291.41
598.19	2286.06
598.54	2280.20
598.89	2274.84
599.24	2270.21
599.59	2263.83
599.94	2257.99
600.29	2252.04
600.64	2246.08
600.99	2239.15
601.34	2233.75
601.69	2226.92
602.04	2220.58
602.39	2213.84
602.74	2207.72
603.08	2202.16
603.43	2195.74
603.78	2188.81
604.13	2181.74
604.48	2174.18
604.83	2168.04
605.18	2161.67
605.53	2154.69
605.87	2147.61
606.22	2140.76
606.57	2132.78
606.92	2124.79
607.27	2117.78
607.62	2110.97
607.96	2103.88
608.31	2097.57
608.66	2089.69
609.01	2081.93
609.36	2074.83
609.70	2067.11
610.05	2059.37
610.40	2051.05
610.75	2042.61
611.10	2034.88
611.44	2025.94
611.79	2017.26
612.14	2007.33
612.49	1996.49
612.83	1987.12
613.18	1977.88
613.53	1968.54
613.88	1958.98
614.22	1950.37
614.57	1940.50
614.92	1929.90
615.27	1919.56
615.61	1909.28
615.96	1899.62
616.31	1889.93
616.65	1880.43
617.00	1870.70
617.35	1860.92
617.70	1851.10
618.04	1841.18
618.39	1831.07
618.74	1821.39
619.08	1811.80
619.43	1803.06
619.78	1794.97
620.12	1786.41
620.47	1776.68
620.82	1766.30
621.16	1756.34
621.51	1746.37
621.85	1736.40
622.20	1726.14
622.55	1715.63
622.89	1705.81
623.24	1696.03
623.59	1686.29
623.93	1676.09
624.28	1666.25
624.62	1656.19
624.97	1645.95
625.32	1635.95
625.66	1626.98
626.01	1618.21
626.35	1608.80
626.70	1598.61
627.04	1588.41
627.39	1578.16
627.73	1569.01
628.08	1559.99
628.43	1550.51
628.77	1541.25
629.12	1532.42
629.46	1524.57
629.81	1516.22
630.15	1506.67
630.50	1496.91
630.84	1486.39
631.19	1476.63
631.53	1467.32
631.88	1457.20
632.22	1447.19
632.57	1437.86
632.91	1427.80
633.26	1417.90
633.60	1408.31
633.95	1399.02
634.29	1389.51
634.64	1380.21
634.98	1370.16
635.32	1360.83
635.67	1352.36
636.01	1343.10
636.36	1333.35
636.70	1323.75
637.05	1314.44
637.39	1305.47
637.73	1296.72
638.08	1289.14
638.42	1280.91
638.77	1272.17
639.11	1263.88
639.45	1256.07
639.80	1247.63
640.14	1238.79
640.49	1229.94
640.83	1221.10
641.17	1212.88
641.52	1204.77
641.86	1196.21
642.20	1188.30
642.55	1179.61
642.89	1170.70
643.23	1161.98
643.58	1153.84
643.92	1144.76
644.26	1136.03
644.61	1127.65
644.95	1118.87
645.29	1109.62
645.64	1100.40
645.98	1091.89
646.32	1083.95
646.66	1075.39
647.01	1066.97
647.35	1058.83
647.69	1050.50
648.04	1042.23
648.38	1033.38
648.72	1024.53
649.06	1015.97
649.41	1007.77
649.75	999.94
650.09	992.03
650.43	983.97
650.78	975.67
651.12	968.05
651.46	960.48
651.80	953.14
652.14	945.81
652.49	938.24
652.83	930.89
653.17	923.14
653.51	915.41
653.85	908.14
654.20	900.83
654.54	893.31
654.88	885.96
655.22	878.60
655.56	871.54
655.90	864.71
656.25	858.05
656.59	851.16
656.93	843.99
657.27	836.85
657.61	829.89
657.95	823.73
658.29	817.64
658.64	811.53
658.98	805.06
659.32	798.42
659.66	792.14
660.00	785.74
660.34	779.61
660.68	773.48
661.02	767.05
661.36	761.08
661.70	755.21
662.05	749.64
662.39	744.19
662.73	738.75
663.07	733.30
663.41	727.63
663.75	721.84
664.09	716.14
664.43	710.66
664.77	705.29
665.11	699.39
665.45	693.51
665.79	687.59
666.13	681.85
666.47	676.37
666.81	670.91
667.15	665.43
667.49	660.18
667.83	654.92
668.17	649.64
668.51	644.47
668.85	639.59
669.19	634.64
669.53	629.60
669.87	624.45
670.21	619.65
670.55	614.94
670.89	610.42
671.23	606.15
671.57	601.70
671.91	597.33
672.25	593.21
672.58	588.99
672.92	584.96
673.26	580.98
673.60	577.05
673.94	573.15
674.28	569.54
674.62	565.75
674.96	561.89
675.30	558.39
675.64	554.66
675.97	551.00
676.31	547.34
676.65	543.65
676.99	540.21
677.33	536.31
677.67	532.62
678.01	528.80
678.34	525.03
678.68	521.46
679.02	517.87
679.36	514.15
679.70	510.47
680.04	506.89
680.37	503.39
680.71	500.03
681.05	496.82
681.39	493.47
681.73	490.27
682.06	487.23
682.40	484.09
682.74	480.90
683.08	477.68
683.42	474.39
683.75	471.35
684.09	468.25
684.43	465.48
684.77	462.51
685.10	459.61
685.44	456.68
685.78	453.75
686.12	450.91
686.45	448.13
686.79	445.44
687.13	442.84
687.46	440.20
687.80	437.46
688.14	434.56
688.48	431.93
688.81	429.19
689.15	426.62
689.49	423.98
689.82	421.38
690.16	418.78
690.50	416.33
690.83	413.81
691.17	411.23
691.51	408.69
691.84	406.33
692.18	404.05
692.52	401.81
692.85	399.61
693.19	397.44
693.52	395.22
693.86	392.99
694.20	390.80
694.53	388.62
694.87	386.41
695.21	384.28
695.54	382.10
695.88	379.91
696.21	377.66
696.55	375.49
696.88	373.42
697.22	371.39
697.56	369.44
697.89	367.48
698.23	365.71
698.56	363.91
698.90	362.19
699.23	360.29
699.57	358.38
699.90	356.47
700.24	354.64
700.58	352.86
700.91	351.19
701.25	349.58
701.58	347.92
701.92	346.31
702.25	344.70
702.59	343.05
702.92	341.49
703.26	339.92
703.59	338.43
703.93	337.12
704.26	335.63
704.60	334.09
704.93	332.59
705.26	331.09
705.60	329.60
705.93	328.04
706.27	326.68
706.60	325.40
706.94	324.14
707.27	322.71
707.61	321.32
707.94	319.94
708.27	318.38
708.61	316.88
708.94	315.49
709.28	314.18
709.61	312.92
709.94	311.65
710.28	310.40
710.61	309.19
710.95	307.75
711.28	306.68
711.61	305.48
711.95	304.34
712.28	303.10
712.61	301.85
712.95	300.75
713.28	299.71
713.61	298.55
713.95	297.39
714.28	296.37
714.61	295.30
714.95	294.25
715.28	293.22
715.61	292.21
715.95	291.25
716.28	290.23
716.61	289.26
716.95	288.30
717.28	287.34
717.61	286.34
717.94	285.43
718.28	284.36
718.61	283.47
718.94	282.60
719.27	281.71
719.61	280.92
719.94	280.06
720.27	279.04
720.60	278.18
720.94	277.36
721.27	276.59
721.60	275.93
721.93	275.19
722.27	274.55
722.60	273.87
722.93	273.16
723.26	272.49
723.59	271.79
723.93	271.14
724.26	270.46
724.59	269.79
724.92	269.19
725.25	268.61
725.59	268.02
725.92	267.44
726.25	266.87
726.58	266.26
726.91	265.64
727.24	265.10
727.57	264.53
727.91	263.95
728.24	263.38
728.57	262.78
728.90	262.21
729.23	261.57
729.56	261.11
729.89	260.53
730.22	259.94
730.55	259.38
730.89	258.85
731.22	258.36
731.55	257.85
731.88	257.34
732.21	256.82
732.54	256.28
732.87	255.76
733.20	255.26
733.53	254.82
733.86	254.39
734.19	253.88
734.52	253.44
734.85	253.11
735.18	252.60
735.51	252.19
735.84	251.74
736.17	251.36
736.50	250.87
736.83	250.72
737.16	250.37
737.49	249.99
737.82	249.52
738.15	249.11
738.48	248.69
738.81	248.27
739.14	247.85
739.47	247.46
739.80	247.03
740.13	246.71
740.46	246.28
740.79	245.87
741.12	245.52
741.45	245.16
741.78	244.73
742.11	244.46
742.44	244.08
742.77	243.79
743.10	243.44
743.43	243.07
743.75	242.51
744.08	242.39
744.41	242.01
744.74	241.68
745.07	241.32
745.40	241.04
745.73	240.75
746.06	240.43
746.39	240.13
746.71	239.82
747.04	239.44
747.37	239.10
747.70	238.81
748.03	238.49
748.36	238.20
748.68	237.85
749.01	237.49
749.34	237.22
749.67	236.92
750.00	236.66
750.33	236.52
750.65	236.23
750.98	235.74
751.31	235.50
751.64	235.29
751.97	235.13
752.29	234.88
752.62	234.57
752.95	234.29
753.28	234.05
753.60	233.81
753.93	233.66
754.26	233.44
754.59	233.16
754.91	232.93
755.24	232.69
755.57	232.49
755.90	232.26
756.22	231.99
756.55	231.70
756.88	231.44
757.20	231.08
757.53	230.86
757.86	230.65
758.19	230.46
758.51	230.26
758.84	229.95
759.17	229.72
759.49	229.54
759.82	229.48
760.15	229.31
760.47	229.10
760.80	228.84
761.13	228.68
761.45	228.50
761.78	228.34
762.11	228.13
762.43	227.95
762.76	227.78
763.08	227.64
763.41	227.51
763.74	227.35
764.06	227.20
764.39	227.04
764.71	226.87
765.04	226.69
765.37	226.51
765.69	226.38
766.02	226.23
766.34	226.07
766.67	225.82
767.00	225.73
767.32	225.73
767.65	225.70
767.97	225.54
768.30	225.47
768.62	225.33
768.95	225.21
769.27	225.07
769.60	224.99
769.92	224.83
770.25	224.68
770.57	224.53
770.90	224.42
771.22	224.26
771.55	224.14
771.87	223.99
772.20	223.88
772.52	223.95
772.85	224.10
773.17	223.99
773.50	223.89
773.82	223.73
774.15	223.50
774.47	223.29
774.80	223.17
775.12	223.01
775.45	222.89
775.77	222.81
776.09	222.70
776.42	222.59
776.74	222.57
777.07	222.48
777.39	222.42
777.72	222.30
778.04	222.23
778.36	222.13
778.69	222.09
779.01	222.03
779.33	221.74
779.66	221.42
779.98	221.32
780.31	221.24
780.63	221.23
780.95	221.18
781.28	221.11
781.60	221.01
781.92	220.95
782.25	220.89
782.57	220.79
782.89	220.72
783.22	220.63
783.54	220.48
783.86	220.41
784.19	220.33
784.51	220.31
784.83	220.25
785.16	220.19
785.48	220.13
785.80	220.05
786.12	220.02
786.45	219.94
786.77	219.91
787.09	219.84
787.42	219.70
787.74	219.66
788.06	219.61
788.38	219.56
788.71	219.51
789.03	219.42
789.35	219.41
789.67	219.32
789.99	219.32
790.32	219.28
790.64	219.27
790.96	219.40
791.28	219.32
791.61	219.28
791.93	219.24
792.25	219.19
792.57	219.32
792.89	219.23
793.21	219.21
793.54	219.13
793.86	219.08
794.18	219.05
794.50	218.97
794.82	218.93
795.14	218.93
795.47	218.90
795.79	218.91
796.11	218.83
796.43	218.83
796.75	218.76
797.07	218.71
797.39	218.66
797.71	218.46
798.04	218.44
798.36	218.37
798.68	218.30
799.00	218.27
799.32	218.10
799.64	218.12
799.96	218.07
800.28	218.10
800.60	218.06
800.92	218.02
801.24	217.97
801.56	217.95
801.89	217.88
802.21	217.86
802.53	217.78
802.85	217.78
803.17	217.84
803.49	217.77
803.81	217.73
804.13	217.65
804.45	217.61
804.77	217.59
805.09	217.59
805.41	217.57
805.73	217.48
806.05	217.38
806.37	217.34
806.69	217.27
807.01	217.22
807.33	217.19
807.65	217.12
807.97	217.18
808.28	217.11
808.60	217.07
808.92	217.04
809.24	217.16
809.56	217.09
809.88	216.96
810.20	216.96
810.52	216.98
810.84	216.93
811.16	216.90
811.48	216.86
811.80	216.88
812.12	216.84
812.43	216.87
812.75	216.88
813.07	216.82
813.39	216.80
813.71	216.75
814.03	216.71
814.35	216.66
814.67	216.54
814.98	216.53
815.30	216.50
815.62	216.42
815.94	216.23
816.26	216.23
816.58	216.20
816.89	216.17
817.21	216.12
817.53	216.10
817.85	216.07
818.17	216.03
818.48	215.93
818.80	215.96
819.12	215.90
819.44	215.83
819.76	215.79
820.07	215.81
820.39	215.78
820.71	215.79
821.03	215.79
821.34	215.78
821.66	215.79
821.98	215.82
822.30	215.80
822.61	215.93
822.93	215.92
823.25	215.89
823.57	215.83
823.88	215.86
824.20	215.88
824.52	215.90
824.83	215.87
825.15	215.85
825.47	215.81
825.79	215.84
826.10	215.81
826.42	215.82
826.74	215.83
827.05	215.82
827.37	215.82
827.69	215.82
828.00	215.81
828.32	215.77
828.64	215.72
828.95	215.82
829.27	215.73
829.58	215.68
829.90	215.72
830.22	215.73
830.53	215.69
830.85	215.66
831.17	215.60
831.48	215.61
831.80	215.58
832.11	215.59
832.43	215.51
832.75	215.53
833.06	215.61
833.38	215.52
833.69	215.53
834.01	215.50
834.32	215.47
834.64	215.45
834.96	215.43
835.27	215.41
835.59	215.34
835.90	215.31
836.22	215.33
836.53	215.27
836.85	215.26
837.16	215.44
837.48	215.43
837.79	215.47
838.11	215.47
838.42	215.50
838.74	215.49
839.05	215.49
839.37	215.49
839.68	215.35
840.00	215.36
840.31	215.35
840.63	215.34
840.94	215.32
841.26	215.30
841.57	215.31
841.88	215.34
842.20	215.31
842.51	215.24
842.83	215.21
843.14	215.41
843.46	215.42
843.77	215.25
844.08	215.26
844.40	215.19
844.71	215.18
845.03	215.16
845.34	215.16
845.65	215.15
845.97	215.10
846.28	215.16
846.60	215.15
846.91	215.09
847.22	215.06
847.54	215.09
847.85	215.10
848.16	215.05
848.48	215.00
848.79	215.08
849.10	215.15
849.42	215.15
849.73	214.92
850.04	214.88
850.36	214.83
850.67	214.86
850.98	214.89
851.30	214.85
851.61	214.83
851.92	214.79
852.23	214.85
852.55	214.90
852.86	214.87
853.17	214.88
853.49	214.94
853.80	214.99
854.11	214.99
854.42	214.97
854.74	214.99
855.05	214.98
855.36	214.87
855.67	214.85
855.99	214.83
856.30	215.07
856.61	215.04
856.92	215.03
857.23	214.99
857.55	214.94
857.86	214.93
858.17	214.99
858.48	214.96
858.79	214.91
859.11	214.88
859.42	214.85
859.73	214.82
860.04	214.80
860.35	214.73
860.66	214.68
860.98	214.70
861.29	214.73
861.60	214.72
861.91	214.74
862.22	214.71
862.53	214.67
862.84	214.43
863.16	214.49
863.47	214.48
863.78	214.47
864.09	214.50
864.40	214.53
864.71	214.49
865.02	214.49
865.33	214.49
865.64	214.46
865.95	214.46
866.27	214.60
866.58	214.60
866.89	214.62
867.20	214.61
867.51	214.56
867.82	214.51
868.13	214.55
868.44	214.51
868.75	214.58
869.06	214.61
869.37	214.61
869.68	214.54
869.99	214.57
870.30	214.57
870.61	214.56
870.92	214.51
871.23	214.50
871.54	214.52
871.85	214.55
872.16	214.57
872.47	214.54
872.78	214.42
873.09	214.41
873.40	214.39
873.71	214.41
874.02	214.44
874.33	214.42
874.64	214.39
874.95	214.42
875.26	214.33
875.56	214.32
875.87	214.32
876.18	214.33
876.49	214.55
876.80	214.54
877.11	214.52
877.42	214.53
877.73	214.56
878.04	214.54
878.35	214.52
878.66	214.50
878.96	214.52
879.27	214.54
879.58	214.51
879.89	214.51
880.20	214.57
880.51	214.56
880.82	214.57
881.12	214.60
881.43	214.57
881.74	214.55
882.05	214.56
882.36	214.59
882.67	214.60
882.97	214.33
883.28	214.30
883.59	214.32
883.90	214.32
884.21	214.35
884.51	214.32
884.82	214.33
885.13	214.37
885.44	214.34
885.74	214.31
886.05	214.31
886.36	214.30
886.67	214.22
886.98	214.32
887.28	214.36
887.59	214.33
887.90	214.37
888.20	214.40
888.51	214.45
888.82	214.37
889.13	214.37
889.43	214.57
889.74	214.56
890.05	214.53
890.35	214.54
890.66	214.45
890.97	214.49
891.28	214.44
891.58	214.41
891.89	214.45
892.20	214.42
892.50	214.46
892.81	214.45
893.12	214.44
893.42	214.34
893.73	214.34
894.04	214.35
894.34	214.35
894.65	214.32
894.95	214.29
895.26	214.31
895.57	214.42
895.87	214.21
896.18	214.23
896.48	214.27
896.79	214.29
897.10	214.36
897.40	214.35
897.71	214.39
898.01	214.37
898.32	214.39
898.63	214.43
898.93	214.41
899.24	214.42
899.54	214.39
899.85	214.36
900.15	214.32
900.46	214.31
900.76	214.34
901.07	214.34
901.38	214.31
901.68	214.33
901.99	214.22
902.29	214.24
902.60	214.24
902.90	214.18
903.21	214.15
903.51	214.14
903.82	214.16
904.12	214.15
904.43	214.18
904.73	214.13
905.03	214.16
905.34	214.34
905.64	214.33
905.95	214.39
906.25	214.41
906.56	214.45
906.86	214.46
907.17	214.45
907.47	214.48
907.77	214.46
908.08	214.42
908.38	214.45
908.69	214.44
908.99	214.45
909.30	214.51
909.60	214.52
909.90	214.48
910.21	214.43
910.51	214.41
910.81	214.39
911.12	214.43
911.42	214.42
911.73	214.21
912.03	214.22
912.33	214.21
912.64	214.21
912.94	214.18
913.24	214.16
913.55	214.15
913.85	214.11
914.15	214.15
914.46	214.14
914.76	214.14
915.06	214.16
915.37	214.13
915.67	214.11
915.97	214.11
916.27	214.04
916.58	214.06
916.88	214.06
917.18	214.04
917.49	214.16
917.79	214.14
918.09	214.18
918.39	214.24
918.70	214.24
919.00	214.22
919.30	214.31
919.60	214.30
919.91	214.25
920.21	214.25
920.51	214.21
920.81	214.21
921.12	214.23
921.42	214.23
921.72	214.24
922.02	214.28
922.32	214.32
922.63	214.39
922.93	214.49
923.23	214.52
923.53	214.53
923.83	214.41
924.13	214.41
924.44	214.39
924.74	214.40
925.04	214.44
925.34	214.45
925.64	214.36
925.94	214.38
926.24	214.50
926.55	214.49
926.85	214.53
927.15	214.53
927.45	214.50
927.75	214.50
928.05	214.52
928.35	214.50
928.65	214.50
928.95	214.51
929.26	214.41
929.56	214.45
929.86	214.44
930.16	214.43
930.46	214.43
930.76	214.45
931.06	214.37
931.36	214.32
931.66	214.35
931.96	214.36
932.26	214.35
932.56	214.26
932.86	214.28
933.16	214.27
933.46	214.24
933.76	214.22
934.06	214.25
934.36	214.30
934.66	214.27
934.96	214.26
935.26	214.24
935.56	214.28
935.86	214.24
936.16	214.23
936.46	214.20
936.76	214.16
937.06	214.09
937.36	214.11
937.66	214.11
937.96	214.10
938.26	214.06
938.56	214.03
938.86	214.03
939.16	214.08
939.46	214.07
939.76	214.11
940.06	214.09
940.35	214.04
940.65	213.94
940.95	213.95
941.25	213.89
941.55	213.86
941.85	213.82
942.15	213.85
942.45	213.89
942.75	213.87
943.04	213.90
943.34	213.99
943.64	213.94
943.94	213.90
944.24	213.91
944.54	213.93
944.84	213.94
945.13	213.92
945.43	213.88
945.73	213.88
946.03	213.87
946.33	213.85
946.62	213.82
946.92	213.83
947.22	213.84
947.52	213.85
947.82	213.89
948.11	213.89
948.41	213.84
948.71	213.79
949.01	213.82
949.31	213.83
949.60	213.77
949.90	213.85
950.20	213.85
950.50	213.84
950.79	213.81
951.09	213.84
951.39	213.86
951.69	213.85
951.98	213.88
952.28	213.88
952.58	213.89
952.87	213.94
953.17	213.95
953.47	213.95
953.76	213.96
954.06	213.95
954.36	213.92
954.66	213.94
954.95	214.01
955.25	214.03
955.55	214.04
955.84	214.01
956.14	214.00
956.44	214.00
956.73	213.97
957.03	213.98
957.32	213.97
957.62	213.96
957.92	213.98
958.21	213.99
958.51	214.26
958.81	214.27
959.10	214.30
959.40	214.36
959.69	214.36
959.99	214.39
960.29	214.41
960.58	214.37
960.88	214.45
961.17	214.40
961.47	214.39
961.76	214.36
962.06	214.40
962.36	214.41
962.65	214.44
962.95	214.47
963.24	214.48
963.54	214.50
963.83	214.52
964.13	214.49
964.42	214.42
964.72	214.24
965.01	214.24
965.31	214.19
965.60	214.11
965.90	214.23
966.19	214.17
966.49	214.15
966.78	214.20
967.08	214.14
967.37	214.15
967.67	214.14
967.96	214.19
968.26	214.18
968.55	214.18
968.85	214.15
969.14	214.13
969.43	214.12
969.73	214.09
970.02	214.11
970.32	214.11
970.61	214.09
970.91	214.04
971.20	214.03
971.49	214.00
971.79	214.02
972.08	213.88
972.38	213.93
972.67	213.93
972.96	213.93
973.26	213.90
973.55	213.97
973.85	213.97
974.14	213.92
974.43	213.95
974.73	213.93
975.02	213.90
975.31	213.91
975.61	213.88
975.90	213.86
976.19	213.84
976.49	213.85
976.78	213.88
977.07	213.86
977.37	213.88
977.66	213.93
977.95	213.91
978.24	213.92
978.54	213.94
978.83	213.92
979.12	213.92
979.42	213.91
979.71	213.88
980.00	213.89
980.29	213.91
980.59	213.87
980.88	213.91
981.17	213.92
981.46	213.93
981.76	213.95
982.05	214.03
982.34	214.05
982.63	214.05
982.93	214.03
983.22	214.11
983.51	214.11
983.80	214.14
984.09	214.18
984.39	214.17
984.68	214.18
984.97	214.17
985.26	214.15
985.55	214.16
985.85	214.09
986.14	214.10
986.43	214.11
986.72	214.11
987.01	214.02
987.30	214.02
987.59	214.01
987.89	214.03
988.18	213.96
988.47	213.92
988.76	213.90
989.05	213.91
989.34	213.84
989.63	213.88
989.92	213.87
990.22	213.82
990.51	213.85
990.80	213.78
991.09	213.80
991.38	213.85
991.67	213.88
991.96	213.89
992.25	213.89
992.54	213.84
992.83	213.84
993.12	213.87
993.41	213.92
993.70	213.96
993.99	214.00
994.28	214.02
994.58	214.06
994.87	214.07
995.16	214.09
995.45	214.06
995.74	213.98
996.03	214.01
996.32	214.04
996.61	214.07
996.90	214.09
997.19	214.08
997.48	214.06
997.77	214.03
998.06	214.03
998.34	214.04
998.63	214.07
998.92	214.06
999.21	214.09
999.50	214.07
999.79	214.00
1000.08	213.95
1000.37	213.95
1000.66	213.94
1000.95	213.96
1001.24	213.93
1001.53	213.99
1001.82	213.98
1002.11	213.91
1002.40	213.94
1002.68	213.99
1002.97	214.12
1003.26	214.10
1003.55	214.07
1003.84	214.09
1004.13	214.18
1004.42	214.12
1004.71	214.11
1004.99	214.11
1005.28	214.15
1005.57	214.13
1005.86	214.16
1006.15	214.19
1006.44	214.16
1006.72	214.19
1007.01	214.17
1007.30	214.17
1007.59	214.14
1007.88	214.15
1008.17	214.21
1008.45	214.16
1008.74	214.04
1009.03	213.96
1009.32	213.97
1009.60	213.97
1009.89	213.97
1010.18	213.87
1010.47	213.87
1010.76	213.87
1011.04	213.88
1011.33	213.94
1011.62	213.97
1011.91	213.98
1012.19	213.95
1012.48	213.97
1012.77	213.95
1013.05	214.04
1013.34	214.06
1013.63	214.06
1013.92	214.06
1014.20	214.03
1014.49	214.06
1014.78	214.11
1015.06	214.03
1015.35	214.03
1015.64	214.05
1015.92	214.04
1016.21	214.07
1016.50	214.08
1016.78	214.10
1017.07	214.12
1017.36	214.00
1017.64	213.98
1017.93	213.96
1018.22	213.94
1018.50	213.94
1018.79	213.93
1019.08	213.86
1019.36	213.85
1019.65	213.84
1019.93	213.89
1020.22	213.94
1020.51	214.04
1020.79	214.02
1021.08	213.41
1021.36	213.66
1021.65	213.83
1021.94	214.22
1022.22	213.84
1022.51	213.92
1022.79	214.82
1023.08	214.42
1023.36	216.58
1023.65	213.70
>>>>>End Processed Spectral Data<<<<<
