SpectraSuite Data File
++++++++++++++++++++++++++++++++++++
Date: Tue Jan 29 16:15:58 EST 2013
User: group
Dark Spectrum Present: No
Reference Spectrum Present: No
Number of Sampled Component Spectra: 1
Spectrometers: USB2E7196
Integration Time (usec): 65000 (USB2E7196)
Spectra Averaged: 100 (USB2E7196)
Boxcar Smoothing: 10 (USB2E7196)
Correct for Electrical Dark: No (USB2E7196)
Strobe/Lamp Enabled: No (USB2E7196)
Correct for Detector Non-linearity: No (USB2E7196)
Correct for Stray Light: No (USB2E7196)
Number of Pixels in Processed Spectrum: 2048
>>>>>Begin Processed Spectral Data<<<<<
339.09	0.00
339.48	202.38
339.86	203.67
340.24	205.48
340.63	206.85
341.01	211.42
341.39	209.87
341.78	210.61
342.16	212.36
342.54	213.05
342.93	201.75
343.31	211.92
343.69	212.48
344.07	212.97
344.46	213.45
344.84	213.86
345.22	214.02
345.60	214.29
345.99	214.50
346.37	214.63
346.75	214.72
347.13	214.77
347.52	214.85
347.90	214.97
348.28	215.01
348.66	215.09
349.05	215.07
349.43	215.14
349.81	215.17
350.19	215.18
350.57	215.23
350.96	215.27
351.34	215.39
351.72	215.46
352.10	215.59
352.48	215.61
352.87	215.63
353.25	215.70
353.63	215.75
354.01	215.82
354.39	215.90
354.77	216.00
355.15	216.11
355.54	216.18
355.92	216.19
356.30	216.27
356.68	216.46
357.06	216.54
357.44	216.57
357.82	216.64
358.20	216.75
358.58	216.83
358.97	216.92
359.35	217.02
359.73	217.10
360.11	217.14
360.49	217.21
360.87	217.25
361.25	217.34
361.63	217.46
362.01	217.50
362.39	217.54
362.77	217.57
363.15	217.61
363.53	217.62
363.91	217.68
364.29	217.67
364.67	217.50
365.05	217.52
365.43	217.58
365.81	217.64
366.19	217.75
366.57	217.86
366.95	217.85
367.33	217.85
367.71	217.85
368.09	217.87
368.47	217.87
368.85	217.87
369.23	217.91
369.61	217.82
369.99	217.91
370.37	217.91
370.75	218.01
371.13	217.93
371.51	217.91
371.89	217.92
372.27	217.93
372.65	217.95
373.03	217.92
373.41	217.85
373.78	217.80
374.16	217.66
374.54	217.54
374.92	217.49
375.30	217.41
375.68	217.33
376.06	217.33
376.44	217.28
376.82	217.24
377.19	217.18
377.57	217.14
377.95	216.99
378.33	216.92
378.71	216.73
379.09	216.75
379.47	216.75
379.84	216.65
380.22	216.56
380.60	216.44
380.98	216.39
381.36	216.35
381.73	216.30
382.11	216.29
382.49	216.22
382.87	216.15
383.25	216.11
383.62	216.34
384.00	216.26
384.38	216.23
384.76	216.26
385.13	216.32
385.51	216.26
385.89	216.21
386.27	216.18
386.64	216.18
387.02	216.13
387.40	216.04
387.78	216.03
388.15	216.06
388.53	216.03
388.91	216.03
389.29	216.00
389.66	216.04
390.04	215.99
390.42	216.02
390.79	216.02
391.17	216.03
391.55	215.80
391.92	215.76
392.30	215.75
392.68	215.67
393.05	215.61
393.43	215.62
393.81	215.65
394.18	215.60
394.56	215.62
394.94	215.66
395.31	215.70
395.69	215.78
396.06	215.79
396.44	215.84
396.82	215.81
397.19	215.95
397.57	215.90
397.95	215.98
398.32	215.95
398.70	216.02
399.07	216.09
399.45	216.11
399.82	216.16
400.20	216.17
400.58	216.23
400.95	216.21
401.33	216.31
401.70	216.52
402.08	216.62
402.45	216.67
402.83	216.79
403.20	216.89
403.58	216.94
403.95	217.07
404.33	217.19
404.71	217.35
405.08	217.58
405.46	217.76
405.83	217.94
406.21	218.18
406.58	218.42
406.96	218.62
407.33	218.85
407.70	219.15
408.08	219.61
408.45	219.97
408.83	220.34
409.20	220.67
409.58	220.92
409.95	221.37
410.33	221.85
410.70	222.27
411.08	222.82
411.45	223.39
411.82	223.92
412.20	224.63
412.57	225.45
412.95	225.95
413.32	226.75
413.69	227.55
414.07	228.43
414.44	229.34
414.82	230.30
415.19	231.46
415.56	232.59
415.94	233.74
416.31	235.10
416.68	236.49
417.06	238.06
417.43	239.59
417.81	241.30
418.18	243.06
418.55	244.92
418.93	246.86
419.30	248.91
419.67	251.11
420.04	253.31
420.42	255.60
420.79	258.37
421.16	261.09
421.54	263.90
421.91	266.75
422.28	269.76
422.66	272.95
423.03	276.10
423.40	279.37
423.77	282.86
424.15	286.39
424.52	290.07
424.89	294.14
425.26	298.07
425.64	301.82
426.01	305.93
426.38	310.30
426.75	314.69
427.13	319.26
427.50	324.06
427.87	329.09
428.24	334.13
428.61	338.91
428.99	344.26
429.36	350.05
429.73	355.81
430.10	361.48
430.47	367.38
430.85	373.53
431.22	380.01
431.59	386.87
431.96	393.48
432.33	400.68
432.70	407.63
433.08	415.88
433.45	423.66
433.82	431.40
434.19	439.93
434.56	448.34
434.93	456.37
435.30	464.31
435.68	473.11
436.05	481.72
436.42	490.31
436.79	498.08
437.16	506.60
437.53	515.49
437.90	524.30
438.27	532.97
438.64	541.87
439.01	550.07
439.38	557.38
439.75	564.42
440.13	572.62
440.50	580.28
440.87	586.39
441.24	592.81
441.61	599.88
441.98	604.98
442.35	611.09
442.72	617.16
443.09	623.01
443.46	626.61
443.83	629.04
444.20	631.16
444.57	634.25
444.94	635.55
445.31	636.93
445.68	638.32
446.05	638.85
446.42	638.06
446.79	637.12
447.16	636.03
447.53	635.29
447.90	632.09
448.27	628.89
448.64	624.47
449.01	621.22
449.37	615.51
449.74	610.10
450.11	603.39
450.48	596.30
450.85	589.07
451.22	582.74
451.59	576.90
451.96	571.31
452.33	563.74
452.70	557.01
453.07	548.82
453.43	540.46
453.80	532.42
454.17	524.69
454.54	517.43
454.91	509.58
455.28	501.91
455.65	494.75
456.02	487.59
456.38	481.50
456.75	473.97
457.12	467.66
457.49	461.45
457.86	455.55
458.23	450.39
458.59	444.74
458.96	439.04
459.33	433.92
459.70	428.74
460.07	424.64
460.43	419.88
460.80	415.50
461.17	411.66
461.54	407.67
461.91	403.78
462.27	399.86
462.64	396.54
463.01	392.89
463.38	389.32
463.74	385.68
464.11	382.54
464.48	379.72
464.85	376.72
465.21	374.39
465.58	371.85
465.95	368.80
466.32	366.30
466.68	363.82
467.05	361.32
467.42	358.87
467.78	356.24
468.15	353.77
468.52	351.96
468.88	349.58
469.25	347.43
469.62	345.74
469.98	343.86
470.35	342.09
470.72	340.46
471.08	338.74
471.45	337.39
471.82	335.96
472.18	334.39
472.55	333.26
472.92	331.90
473.28	330.71
473.65	329.65
474.02	328.54
474.38	327.68
474.75	327.01
475.11	326.23
475.48	325.70
475.85	325.23
476.21	324.79
476.58	324.47
476.94	324.31
477.31	324.03
477.67	323.80
478.04	323.68
478.41	323.64
478.77	323.85
479.14	323.77
479.50	323.90
479.87	324.24
480.23	324.58
480.60	324.83
480.96	325.13
481.33	325.68
481.69	326.26
482.06	326.81
482.42	327.28
482.79	327.86
483.15	328.73
483.52	329.70
483.88	330.59
484.25	331.59
484.61	332.60
484.98	333.71
485.34	335.03
485.71	336.42
486.07	337.86
486.44	339.15
486.80	340.78
487.17	342.42
487.53	344.26
487.90	346.13
488.26	348.17
488.62	350.37
488.99	352.49
489.35	354.68
489.72	357.02
490.08	359.53
490.44	362.10
490.81	364.72
491.17	367.45
491.54	370.37
491.90	373.39
492.26	376.58
492.63	379.92
492.99	383.36
493.36	387.04
493.72	390.89
494.08	394.91
494.45	399.08
494.81	403.44
495.17	407.77
495.54	412.45
495.90	417.25
496.26	422.12
496.63	427.25
496.99	432.63
497.35	438.22
497.72	443.99
498.08	449.91
498.44	456.04
498.80	462.43
499.17	468.91
499.53	475.59
499.89	482.44
500.26	489.33
500.62	496.43
500.98	503.80
501.34	511.33
501.71	519.03
502.07	526.88
502.43	534.80
502.79	542.97
503.16	551.26
503.52	559.79
503.88	568.46
504.24	577.41
504.60	586.36
504.97	595.59
505.33	604.82
505.69	614.60
506.05	624.43
506.41	634.17
506.78	644.18
507.14	654.31
507.50	664.72
507.86	675.36
508.22	686.05
508.59	696.66
508.95	707.62
509.31	718.77
509.67	730.12
510.03	741.46
510.39	753.06
510.75	764.83
511.12	776.65
511.48	788.58
511.84	800.66
512.20	812.92
512.56	825.41
512.92	837.94
513.28	850.44
513.64	862.92
514.00	875.67
514.37	888.48
514.73	901.36
515.09	914.14
515.45	926.84
515.81	939.73
516.17	952.90
516.53	965.86
516.89	978.73
517.25	991.68
517.61	1005.04
517.97	1018.25
518.33	1031.09
518.69	1044.42
519.05	1058.04
519.41	1071.50
519.77	1085.13
520.13	1098.10
520.49	1111.22
520.85	1124.30
521.21	1137.52
521.57	1150.89
521.93	1163.80
522.29	1177.29
522.65	1190.69
523.01	1204.09
523.37	1217.03
523.73	1230.03
524.09	1242.83
524.45	1255.97
524.81	1269.05
525.17	1282.09
525.53	1295.02
525.89	1308.13
526.25	1320.95
526.61	1333.33
526.97	1346.20
527.33	1358.85
527.68	1372.10
528.04	1385.22
528.40	1398.07
528.76	1410.92
529.12	1423.50
529.48	1436.39
529.84	1448.47
530.20	1460.79
530.56	1473.09
530.91	1485.87
531.27	1498.38
531.63	1510.96
531.99	1523.43
532.35	1535.39
532.71	1547.42
533.07	1559.99
533.42	1571.82
533.78	1583.64
534.14	1595.41
534.50	1606.19
534.86	1617.36
535.21	1627.72
535.57	1638.87
535.93	1649.82
536.29	1660.75
536.65	1671.87
537.00	1682.51
537.36	1693.61
537.72	1704.37
538.08	1715.37
538.44	1726.07
538.79	1736.78
539.15	1747.21
539.51	1757.65
539.87	1768.65
540.22	1779.19
540.58	1789.76
540.94	1800.36
541.29	1810.29
541.65	1819.79
542.01	1830.05
542.37	1839.87
542.72	1849.89
543.08	1859.27
543.44	1869.39
543.79	1878.41
544.15	1887.62
544.51	1897.38
544.87	1906.79
545.22	1915.77
545.58	1924.40
545.94	1932.97
546.29	1941.27
546.65	1949.44
547.01	1957.29
547.36	1964.85
547.72	1972.41
548.07	1979.68
548.43	1987.19
548.79	1994.68
549.14	2002.56
549.50	2010.75
549.86	2018.33
550.21	2025.44
550.57	2032.95
550.92	2039.58
551.28	2046.90
551.64	2053.84
551.99	2061.04
552.35	2067.97
552.70	2074.67
553.06	2081.02
553.41	2087.17
553.77	2093.50
554.13	2099.66
554.48	2106.63
554.84	2113.44
555.19	2119.64
555.55	2126.04
555.90	2132.13
556.26	2138.92
556.61	2144.73
556.97	2149.41
557.32	2155.28
557.68	2161.47
558.03	2167.12
558.39	2172.16
558.74	2178.04
559.10	2183.48
559.45	2188.93
559.81	2194.39
560.16	2199.65
560.52	2205.64
560.87	2211.91
561.23	2217.87
561.58	2224.52
561.94	2229.61
562.29	2234.42
562.64	2240.52
563.00	2246.03
563.35	2251.55
563.71	2257.27
564.06	2262.99
564.42	2268.96
564.77	2273.94
565.12	2279.22
565.48	2284.42
565.83	2290.02
566.19	2295.38
566.54	2300.92
566.89	2305.64
567.25	2310.25
567.60	2316.07
567.96	2321.24
568.31	2325.83
568.66	2330.02
569.02	2333.81
569.37	2337.66
569.72	2342.09
570.08	2345.72
570.43	2348.92
570.78	2352.11
571.14	2354.63
571.49	2357.90
571.84	2361.48
572.20	2364.47
572.55	2367.62
572.90	2369.88
573.26	2373.00
573.61	2375.45
573.96	2377.63
574.31	2379.58
574.67	2381.64
575.02	2382.63
575.37	2384.19
575.72	2385.14
576.08	2386.72
576.43	2387.22
576.78	2387.95
577.13	2389.67
577.49	2390.91
577.84	2392.16
578.19	2393.70
578.54	2394.51
578.90	2395.50
579.25	2395.40
579.60	2395.43
579.95	2394.80
580.30	2395.24
580.66	2394.46
581.01	2392.95
581.36	2390.88
581.71	2389.69
582.06	2388.75
582.42	2387.92
582.77	2385.85
583.12	2384.32
583.47	2383.17
583.82	2382.77
584.17	2381.62
584.53	2379.56
584.88	2377.68
585.23	2375.81
585.58	2373.68
585.93	2371.75
586.28	2369.59
586.63	2367.53
586.98	2365.48
587.34	2363.81
587.69	2361.68
588.04	2360.08
588.39	2358.77
588.74	2356.33
589.09	2353.97
589.44	2351.10
589.79	2348.88
590.14	2347.02
590.49	2344.38
590.84	2340.87
591.19	2337.96
591.54	2334.78
591.89	2330.84
592.25	2327.76
592.60	2323.69
592.95	2319.85
593.30	2315.82
593.65	2311.64
594.00	2307.34
594.35	2304.42
594.70	2299.78
595.05	2295.04
595.40	2289.57
595.75	2284.28
596.10	2280.70
596.45	2275.90
596.80	2271.46
597.15	2266.47
597.50	2260.79
597.85	2256.05
598.19	2250.87
598.54	2245.06
598.89	2240.09
599.24	2235.77
599.59	2229.57
599.94	2224.21
600.29	2218.39
600.64	2212.66
600.99	2206.11
601.34	2200.79
601.69	2193.98
602.04	2187.79
602.39	2181.38
602.74	2175.52
603.08	2169.90
603.43	2163.62
603.78	2156.99
604.13	2149.76
604.48	2142.63
604.83	2136.58
605.18	2130.39
605.53	2123.38
605.87	2116.51
606.22	2109.68
606.57	2101.94
606.92	2094.37
607.27	2087.30
607.62	2080.70
607.96	2073.79
608.31	2067.33
608.66	2059.50
609.01	2052.06
609.36	2045.01
609.70	2037.48
610.05	2029.77
610.40	2021.43
610.75	2013.28
611.10	2005.63
611.44	1996.96
611.79	1988.17
612.14	1978.29
612.49	1967.65
612.83	1958.57
613.18	1949.40
613.53	1940.34
613.88	1930.64
614.22	1921.97
614.57	1912.28
614.92	1901.70
615.27	1891.66
615.61	1881.74
615.96	1872.05
616.31	1862.42
616.65	1853.06
617.00	1843.21
617.35	1833.56
617.70	1824.13
618.04	1813.99
618.39	1803.68
618.74	1794.04
619.08	1784.56
619.43	1775.92
619.78	1767.83
620.12	1759.23
620.47	1749.66
620.82	1739.25
621.16	1729.74
621.51	1719.86
621.85	1710.00
622.20	1699.65
622.55	1689.02
622.89	1679.10
623.24	1669.53
623.59	1659.80
623.93	1649.75
624.28	1640.02
624.62	1629.88
624.97	1619.59
625.32	1610.06
625.66	1601.39
626.01	1592.81
626.35	1583.37
626.70	1573.31
627.04	1563.19
627.39	1553.17
627.73	1543.87
628.08	1534.95
628.43	1525.33
628.77	1516.28
629.12	1507.43
629.46	1499.67
629.81	1491.32
630.15	1481.80
630.50	1472.08
630.84	1461.56
631.19	1451.73
631.53	1442.42
631.88	1432.39
632.22	1422.41
632.57	1412.97
632.91	1402.78
633.26	1392.91
633.60	1383.44
633.95	1374.17
634.29	1364.80
634.64	1355.42
634.98	1345.61
635.32	1336.34
635.67	1327.83
636.01	1318.51
636.36	1308.80
636.70	1299.29
637.05	1290.01
637.39	1281.06
637.73	1272.52
638.08	1265.12
638.42	1256.81
638.77	1248.08
639.11	1239.88
639.45	1232.07
639.80	1223.48
640.14	1214.81
640.49	1205.85
640.83	1197.11
641.17	1189.04
641.52	1180.87
641.86	1172.32
642.20	1164.38
642.55	1155.92
642.89	1147.06
643.23	1138.52
643.58	1130.43
643.92	1121.47
644.26	1112.78
644.61	1104.48
644.95	1095.70
645.29	1086.51
645.64	1077.52
645.98	1069.23
646.32	1061.34
646.66	1052.95
647.01	1044.84
647.35	1036.79
647.69	1028.48
648.04	1020.20
648.38	1011.24
648.72	1002.52
649.06	994.15
649.41	986.13
649.75	978.17
650.09	970.32
650.43	962.22
650.78	954.05
651.12	946.38
651.46	939.15
651.80	931.87
652.14	924.66
652.49	917.21
652.83	910.00
653.17	902.31
653.51	894.73
653.85	887.45
654.20	880.17
654.54	872.71
654.88	865.73
655.22	858.67
655.56	851.85
655.90	845.20
656.25	838.69
656.59	831.78
656.93	824.88
657.27	817.84
657.61	811.08
657.95	805.13
658.29	799.37
658.64	793.23
658.98	786.90
659.32	780.32
659.66	774.10
660.00	767.76
660.34	761.71
660.68	755.68
661.02	749.48
661.36	743.57
661.70	737.87
662.05	732.25
662.39	726.86
662.73	721.55
663.07	716.20
663.41	710.63
663.75	705.07
664.09	699.49
664.43	694.19
664.77	688.82
665.11	683.01
665.45	677.18
665.79	671.48
666.13	665.80
666.47	660.51
666.81	655.25
667.15	650.01
667.49	644.98
667.83	639.85
668.17	634.76
668.51	629.80
668.85	625.00
669.19	620.22
669.53	615.26
669.87	610.24
670.21	605.58
670.55	600.93
670.89	596.56
671.23	592.36
671.57	588.09
671.91	583.93
672.25	579.88
672.58	575.77
672.92	571.77
673.26	567.93
673.60	564.11
673.94	560.34
674.28	556.74
674.62	553.07
674.96	549.41
675.30	545.91
675.64	542.28
675.97	538.76
676.31	535.15
676.65	531.59
676.99	528.18
677.33	524.39
677.67	520.80
678.01	517.06
678.34	513.37
678.68	509.91
679.02	506.34
679.36	502.70
679.70	499.17
680.04	495.74
680.37	492.37
680.71	489.10
681.05	485.92
681.39	482.80
681.73	479.71
682.06	476.68
682.40	473.67
682.74	470.56
683.08	467.36
683.42	464.26
683.75	461.33
684.09	458.44
684.43	455.61
684.77	452.71
685.10	449.87
685.44	447.04
685.78	444.18
686.12	441.50
686.45	438.78
686.79	436.11
687.13	433.60
687.46	430.96
687.80	428.34
688.14	425.57
688.48	422.99
688.81	420.32
689.15	417.87
689.49	415.28
689.82	412.83
690.16	410.33
690.50	407.91
690.83	405.47
691.17	402.97
691.51	400.64
691.84	398.49
692.18	396.32
692.52	394.19
692.85	392.07
693.19	389.97
693.52	387.87
693.86	385.73
694.20	383.61
694.53	381.58
694.87	379.50
695.21	377.43
695.54	375.27
695.88	373.20
696.21	370.99
696.55	368.87
696.88	366.83
697.22	364.87
697.56	363.00
697.89	361.16
698.23	359.45
698.56	357.66
698.90	355.90
699.23	354.03
699.57	352.22
699.90	350.40
700.24	348.64
700.58	346.89
700.91	345.32
701.25	343.81
701.58	342.27
701.92	340.63
702.25	339.10
702.59	337.54
702.92	336.03
703.26	334.52
703.59	333.14
703.93	331.94
704.26	330.60
704.60	329.19
704.93	327.78
705.26	326.28
705.60	324.88
705.93	323.38
706.27	322.11
706.60	320.90
706.94	319.73
707.27	318.36
707.61	317.07
707.94	315.70
708.27	314.20
708.61	312.75
708.94	311.43
709.28	310.16
709.61	308.97
709.94	307.76
710.28	306.61
710.61	305.45
710.95	304.00
711.28	302.94
711.61	301.77
711.95	300.58
712.28	299.50
712.61	298.37
712.95	297.38
713.28	296.36
713.61	295.22
713.95	294.06
714.28	293.12
714.61	292.09
714.95	291.16
715.28	290.16
715.61	289.18
715.95	288.28
716.28	287.34
716.61	286.41
716.95	285.44
717.28	284.51
717.61	283.55
717.94	282.71
718.28	281.69
718.61	280.83
718.94	279.97
719.27	279.09
719.61	278.28
719.94	277.40
720.27	276.46
720.60	275.67
720.94	274.94
721.27	274.17
721.60	273.50
721.93	272.78
722.27	272.15
722.60	271.51
722.93	270.83
723.26	270.19
723.59	269.52
723.93	268.95
724.26	268.37
724.59	267.76
724.92	267.19
725.25	266.66
725.59	266.09
725.92	265.56
726.25	265.02
726.58	264.49
726.91	263.95
727.24	263.43
727.57	262.87
727.91	262.27
728.24	261.74
728.57	261.15
728.90	260.61
729.23	260.02
729.56	259.58
729.89	259.07
730.22	258.51
730.55	257.96
730.89	257.41
731.22	256.86
731.55	256.36
731.88	255.87
732.21	255.35
732.54	254.82
732.87	254.35
733.20	253.84
733.53	253.35
733.86	252.88
734.19	252.40
734.52	251.99
734.85	251.71
735.18	251.26
735.51	250.93
735.84	250.54
736.17	250.20
736.50	249.68
736.83	249.49
737.16	249.15
737.49	248.80
737.82	248.41
738.15	248.05
738.48	247.66
738.81	247.28
739.14	246.88
739.47	246.52
739.80	246.15
740.13	245.88
740.46	245.51
740.79	245.15
741.12	244.80
741.45	244.45
741.78	244.00
742.11	243.72
742.44	243.35
742.77	243.04
743.10	242.68
743.43	242.35
743.75	241.82
744.08	241.72
744.41	241.32
744.74	241.03
745.07	240.69
745.40	240.43
745.73	240.17
746.06	239.87
746.39	239.57
746.71	239.24
747.04	238.87
747.37	238.59
747.70	238.34
748.03	238.08
748.36	237.83
748.68	237.59
749.01	237.21
749.34	236.95
749.67	236.66
750.00	236.44
750.33	236.33
750.65	236.08
750.98	235.59
751.31	235.41
751.64	235.16
751.97	235.05
752.29	234.79
752.62	234.46
752.95	234.22
753.28	233.97
753.60	233.77
753.93	233.60
754.26	233.36
754.59	233.09
754.91	232.85
755.24	232.61
755.57	232.35
755.90	232.14
756.22	231.91
756.55	231.68
756.88	231.45
757.20	231.09
757.53	230.83
757.86	230.64
758.19	230.48
758.51	230.26
758.84	229.95
759.17	229.75
759.49	229.58
759.82	229.51
760.15	229.38
760.47	229.19
760.80	228.94
761.13	228.82
761.45	228.64
761.78	228.44
762.11	228.27
762.43	228.08
762.76	227.92
763.08	227.79
763.41	227.65
763.74	227.49
764.06	227.35
764.39	227.21
764.71	227.06
765.04	226.86
765.37	226.70
765.69	226.54
766.02	226.40
766.34	226.26
766.67	226.07
767.00	225.95
767.32	225.93
767.65	225.94
767.97	225.75
768.30	225.64
768.62	225.55
768.95	225.40
769.27	225.25
769.60	225.13
769.92	224.95
770.25	224.78
770.57	224.63
770.90	224.51
771.22	224.40
771.55	224.29
771.87	224.18
772.20	224.08
772.52	224.18
772.85	224.34
773.17	224.22
773.50	224.07
773.82	223.96
774.15	223.75
774.47	223.51
774.80	223.43
775.12	223.33
775.45	223.20
775.77	223.12
776.09	223.10
776.42	223.02
776.74	223.04
777.07	222.93
777.39	222.84
777.72	222.74
778.04	222.68
778.36	222.58
778.69	222.50
779.01	222.42
779.33	222.10
779.66	221.74
779.98	221.65
780.31	221.59
780.63	221.58
780.95	221.54
781.28	221.47
781.60	221.38
781.92	221.32
782.25	221.27
782.57	221.18
782.89	221.10
783.22	221.00
783.54	220.87
783.86	220.86
784.19	220.79
784.51	220.78
784.83	220.69
785.16	220.63
785.48	220.60
785.80	220.54
786.12	220.57
786.45	220.55
786.77	220.54
787.09	220.47
787.42	220.34
787.74	220.28
788.06	220.25
788.38	220.17
788.71	220.08
789.03	220.05
789.35	220.04
789.67	219.94
789.99	219.94
790.32	219.86
790.64	219.79
790.96	219.93
791.28	219.81
791.61	219.77
791.93	219.77
792.25	219.68
792.57	219.78
792.89	219.66
793.21	219.62
793.54	219.55
793.86	219.49
794.18	219.48
794.50	219.42
794.82	219.36
795.14	219.38
795.47	219.38
795.79	219.34
796.11	219.24
796.43	219.22
796.75	219.14
797.07	219.13
797.39	219.08
797.71	218.88
798.04	218.85
798.36	218.82
798.68	218.75
799.00	218.77
799.32	218.65
799.64	218.67
799.96	218.57
800.28	218.59
800.60	218.57
800.92	218.49
801.24	218.46
801.56	218.43
801.89	218.40
802.21	218.39
802.53	218.31
802.85	218.35
803.17	218.38
803.49	218.33
803.81	218.25
804.13	218.21
804.45	218.17
804.77	218.13
805.09	218.08
805.41	218.04
805.73	217.95
806.05	217.86
806.37	217.81
806.69	217.78
807.01	217.71
807.33	217.67
807.65	217.59
807.97	217.64
808.28	217.58
808.60	217.52
808.92	217.45
809.24	217.56
809.56	217.48
809.88	217.41
810.20	217.40
810.52	217.44
810.84	217.39
811.16	217.35
811.48	217.33
811.80	217.40
812.12	217.40
812.43	217.43
812.75	217.43
813.07	217.38
813.39	217.38
813.71	217.33
814.03	217.30
814.35	217.34
814.67	217.22
814.98	217.21
815.30	217.22
815.62	217.15
815.94	217.01
816.26	217.02
816.58	216.96
816.89	216.98
817.21	216.91
817.53	216.92
817.85	216.91
818.17	216.89
818.48	216.79
818.80	216.79
819.12	216.75
819.44	216.72
819.76	216.70
820.07	216.70
820.39	216.69
820.71	216.65
821.03	216.60
821.34	216.58
821.66	216.61
821.98	216.59
822.30	216.61
822.61	216.72
822.93	216.65
823.25	216.64
823.57	216.58
823.88	216.61
824.20	216.58
824.52	216.62
824.83	216.58
825.15	216.56
825.47	216.53
825.79	216.53
826.10	216.47
826.42	216.42
826.74	216.42
827.05	216.39
827.37	216.44
827.69	216.43
828.00	216.43
828.32	216.39
828.64	216.34
828.95	216.43
829.27	216.38
829.58	216.39
829.90	216.41
830.22	216.43
830.53	216.37
830.85	216.35
831.17	216.28
831.48	216.28
831.80	216.26
832.11	216.24
832.43	216.22
832.75	216.24
833.06	216.37
833.38	216.30
833.69	216.32
834.01	216.28
834.32	216.29
834.64	216.26
834.96	216.25
835.27	216.22
835.59	216.13
835.90	216.03
836.22	216.00
836.53	215.94
836.85	215.93
837.16	216.11
837.48	216.09
837.79	216.16
838.11	216.18
838.42	216.17
838.74	216.18
839.05	216.12
839.37	216.11
839.68	215.97
840.00	215.97
840.31	215.97
840.63	215.93
840.94	215.89
841.26	215.86
841.57	215.87
841.88	215.88
842.20	215.86
842.51	215.86
842.83	215.86
843.14	216.04
843.46	216.04
843.77	215.91
844.08	215.88
844.40	215.78
844.71	215.76
845.03	215.74
845.34	215.71
845.65	215.71
845.97	215.69
846.28	215.70
846.60	215.72
846.91	215.68
847.22	215.68
847.54	215.69
847.85	215.71
848.16	215.65
848.48	215.64
848.79	215.73
849.10	215.73
849.42	215.74
849.73	215.56
850.04	215.53
850.36	215.47
850.67	215.56
850.98	215.57
851.30	215.59
851.61	215.57
851.92	215.58
852.23	215.66
852.55	215.66
852.86	215.64
853.17	215.64
853.49	215.68
853.80	215.72
854.11	215.75
854.42	215.77
854.74	215.73
855.05	215.70
855.36	215.58
855.67	215.58
855.99	215.57
856.30	215.80
856.61	215.79
856.92	215.80
857.23	215.74
857.55	215.72
857.86	215.71
858.17	215.75
858.48	215.68
858.79	215.60
859.11	215.64
859.42	215.62
859.73	215.59
860.04	215.56
860.35	215.50
860.66	215.42
860.98	215.41
861.29	215.46
861.60	215.45
861.91	215.50
862.22	215.46
862.53	215.40
862.84	215.17
863.16	215.23
863.47	215.17
863.78	215.13
864.09	215.12
864.40	215.14
864.71	215.11
865.02	215.15
865.33	215.13
865.64	215.09
865.95	215.11
866.27	215.20
866.58	215.19
866.89	215.22
867.20	215.22
867.51	215.15
867.82	215.17
868.13	215.26
868.44	215.19
868.75	215.24
869.06	215.27
869.37	215.24
869.68	215.20
869.99	215.24
870.30	215.28
870.61	215.30
870.92	215.24
871.23	215.22
871.54	215.25
871.85	215.26
872.16	215.29
872.47	215.28
872.78	215.18
873.09	215.20
873.40	215.18
873.71	215.21
874.02	215.26
874.33	215.20
874.64	215.16
874.95	215.21
875.26	215.16
875.56	215.16
875.87	215.18
876.18	215.17
876.49	215.38
876.80	215.35
877.11	215.32
877.42	215.32
877.73	215.34
878.04	215.29
878.35	215.34
878.66	215.33
878.96	215.33
879.27	215.30
879.58	215.27
879.89	215.26
880.20	215.32
880.51	215.32
880.82	215.34
881.12	215.34
881.43	215.30
881.74	215.26
882.05	215.23
882.36	215.22
882.67	215.21
882.97	214.98
883.28	214.99
883.59	215.00
883.90	215.03
884.21	215.04
884.51	215.05
884.82	214.98
885.13	214.97
885.44	214.96
885.74	214.99
886.05	215.02
886.36	215.00
886.67	214.93
886.98	215.02
887.28	215.03
887.59	214.99
887.90	215.00
888.20	215.03
888.51	215.08
888.82	215.05
889.13	215.06
889.43	215.23
889.74	215.22
890.05	215.20
890.35	215.19
890.66	215.15
890.97	215.12
891.28	215.14
891.58	215.12
891.89	215.11
892.20	215.06
892.50	215.03
892.81	215.03
893.12	215.04
893.42	214.93
893.73	214.95
894.04	214.98
894.34	215.00
894.65	214.99
894.95	214.95
895.26	214.98
895.57	215.07
895.87	214.86
896.18	214.90
896.48	214.92
896.79	214.90
897.10	214.94
897.40	214.96
897.71	214.95
898.01	214.96
898.32	214.98
898.63	214.99
898.93	215.02
899.24	215.05
899.54	215.00
899.85	214.99
900.15	214.93
900.46	214.92
900.76	214.96
901.07	214.98
901.38	215.01
901.68	215.01
901.99	214.91
902.29	214.92
902.60	214.90
902.90	214.87
903.21	214.87
903.51	214.89
903.82	214.94
904.12	214.92
904.43	214.92
904.73	214.93
905.03	214.97
905.34	215.15
905.64	215.12
905.95	215.12
906.25	215.12
906.56	215.13
906.86	215.11
907.17	215.04
907.47	215.01
907.77	214.96
908.08	214.92
908.38	214.95
908.69	214.99
908.99	215.00
909.30	215.02
909.60	215.05
909.90	215.01
910.21	214.94
910.51	214.93
910.81	214.96
911.12	214.96
911.42	214.95
911.73	214.75
912.03	214.74
912.33	214.79
912.64	214.79
912.94	214.78
913.24	214.77
913.55	214.78
913.85	214.81
914.15	214.87
914.46	214.89
914.76	214.84
915.06	214.80
915.37	214.76
915.67	214.75
915.97	214.72
916.27	214.68
916.58	214.69
916.88	214.72
917.18	214.68
917.49	214.81
917.79	214.78
918.09	214.83
918.39	214.90
918.70	214.90
919.00	214.88
919.30	214.99
919.60	215.00
919.91	214.97
920.21	214.98
920.51	214.92
920.81	214.97
921.12	215.01
921.42	215.01
921.72	215.04
922.02	215.01
922.32	215.05
922.63	215.05
922.93	215.15
923.23	215.16
923.53	215.12
923.83	214.99
924.13	215.00
924.44	214.95
924.74	214.98
925.04	215.00
925.34	214.98
925.64	214.89
925.94	214.87
926.24	215.00
926.55	214.96
926.85	214.99
927.15	214.96
927.45	214.98
927.75	214.98
928.05	215.01
928.35	215.03
928.65	215.06
928.95	215.11
929.26	215.04
929.56	215.06
929.86	215.12
930.16	215.12
930.46	215.12
930.76	215.12
931.06	215.03
931.36	214.95
931.66	214.98
931.96	215.00
932.26	215.00
932.56	214.92
932.86	214.92
933.16	214.90
933.46	214.86
933.76	214.81
934.06	214.87
934.36	214.94
934.66	214.94
934.96	214.87
935.26	214.84
935.56	214.88
935.86	214.83
936.16	214.80
936.46	214.74
936.76	214.73
937.06	214.71
937.36	214.73
937.66	214.78
937.96	214.79
938.26	214.75
938.56	214.73
938.86	214.75
939.16	214.83
939.46	214.86
939.76	214.91
940.06	214.88
940.35	214.82
940.65	214.71
940.95	214.71
941.25	214.68
941.55	214.67
941.85	214.64
942.15	214.71
942.45	214.74
942.75	214.77
943.04	214.77
943.34	214.85
943.64	214.81
943.94	214.77
944.24	214.76
944.54	214.79
944.84	214.82
945.13	214.79
945.43	214.74
945.73	214.71
946.03	214.67
946.33	214.66
946.62	214.66
946.92	214.66
947.22	214.68
947.52	214.70
947.82	214.72
948.11	214.69
948.41	214.63
948.71	214.56
949.01	214.59
949.31	214.59
949.60	214.52
949.90	214.57
950.20	214.59
950.50	214.60
950.79	214.59
951.09	214.60
951.39	214.57
951.69	214.52
951.98	214.54
952.28	214.58
952.58	214.57
952.87	214.57
953.17	214.62
953.47	214.58
953.76	214.58
954.06	214.56
954.36	214.54
954.66	214.54
954.95	214.61
955.25	214.59
955.55	214.59
955.84	214.57
956.14	214.60
956.44	214.60
956.73	214.59
957.03	214.59
957.32	214.61
957.62	214.60
957.92	214.71
958.21	214.68
958.51	214.91
958.81	214.96
959.10	214.96
959.40	215.00
959.69	215.05
959.99	215.06
960.29	215.09
960.58	215.05
960.88	215.14
961.17	215.12
961.47	215.15
961.76	215.13
962.06	215.19
962.36	215.14
962.65	215.13
962.95	215.12
963.24	215.12
963.54	215.11
963.83	215.17
964.13	215.10
964.42	215.06
964.72	214.89
965.01	214.88
965.31	214.88
965.60	214.84
965.90	214.94
966.19	214.90
966.49	214.88
966.78	214.90
967.08	214.87
967.37	214.88
967.67	214.84
967.96	214.87
968.26	214.87
968.55	214.90
968.85	214.86
969.14	214.85
969.43	214.83
969.73	214.81
970.02	214.82
970.32	214.80
970.61	214.82
970.91	214.75
971.20	214.72
971.49	214.70
971.79	214.71
972.08	214.57
972.38	214.62
972.67	214.63
972.96	214.64
973.26	214.60
973.55	214.67
973.85	214.66
974.14	214.67
974.43	214.63
974.73	214.61
975.02	214.63
975.31	214.65
975.61	214.65
975.90	214.62
976.19	214.56
976.49	214.60
976.78	214.60
977.07	214.61
977.37	214.61
977.66	214.67
977.95	214.63
978.24	214.64
978.54	214.69
978.83	214.69
979.12	214.72
979.42	214.75
979.71	214.68
980.00	214.66
980.29	214.67
980.59	214.66
980.88	214.71
981.17	214.73
981.46	214.74
981.76	214.76
982.05	214.82
982.34	214.82
982.63	214.82
982.93	214.85
983.22	214.88
983.51	214.91
983.80	214.88
984.09	214.91
984.39	214.88
984.68	214.84
984.97	214.80
985.26	214.76
985.55	214.75
985.85	214.74
986.14	214.79
986.43	214.79
986.72	214.79
987.01	214.70
987.30	214.66
987.59	214.64
987.89	214.62
988.18	214.59
988.47	214.58
988.76	214.56
989.05	214.54
989.34	214.52
989.63	214.55
989.92	214.55
990.22	214.53
990.51	214.57
990.80	214.51
991.09	214.56
991.38	214.61
991.67	214.59
991.96	214.55
992.25	214.53
992.54	214.50
992.83	214.50
993.12	214.48
993.41	214.55
993.70	214.62
993.99	214.66
994.28	214.67
994.58	214.71
994.87	214.67
995.16	214.64
995.45	214.60
995.74	214.51
996.03	214.56
996.32	214.56
996.61	214.59
996.90	214.60
997.19	214.59
997.48	214.56
997.77	214.54
998.06	214.55
998.34	214.52
998.63	214.51
998.92	214.52
999.21	214.54
999.50	214.54
999.79	214.46
1000.08	214.45
1000.37	214.42
1000.66	214.40
1000.95	214.47
1001.24	214.48
1001.53	214.52
1001.82	214.53
1002.11	214.49
1002.40	214.53
1002.68	214.58
1002.97	214.74
1003.26	214.71
1003.55	214.71
1003.84	214.72
1004.13	214.82
1004.42	214.84
1004.71	214.83
1004.99	214.84
1005.28	214.92
1005.57	214.90
1005.86	214.89
1006.15	214.90
1006.44	214.90
1006.72	214.95
1007.01	214.92
1007.30	214.92
1007.59	214.89
1007.88	214.89
1008.17	214.90
1008.45	214.82
1008.74	214.71
1009.03	214.62
1009.32	214.62
1009.60	214.63
1009.89	214.62
1010.18	214.52
1010.47	214.49
1010.76	214.50
1011.04	214.49
1011.33	214.47
1011.62	214.51
1011.91	214.53
1012.19	214.51
1012.48	214.48
1012.77	214.44
1013.05	214.58
1013.34	214.57
1013.63	214.58
1013.92	214.58
1014.20	214.54
1014.49	214.59
1014.78	214.65
1015.06	214.61
1015.35	214.62
1015.64	214.61
1015.92	214.64
1016.21	214.69
1016.50	214.69
1016.78	214.71
1017.07	214.73
1017.36	214.68
1017.64	214.64
1017.93	214.65
1018.22	214.66
1018.50	214.69
1018.79	214.70
1019.08	214.58
1019.36	214.56
1019.65	214.51
1019.93	214.57
1020.22	214.62
1020.51	214.71
1020.79	214.66
1021.08	214.50
1021.36	214.40
1021.65	214.57
1021.94	214.73
1022.22	213.77
1022.51	213.51
1022.79	215.69
1023.08	214.80
1023.36	216.82
1023.65	214.23
>>>>>End Processed Spectral Data<<<<<
