SpectraSuite Data File
++++++++++++++++++++++++++++++++++++
Date: Tue Jan 29 16:11:30 EST 2013
User: group
Dark Spectrum Present: No
Reference Spectrum Present: No
Number of Sampled Component Spectra: 1
Spectrometers: USB2E7196
Integration Time (usec): 65000 (USB2E7196)
Spectra Averaged: 100 (USB2E7196)
Boxcar Smoothing: 10 (USB2E7196)
Correct for Electrical Dark: No (USB2E7196)
Strobe/Lamp Enabled: No (USB2E7196)
Correct for Detector Non-linearity: No (USB2E7196)
Correct for Stray Light: No (USB2E7196)
Number of Pixels in Processed Spectrum: 2048
>>>>>Begin Processed Spectral Data<<<<<
339.09	0.00
339.48	202.66
339.86	204.37
340.24	205.80
340.63	206.45
341.01	211.38
341.39	209.53
341.78	211.24
342.16	212.35
342.54	212.35
342.93	201.82
343.31	212.03
343.69	212.58
344.07	213.04
344.46	213.46
344.84	213.88
345.22	214.02
345.60	214.31
345.99	214.51
346.37	214.64
346.75	214.78
347.13	214.86
347.52	214.91
347.90	215.03
348.28	215.06
348.66	215.12
349.05	215.06
349.43	215.10
349.81	215.18
350.19	215.20
350.57	215.30
350.96	215.39
351.34	215.47
351.72	215.55
352.10	215.65
352.48	215.72
352.87	215.77
353.25	215.85
353.63	215.91
354.01	215.91
354.39	216.03
354.77	216.06
355.15	216.19
355.54	216.24
355.92	216.22
356.30	216.29
356.68	216.49
357.06	216.59
357.44	216.63
357.82	216.64
358.20	216.74
358.58	216.78
358.97	216.82
359.35	216.94
359.73	217.00
360.11	217.07
360.49	217.13
360.87	217.15
361.25	217.23
361.63	217.32
362.01	217.41
362.39	217.42
362.77	217.50
363.15	217.49
363.53	217.52
363.91	217.59
364.29	217.61
364.67	217.46
365.05	217.49
365.43	217.55
365.81	217.62
366.19	217.72
366.57	217.84
366.95	217.85
367.33	217.79
367.71	217.85
368.09	217.86
368.47	217.87
368.85	217.89
369.23	217.92
369.61	217.84
369.99	217.89
370.37	217.88
370.75	217.97
371.13	217.91
371.51	217.85
371.89	217.82
372.27	217.83
372.65	217.82
373.03	217.80
373.41	217.76
373.78	217.68
374.16	217.55
374.54	217.44
374.92	217.39
375.30	217.39
375.68	217.29
376.06	217.26
376.44	217.19
376.82	217.15
377.19	217.09
377.57	217.05
377.95	216.93
378.33	216.87
378.71	216.68
379.09	216.69
379.47	216.69
379.84	216.62
380.22	216.54
380.60	216.46
380.98	216.41
381.36	216.37
381.73	216.31
382.11	216.32
382.49	216.30
382.87	216.22
383.25	216.15
383.62	216.34
384.00	216.27
384.38	216.26
384.76	216.24
385.13	216.31
385.51	216.25
385.89	216.20
386.27	216.18
386.64	216.17
387.02	216.11
387.40	216.06
387.78	216.03
388.15	216.02
388.53	215.98
388.91	215.92
389.29	215.90
389.66	215.90
390.04	215.82
390.42	215.81
390.79	215.80
391.17	215.77
391.55	215.53
391.92	215.53
392.30	215.52
392.68	215.48
393.05	215.43
393.43	215.46
393.81	215.47
394.18	215.45
394.56	215.47
394.94	215.51
395.31	215.50
395.69	215.56
396.06	215.59
396.44	215.63
396.82	215.63
397.19	215.74
397.57	215.72
397.95	215.81
398.32	215.79
398.70	215.86
399.07	215.95
399.45	215.97
399.82	215.99
400.20	216.02
400.58	216.08
400.95	216.05
401.33	216.15
401.70	216.36
402.08	216.47
402.45	216.55
402.83	216.65
403.20	216.79
403.58	216.88
403.95	217.01
404.33	217.16
404.71	217.31
405.08	217.51
405.46	217.71
405.83	217.88
406.21	218.07
406.58	218.29
406.96	218.52
407.33	218.80
407.70	219.10
408.08	219.56
408.45	219.92
408.83	220.30
409.20	220.62
409.58	220.87
409.95	221.30
410.33	221.78
410.70	222.21
411.08	222.77
411.45	223.30
411.82	223.88
412.20	224.56
412.57	225.39
412.95	225.95
413.32	226.73
413.69	227.56
414.07	228.43
414.44	229.38
414.82	230.35
415.19	231.47
415.56	232.62
415.94	233.74
416.31	235.11
416.68	236.47
417.06	238.04
417.43	239.56
417.81	241.26
418.18	242.96
418.55	244.84
418.93	246.78
419.30	248.81
419.67	250.94
420.04	253.17
420.42	255.47
420.79	258.22
421.16	260.92
421.54	263.73
421.91	266.63
422.28	269.64
422.66	272.82
423.03	275.98
423.40	279.26
423.77	282.71
424.15	286.24
424.52	289.95
424.89	293.94
425.26	297.92
425.64	301.70
426.01	305.83
426.38	310.14
426.75	314.54
427.13	319.16
427.50	323.95
427.87	328.97
428.24	333.97
428.61	338.82
428.99	344.17
429.36	349.98
429.73	355.64
430.10	361.31
430.47	367.17
430.85	373.26
431.22	379.76
431.59	386.66
431.96	393.19
432.33	400.47
432.70	407.51
433.08	415.72
433.45	423.46
433.82	431.17
434.19	439.76
434.56	448.18
434.93	456.22
435.30	464.17
435.68	472.93
436.05	481.61
436.42	490.13
436.79	497.99
437.16	506.41
437.53	515.40
437.90	524.18
438.27	532.82
438.64	541.70
439.01	549.93
439.38	557.27
439.75	564.37
440.13	572.48
440.50	580.09
440.87	586.32
441.24	592.74
441.61	599.83
441.98	605.04
442.35	611.11
442.72	617.21
443.09	623.09
443.46	626.74
443.83	629.14
444.20	631.34
444.57	634.37
444.94	635.74
445.31	637.10
445.68	638.43
446.05	639.06
446.42	638.31
446.79	637.34
447.16	636.24
447.53	635.51
447.90	632.25
448.27	629.04
448.64	624.51
449.01	621.29
449.37	615.62
449.74	610.11
450.11	603.47
450.48	596.35
450.85	589.22
451.22	582.96
451.59	577.12
451.96	571.50
452.33	563.91
452.70	557.09
453.07	548.93
453.43	540.69
453.80	532.69
454.17	525.01
454.54	517.69
454.91	509.82
455.28	502.17
455.65	495.09
456.02	487.94
456.38	481.87
456.75	474.34
457.12	467.97
457.49	461.74
457.86	455.74
458.23	450.54
458.59	444.79
458.96	439.02
459.33	433.91
459.70	428.74
460.07	424.65
460.43	419.93
460.80	415.53
461.17	411.67
461.54	407.62
461.91	403.77
462.27	399.84
462.64	396.54
463.01	392.85
463.38	389.29
463.74	385.72
464.11	382.56
464.48	379.81
464.85	376.86
465.21	374.48
465.58	371.97
465.95	368.94
466.32	366.41
466.68	363.90
467.05	361.36
467.42	358.89
467.78	356.34
468.15	353.88
468.52	352.08
468.88	349.70
469.25	347.57
469.62	345.81
469.98	343.97
470.35	342.27
470.72	340.67
471.08	338.90
471.45	337.46
471.82	335.99
472.18	334.40
472.55	333.26
472.92	331.99
473.28	330.89
473.65	329.82
474.02	328.77
474.38	327.95
474.75	327.25
475.11	326.44
475.48	325.89
475.85	325.48
476.21	324.96
476.58	324.64
476.94	324.44
477.31	324.16
477.67	323.90
478.04	323.78
478.41	323.79
478.77	323.98
479.14	323.97
479.50	324.13
479.87	324.39
480.23	324.72
480.60	324.93
480.96	325.20
481.33	325.81
481.69	326.40
482.06	326.93
482.42	327.39
482.79	328.03
483.15	328.80
483.52	329.76
483.88	330.70
484.25	331.67
484.61	332.69
484.98	333.75
485.34	335.07
485.71	336.43
486.07	337.85
486.44	339.16
486.80	340.74
487.17	342.41
487.53	344.26
487.90	346.15
488.26	348.23
488.62	350.39
488.99	352.39
489.35	354.55
489.72	356.89
490.08	359.44
490.44	361.98
490.81	364.67
491.17	367.34
491.54	370.28
491.90	373.25
492.26	376.50
492.63	379.94
492.99	383.42
493.36	387.08
493.72	390.95
494.08	394.98
494.45	399.17
494.81	403.54
495.17	408.00
495.54	412.61
495.90	417.34
496.26	422.24
496.63	427.47
496.99	432.84
497.35	438.42
497.72	444.18
498.08	450.08
498.44	456.19
498.80	462.61
499.17	469.08
499.53	475.79
499.89	482.57
500.26	489.44
500.62	496.50
500.98	503.77
501.34	511.14
501.71	518.91
502.07	526.70
502.43	534.65
502.79	542.75
503.16	551.11
503.52	559.67
503.88	568.27
504.24	577.19
504.60	586.17
504.97	595.34
505.33	604.55
505.69	614.34
506.05	624.13
506.41	633.92
506.78	643.87
507.14	654.00
507.50	664.38
507.86	674.98
508.22	685.71
508.59	696.40
508.95	707.48
509.31	718.61
509.67	729.99
510.03	741.30
510.39	753.00
510.75	764.83
511.12	776.66
511.48	788.68
511.84	800.84
512.20	813.13
512.56	825.66
512.92	838.40
513.28	850.93
513.64	863.51
514.00	876.24
514.37	889.02
514.73	902.12
515.09	914.97
515.45	927.76
515.81	940.61
516.17	953.82
516.53	966.78
516.89	979.79
517.25	992.80
517.61	1006.14
517.97	1019.27
518.33	1032.21
518.69	1045.54
519.05	1059.10
519.41	1072.49
519.77	1086.07
520.13	1099.24
520.49	1112.24
520.85	1125.39
521.21	1138.67
521.57	1152.07
521.93	1165.02
522.29	1178.48
522.65	1191.97
523.01	1205.39
523.37	1218.27
523.73	1231.23
524.09	1244.26
524.45	1257.26
524.81	1270.50
525.17	1283.56
525.53	1296.43
525.89	1309.44
526.25	1322.23
526.61	1334.82
526.97	1347.63
527.33	1360.24
527.68	1373.38
528.04	1386.49
528.40	1399.32
528.76	1412.26
529.12	1424.74
529.48	1437.84
529.84	1449.76
530.20	1462.23
530.56	1474.56
530.91	1487.58
531.27	1500.26
531.63	1512.67
531.99	1525.20
532.35	1537.04
532.71	1549.17
533.07	1561.80
533.42	1573.69
533.78	1585.57
534.14	1597.30
534.50	1608.19
534.86	1619.56
535.21	1630.09
535.57	1641.33
535.93	1652.30
536.29	1663.07
536.65	1674.32
537.00	1684.91
537.36	1695.98
537.72	1706.60
538.08	1717.54
538.44	1728.20
538.79	1738.88
539.15	1749.39
539.51	1759.77
539.87	1770.74
540.22	1781.11
540.58	1791.65
540.94	1802.17
541.29	1812.13
541.65	1821.60
542.01	1831.91
542.37	1841.63
542.72	1851.54
543.08	1861.05
543.44	1871.13
543.79	1880.15
544.15	1889.33
544.51	1899.07
544.87	1908.54
545.22	1917.37
545.58	1925.88
545.94	1934.40
546.29	1942.70
546.65	1950.79
547.01	1958.83
547.36	1966.34
547.72	1974.01
548.07	1981.30
548.43	1988.90
548.79	1996.60
549.14	2004.51
549.50	2012.75
549.86	2020.36
550.21	2027.41
550.57	2034.75
550.92	2041.38
551.28	2048.68
551.64	2055.73
551.99	2063.00
552.35	2070.09
552.70	2076.75
553.06	2083.37
553.41	2089.39
553.77	2095.70
554.13	2101.88
554.48	2108.67
554.84	2115.67
555.19	2122.02
555.55	2128.44
555.90	2134.65
556.26	2141.23
556.61	2147.10
556.97	2151.73
557.32	2157.50
557.68	2163.89
558.03	2169.39
558.39	2174.60
558.74	2180.45
559.10	2185.91
559.45	2191.22
559.81	2196.66
560.16	2202.26
560.52	2208.16
560.87	2214.72
561.23	2220.68
561.58	2227.42
561.94	2232.73
562.29	2237.45
562.64	2243.53
563.00	2249.12
563.35	2254.60
563.71	2260.46
564.06	2266.08
564.42	2271.94
564.77	2276.94
565.12	2282.14
565.48	2287.52
565.83	2293.05
566.19	2298.51
566.54	2303.98
566.89	2308.82
567.25	2313.47
567.60	2319.18
567.96	2324.41
568.31	2328.75
568.66	2332.92
569.02	2336.74
569.37	2340.37
569.72	2344.79
570.08	2348.34
570.43	2351.42
570.78	2354.53
571.14	2357.02
571.49	2360.29
571.84	2364.02
572.20	2367.14
572.55	2370.28
572.90	2372.68
573.26	2375.74
573.61	2378.33
573.96	2380.58
574.31	2382.61
574.67	2384.67
575.02	2385.68
575.37	2386.97
575.72	2388.07
576.08	2389.70
576.43	2390.22
576.78	2391.12
577.13	2392.85
577.49	2394.10
577.84	2395.57
578.19	2397.19
578.54	2398.08
578.90	2399.07
579.25	2399.11
579.60	2399.17
579.95	2398.56
580.30	2398.82
580.66	2398.15
581.01	2396.69
581.36	2394.57
581.71	2393.52
582.06	2392.68
582.42	2391.94
582.77	2390.16
583.12	2388.76
583.47	2387.69
583.82	2387.30
584.17	2386.14
584.53	2384.15
584.88	2382.18
585.23	2380.28
585.58	2378.07
585.93	2376.03
586.28	2374.15
586.63	2371.89
586.98	2369.91
587.34	2368.24
587.69	2366.14
588.04	2364.27
588.39	2363.05
588.74	2360.71
589.09	2358.03
589.44	2354.94
589.79	2352.71
590.14	2351.11
590.49	2348.38
590.84	2344.80
591.19	2341.87
591.54	2338.56
591.89	2334.66
592.25	2331.73
592.60	2327.78
592.95	2323.85
593.30	2319.87
593.65	2315.51
594.00	2311.38
594.35	2308.51
594.70	2303.92
595.05	2299.41
595.40	2294.03
595.75	2288.63
596.10	2285.08
596.45	2280.44
596.80	2276.06
597.15	2270.83
597.50	2264.68
597.85	2259.88
598.19	2254.62
598.54	2248.87
598.89	2243.99
599.24	2239.67
599.59	2233.66
599.94	2228.19
600.29	2222.43
600.64	2216.71
600.99	2210.06
601.34	2204.66
601.69	2197.67
602.04	2191.38
602.39	2184.88
602.74	2179.11
603.08	2173.46
603.43	2167.04
603.78	2160.34
604.13	2153.29
604.48	2146.31
604.83	2140.47
605.18	2134.23
605.53	2127.41
605.87	2120.31
606.22	2113.67
606.57	2105.80
606.92	2097.99
607.27	2090.96
607.62	2084.34
607.96	2077.26
608.31	2070.78
608.66	2063.12
609.01	2055.70
609.36	2048.67
609.70	2041.05
610.05	2033.28
610.40	2025.11
610.75	2016.99
611.10	2009.35
611.44	2000.70
611.79	1991.94
612.14	1981.91
612.49	1971.50
612.83	1962.31
613.18	1953.28
613.53	1944.04
613.88	1934.53
614.22	1925.93
614.57	1915.98
614.92	1905.51
615.27	1895.47
615.61	1885.53
615.96	1875.88
616.31	1866.26
616.65	1856.94
617.00	1847.12
617.35	1837.57
617.70	1827.80
618.04	1817.74
618.39	1807.45
618.74	1797.62
619.08	1788.00
619.43	1779.35
619.78	1771.09
620.12	1762.53
620.47	1752.82
620.82	1742.43
621.16	1732.72
621.51	1722.85
621.85	1713.02
622.20	1702.64
622.55	1692.14
622.89	1682.31
623.24	1672.43
623.59	1662.78
623.93	1652.56
624.28	1642.80
624.62	1632.70
624.97	1622.41
625.32	1612.70
625.66	1603.96
626.01	1595.21
626.35	1586.00
626.70	1575.99
627.04	1565.96
627.39	1555.83
627.73	1546.57
628.08	1537.69
628.43	1528.15
628.77	1518.87
629.12	1510.06
629.46	1502.10
629.81	1493.74
630.15	1484.15
630.50	1474.45
630.84	1463.97
631.19	1454.12
631.53	1444.70
631.88	1434.61
632.22	1424.66
632.57	1415.33
632.91	1405.15
633.26	1395.32
633.60	1385.55
633.95	1376.31
634.29	1366.86
634.64	1357.42
634.98	1347.62
635.32	1338.20
635.67	1329.59
636.01	1320.42
636.36	1310.80
636.70	1301.32
637.05	1292.01
637.39	1283.07
637.73	1274.48
638.08	1266.86
638.42	1258.65
638.77	1249.91
639.11	1241.57
639.45	1233.73
639.80	1225.03
640.14	1216.45
640.49	1207.67
640.83	1199.07
641.17	1190.93
641.52	1182.67
641.86	1174.22
642.20	1166.39
642.55	1157.88
642.89	1149.04
643.23	1140.30
643.58	1132.16
643.92	1123.18
644.26	1114.52
644.61	1106.10
644.95	1097.41
645.29	1088.24
645.64	1079.22
645.98	1071.00
646.32	1063.21
646.66	1054.80
647.01	1046.63
647.35	1038.47
647.69	1030.12
648.04	1021.74
648.38	1012.90
648.72	1004.25
649.06	995.80
649.41	987.61
649.75	979.66
650.09	971.85
650.43	963.87
650.78	955.67
651.12	948.11
651.46	940.71
651.80	933.48
652.14	926.15
652.49	918.66
652.83	911.37
653.17	903.57
653.51	895.89
653.85	888.61
654.20	881.33
654.54	873.73
654.88	866.62
655.22	859.48
655.56	852.49
655.90	845.72
656.25	839.17
656.59	832.27
656.93	825.38
657.27	818.34
657.61	811.52
657.95	805.48
658.29	799.59
658.64	793.49
658.98	787.16
659.32	780.71
659.66	774.53
660.00	768.17
660.34	762.21
660.68	756.20
661.02	750.00
661.36	744.17
661.70	738.59
662.05	733.00
662.39	727.60
662.73	722.28
663.07	716.97
663.41	711.48
663.75	705.88
664.09	700.29
664.43	694.95
664.77	689.60
665.11	683.77
665.45	677.96
665.79	672.28
666.13	666.63
666.47	661.15
666.81	655.81
667.15	650.57
667.49	645.49
667.83	640.34
668.17	635.22
668.51	630.17
668.85	625.32
669.19	620.42
669.53	615.49
669.87	610.50
670.21	605.82
670.55	601.09
670.89	596.74
671.23	592.55
671.57	588.19
671.91	584.02
672.25	579.98
672.58	575.90
672.92	571.90
673.26	568.06
673.60	564.34
673.94	560.55
674.28	557.01
674.62	553.26
674.96	549.55
675.30	546.09
675.64	542.47
675.97	538.92
676.31	535.43
676.65	531.92
676.99	528.50
677.33	524.72
677.67	521.12
678.01	517.26
678.34	513.61
678.68	510.20
679.02	506.62
679.36	502.97
679.70	499.41
680.04	495.92
680.37	492.49
680.71	489.18
681.05	486.07
681.39	482.86
681.73	479.74
682.06	476.82
682.40	473.75
682.74	470.60
683.08	467.45
683.42	464.33
683.75	461.40
684.09	458.45
684.43	455.73
684.77	452.85
685.10	450.10
685.44	447.23
685.78	444.29
686.12	441.58
686.45	438.93
686.79	436.32
687.13	433.84
687.46	431.30
687.80	428.68
688.14	425.91
688.48	423.32
688.81	420.73
689.15	418.18
689.49	415.64
689.82	413.18
690.16	410.68
690.50	408.27
690.83	405.83
691.17	403.33
691.51	400.87
691.84	398.72
692.18	396.59
692.52	394.44
692.85	392.37
693.19	390.26
693.52	388.12
693.86	385.95
694.20	383.77
694.53	381.69
694.87	379.51
695.21	377.43
695.54	375.33
695.88	373.24
696.21	371.07
696.55	368.99
696.88	367.01
697.22	365.11
697.56	363.26
697.89	361.40
698.23	359.69
698.56	357.91
698.90	356.17
699.23	354.27
699.57	352.41
699.90	350.63
700.24	348.88
700.58	347.15
700.91	345.60
701.25	344.06
701.58	342.48
701.92	340.96
702.25	339.41
702.59	337.85
702.92	336.36
703.26	334.81
703.59	333.33
703.93	332.07
704.26	330.63
704.60	329.14
704.93	327.66
705.26	326.21
705.60	324.82
705.93	323.33
706.27	322.05
706.60	320.84
706.94	319.61
707.27	318.23
707.61	316.93
707.94	315.59
708.27	314.15
708.61	312.78
708.94	311.43
709.28	310.16
709.61	308.93
709.94	307.71
710.28	306.56
710.61	305.42
710.95	304.06
711.28	303.02
711.61	301.87
711.95	300.74
712.28	299.60
712.61	298.48
712.95	297.44
713.28	296.44
713.61	295.29
713.95	294.16
714.28	293.21
714.61	292.20
714.95	291.19
715.28	290.20
715.61	289.19
715.95	288.31
716.28	287.37
716.61	286.46
716.95	285.51
717.28	284.55
717.61	283.65
717.94	282.77
718.28	281.73
718.61	280.87
718.94	279.99
719.27	279.17
719.61	278.31
719.94	277.47
720.27	276.51
720.60	275.69
720.94	274.90
721.27	274.12
721.60	273.45
721.93	272.74
722.27	272.15
722.60	271.51
722.93	270.81
723.26	270.18
723.59	269.51
723.93	268.94
724.26	268.34
724.59	267.70
724.92	267.12
725.25	266.65
725.59	266.09
725.92	265.63
726.25	265.05
726.58	264.51
726.91	263.95
727.24	263.42
727.57	262.90
727.91	262.35
728.24	261.89
728.57	261.34
728.90	260.82
729.23	260.19
729.56	259.77
729.89	259.20
730.22	258.64
730.55	258.07
730.89	257.55
731.22	257.01
731.55	256.50
731.88	256.00
732.21	255.43
732.54	254.93
732.87	254.38
733.20	253.91
733.53	253.45
733.86	253.01
734.19	252.53
734.52	252.13
734.85	251.83
735.18	251.34
735.51	250.96
735.84	250.53
736.17	250.15
736.50	249.61
736.83	249.47
737.16	249.13
737.49	248.80
737.82	248.35
738.15	248.03
738.48	247.68
738.81	247.31
739.14	246.90
739.47	246.53
739.80	246.17
740.13	245.85
740.46	245.45
740.79	245.03
741.12	244.71
741.45	244.33
741.78	243.91
742.11	243.64
742.44	243.25
742.77	242.96
743.10	242.58
743.43	242.25
743.75	241.70
744.08	241.62
744.41	241.23
744.74	240.91
745.07	240.54
745.40	240.23
745.73	239.98
746.06	239.70
746.39	239.40
746.71	239.07
747.04	238.73
747.37	238.46
747.70	238.20
748.03	237.92
748.36	237.66
748.68	237.37
749.01	237.01
749.34	236.74
749.67	236.45
750.00	236.22
750.33	236.10
750.65	235.87
750.98	235.35
751.31	235.15
751.64	234.96
751.97	234.81
752.29	234.54
752.62	234.20
752.95	233.92
753.28	233.67
753.60	233.44
753.93	233.29
754.26	233.07
754.59	232.82
754.91	232.56
755.24	232.32
755.57	232.04
755.90	231.83
756.22	231.59
756.55	231.35
756.88	231.13
757.20	230.81
757.53	230.53
757.86	230.30
758.19	230.10
758.51	229.87
758.84	229.60
759.17	229.45
759.49	229.33
759.82	229.27
760.15	229.09
760.47	228.94
760.80	228.68
761.13	228.50
761.45	228.32
761.78	228.14
762.11	227.99
762.43	227.87
762.76	227.69
763.08	227.56
763.41	227.43
763.74	227.30
764.06	227.11
764.39	226.98
764.71	226.83
765.04	226.67
765.37	226.53
765.69	226.41
766.02	226.23
766.34	226.06
766.67	225.88
767.00	225.81
767.32	225.76
767.65	225.75
767.97	225.61
768.30	225.50
768.62	225.40
768.95	225.23
769.27	225.09
769.60	225.03
769.92	224.86
770.25	224.71
770.57	224.52
770.90	224.43
771.22	224.29
771.55	224.21
771.87	224.10
772.20	223.99
772.52	224.03
772.85	224.20
773.17	224.12
773.50	223.99
773.82	223.86
774.15	223.67
774.47	223.47
774.80	223.41
775.12	223.32
775.45	223.23
775.77	223.20
776.09	223.10
776.42	222.98
776.74	222.95
777.07	222.84
777.39	222.78
777.72	222.67
778.04	222.63
778.36	222.58
778.69	222.49
779.01	222.40
779.33	222.16
779.66	221.83
779.98	221.74
780.31	221.65
780.63	221.64
780.95	221.61
781.28	221.52
781.60	221.41
781.92	221.33
782.25	221.23
782.57	221.14
782.89	221.06
783.22	220.98
783.54	220.90
783.86	220.89
784.19	220.83
784.51	220.83
784.83	220.78
785.16	220.67
785.48	220.63
785.80	220.59
786.12	220.53
786.45	220.46
786.77	220.42
787.09	220.36
787.42	220.25
787.74	220.21
788.06	220.17
788.38	220.12
788.71	220.06
789.03	220.03
789.35	219.99
789.67	219.95
789.99	219.93
790.32	219.84
790.64	219.82
790.96	219.94
791.28	219.84
791.61	219.77
791.93	219.73
792.25	219.69
792.57	219.79
792.89	219.70
793.21	219.67
793.54	219.60
793.86	219.55
794.18	219.51
794.50	219.40
794.82	219.35
795.14	219.33
795.47	219.31
795.79	219.28
796.11	219.20
796.43	219.14
796.75	219.07
797.07	219.08
797.39	218.99
797.71	218.79
798.04	218.76
798.36	218.71
798.68	218.70
799.00	218.66
799.32	218.50
799.64	218.53
799.96	218.49
800.28	218.51
800.60	218.47
800.92	218.48
801.24	218.43
801.56	218.41
801.89	218.36
802.21	218.36
802.53	218.27
802.85	218.31
803.17	218.39
803.49	218.34
803.81	218.26
804.13	218.25
804.45	218.20
804.77	218.19
805.09	218.18
805.41	218.12
805.73	218.05
806.05	218.01
806.37	217.93
806.69	217.91
807.01	217.84
807.33	217.81
807.65	217.67
807.97	217.71
808.28	217.68
808.60	217.61
808.92	217.53
809.24	217.66
809.56	217.58
809.88	217.47
810.20	217.47
810.52	217.50
810.84	217.44
811.16	217.38
811.48	217.33
811.80	217.36
812.12	217.37
812.43	217.38
812.75	217.38
813.07	217.37
813.39	217.33
813.71	217.30
814.03	217.24
814.35	217.24
814.67	217.15
814.98	217.09
815.30	217.08
815.62	217.03
815.94	216.85
816.26	216.83
816.58	216.78
816.89	216.77
817.21	216.71
817.53	216.70
817.85	216.70
818.17	216.67
818.48	216.57
818.80	216.55
819.12	216.49
819.44	216.42
819.76	216.33
820.07	216.31
820.39	216.26
820.71	216.29
821.03	216.27
821.34	216.27
821.66	216.33
821.98	216.34
822.30	216.34
822.61	216.48
822.93	216.46
823.25	216.45
823.57	216.42
823.88	216.45
824.20	216.45
824.52	216.50
824.83	216.49
825.15	216.45
825.47	216.47
825.79	216.43
826.10	216.42
826.42	216.43
826.74	216.47
827.05	216.45
827.37	216.45
827.69	216.42
828.00	216.41
828.32	216.35
828.64	216.30
828.95	216.37
829.27	216.30
829.58	216.29
829.90	216.31
830.22	216.30
830.53	216.23
830.85	216.15
831.17	216.08
831.48	216.06
831.80	216.09
832.11	216.05
832.43	216.07
832.75	216.07
833.06	216.21
833.38	216.10
833.69	216.08
834.01	216.08
834.32	216.09
834.64	216.06
834.96	216.08
835.27	216.08
835.59	216.04
835.90	215.94
836.22	215.92
836.53	215.89
836.85	215.87
837.16	216.06
837.48	216.09
837.79	216.12
838.11	216.16
838.42	216.12
838.74	216.14
839.05	216.11
839.37	216.07
839.68	215.93
840.00	215.96
840.31	216.00
840.63	215.97
840.94	215.95
841.26	215.94
841.57	215.94
841.88	215.95
842.20	215.92
842.51	215.92
842.83	215.91
843.14	216.07
843.46	216.08
843.77	215.96
844.08	215.97
844.40	215.92
844.71	215.86
845.03	215.89
845.34	215.85
845.65	215.84
845.97	215.89
846.28	215.91
846.60	215.90
846.91	215.86
847.22	215.83
847.54	215.85
847.85	215.84
848.16	215.80
848.48	215.77
848.79	215.87
849.10	215.92
849.42	215.93
849.73	215.75
850.04	215.73
850.36	215.65
850.67	215.65
850.98	215.66
851.30	215.67
851.61	215.61
851.92	215.59
852.23	215.64
852.55	215.59
852.86	215.56
853.17	215.61
853.49	215.66
853.80	215.72
854.11	215.75
854.42	215.78
854.74	215.78
855.05	215.78
855.36	215.63
855.67	215.61
855.99	215.60
856.30	215.84
856.61	215.83
856.92	215.83
857.23	215.82
857.55	215.79
857.86	215.78
858.17	215.83
858.48	215.79
858.79	215.75
859.11	215.80
859.42	215.81
859.73	215.72
860.04	215.68
860.35	215.62
860.66	215.53
860.98	215.51
861.29	215.53
861.60	215.53
861.91	215.59
862.22	215.54
862.53	215.52
862.84	215.24
863.16	215.28
863.47	215.22
863.78	215.21
864.09	215.23
864.40	215.21
864.71	215.22
865.02	215.28
865.33	215.25
865.64	215.19
865.95	215.19
866.27	215.36
866.58	215.35
866.89	215.36
867.20	215.36
867.51	215.33
867.82	215.31
868.13	215.34
868.44	215.29
868.75	215.33
869.06	215.33
869.37	215.36
869.68	215.30
869.99	215.36
870.30	215.37
870.61	215.37
870.92	215.40
871.23	215.37
871.54	215.36
871.85	215.42
872.16	215.46
872.47	215.42
872.78	215.29
873.09	215.28
873.40	215.26
873.71	215.28
874.02	215.29
874.33	215.24
874.64	215.21
874.95	215.23
875.26	215.18
875.56	215.18
875.87	215.20
876.18	215.16
876.49	215.35
876.80	215.34
877.11	215.29
877.42	215.29
877.73	215.29
878.04	215.26
878.35	215.25
878.66	215.25
878.96	215.29
879.27	215.29
879.58	215.31
879.89	215.30
880.20	215.35
880.51	215.35
880.82	215.40
881.12	215.40
881.43	215.35
881.74	215.35
882.05	215.34
882.36	215.34
882.67	215.37
882.97	215.18
883.28	215.15
883.59	215.15
883.90	215.12
884.21	215.14
884.51	215.15
884.82	215.11
885.13	215.11
885.44	215.06
885.74	215.02
886.05	215.01
886.36	215.02
886.67	214.91
886.98	215.01
887.28	215.00
887.59	214.99
887.90	215.02
888.20	214.97
888.51	214.99
888.82	214.96
889.13	214.95
889.43	215.11
889.74	215.11
890.05	215.14
890.35	215.14
890.66	215.10
890.97	215.07
891.28	215.07
891.58	215.05
891.89	215.06
892.20	215.06
892.50	215.03
892.81	215.02
893.12	215.07
893.42	214.95
893.73	214.97
894.04	214.97
894.34	214.99
894.65	215.03
894.95	215.02
895.26	215.06
895.57	215.17
895.87	214.97
896.18	215.00
896.48	214.98
896.79	215.01
897.10	215.04
897.40	215.08
897.71	215.07
898.01	215.06
898.32	215.09
898.63	215.07
898.93	215.08
899.24	215.09
899.54	215.06
899.85	215.06
900.15	215.04
900.46	215.05
900.76	215.04
901.07	215.00
901.38	215.01
901.68	215.00
901.99	214.93
902.29	214.94
902.60	214.92
902.90	214.93
903.21	214.91
903.51	214.89
903.82	214.91
904.12	214.91
904.43	214.93
904.73	214.93
905.03	214.95
905.34	215.15
905.64	215.16
905.95	215.16
906.25	215.16
906.56	215.17
906.86	215.15
907.17	215.15
907.47	215.18
907.77	215.12
908.08	215.07
908.38	215.07
908.69	215.09
908.99	215.14
909.30	215.13
909.60	215.16
909.90	215.17
910.21	215.15
910.51	215.15
910.81	215.15
911.12	215.14
911.42	215.13
911.73	214.92
912.03	214.90
912.33	214.97
912.64	214.98
912.94	214.96
913.24	214.94
913.55	214.88
913.85	214.88
914.15	214.95
914.46	214.99
914.76	214.95
915.06	214.93
915.37	214.87
915.67	214.88
915.97	214.83
916.27	214.81
916.58	214.79
916.88	214.77
917.18	214.74
917.49	214.88
917.79	214.90
918.09	214.96
918.39	215.01
918.70	215.00
919.00	215.00
919.30	215.08
919.60	215.09
919.91	215.08
920.21	215.07
920.51	215.02
920.81	215.00
921.12	215.05
921.42	215.05
921.72	215.04
922.02	215.04
922.32	215.08
922.63	215.06
922.93	215.16
923.23	215.16
923.53	215.13
923.83	214.98
924.13	215.00
924.44	214.98
924.74	214.99
925.04	214.99
925.34	215.00
925.64	214.93
925.94	214.92
926.24	215.05
926.55	215.06
926.85	215.09
927.15	215.09
927.45	215.07
927.75	215.07
928.05	215.08
928.35	215.09
928.65	215.12
928.95	215.17
929.26	215.09
929.56	215.12
929.86	215.17
930.16	215.17
930.46	215.13
930.76	215.13
931.06	215.07
931.36	215.05
931.66	215.08
931.96	215.11
932.26	215.13
932.56	215.05
932.86	215.06
933.16	215.06
933.46	215.04
933.76	215.00
934.06	215.04
934.36	215.12
934.66	215.10
934.96	215.09
935.26	215.07
935.56	215.11
935.86	215.11
936.16	215.08
936.46	215.06
936.76	215.06
937.06	215.02
937.36	215.03
937.66	215.01
937.96	214.97
938.26	214.95
938.56	214.94
938.86	214.95
939.16	214.98
939.46	215.00
939.76	215.03
940.06	215.07
940.35	215.03
940.65	214.92
940.95	214.91
941.25	214.86
941.55	214.85
941.85	214.85
942.15	214.89
942.45	214.92
942.75	214.91
943.04	214.93
943.34	215.00
943.64	214.96
943.94	214.92
944.24	214.93
944.54	214.91
944.84	214.93
945.13	214.90
945.43	214.85
945.73	214.82
946.03	214.79
946.33	214.77
946.62	214.75
946.92	214.77
947.22	214.80
947.52	214.83
947.82	214.85
948.11	214.79
948.41	214.72
948.71	214.68
949.01	214.72
949.31	214.72
949.60	214.69
949.90	214.77
950.20	214.78
950.50	214.77
950.79	214.76
951.09	214.76
951.39	214.73
951.69	214.71
951.98	214.77
952.28	214.77
952.58	214.77
952.87	214.74
953.17	214.73
953.47	214.69
953.76	214.69
954.06	214.63
954.36	214.63
954.66	214.60
954.95	214.68
955.25	214.66
955.55	214.65
955.84	214.60
956.14	214.58
956.44	214.61
956.73	214.58
957.03	214.59
957.32	214.56
957.62	214.55
957.92	214.60
958.21	214.55
958.51	214.78
958.81	214.83
959.10	214.86
959.40	214.91
959.69	214.91
959.99	214.90
960.29	214.92
960.58	214.88
960.88	214.98
961.17	214.89
961.47	214.94
961.76	214.92
962.06	214.95
962.36	214.89
962.65	214.88
962.95	214.91
963.24	214.89
963.54	214.90
963.83	214.96
964.13	214.97
964.42	214.93
964.72	214.78
965.01	214.76
965.31	214.72
965.60	214.67
965.90	214.81
966.19	214.79
966.49	214.81
966.78	214.83
967.08	214.81
967.37	214.85
967.67	214.77
967.96	214.81
968.26	214.80
968.55	214.87
968.85	214.84
969.14	214.84
969.43	214.84
969.73	214.83
970.02	214.80
970.32	214.78
970.61	214.78
970.91	214.74
971.20	214.70
971.49	214.72
971.79	214.78
972.08	214.65
972.38	214.65
972.67	214.63
972.96	214.66
973.26	214.62
973.55	214.66
973.85	214.69
974.14	214.66
974.43	214.66
974.73	214.60
975.02	214.62
975.31	214.61
975.61	214.61
975.90	214.55
976.19	214.52
976.49	214.53
976.78	214.53
977.07	214.51
977.37	214.53
977.66	214.55
977.95	214.51
978.24	214.50
978.54	214.55
978.83	214.53
979.12	214.51
979.42	214.50
979.71	214.46
980.00	214.44
980.29	214.48
980.59	214.50
980.88	214.56
981.17	214.59
981.46	214.60
981.76	214.59
982.05	214.69
982.34	214.71
982.63	214.71
982.93	214.76
983.22	214.80
983.51	214.81
983.80	214.85
984.09	214.85
984.39	214.83
984.68	214.82
984.97	214.81
985.26	214.81
985.55	214.84
985.85	214.79
986.14	214.82
986.43	214.79
986.72	214.75
987.01	214.68
987.30	214.65
987.59	214.61
987.89	214.61
988.18	214.55
988.47	214.53
988.76	214.51
989.05	214.44
989.34	214.42
989.63	214.46
989.92	214.38
990.22	214.36
990.51	214.39
990.80	214.36
991.09	214.41
991.38	214.43
991.67	214.42
991.96	214.42
992.25	214.42
992.54	214.39
992.83	214.41
993.12	214.42
993.41	214.47
993.70	214.58
993.99	214.66
994.28	214.69
994.58	214.75
994.87	214.72
995.16	214.73
995.45	214.71
995.74	214.63
996.03	214.69
996.32	214.70
996.61	214.73
996.90	214.74
997.19	214.68
997.48	214.67
997.77	214.60
998.06	214.59
998.34	214.56
998.63	214.58
998.92	214.56
999.21	214.56
999.50	214.55
999.79	214.47
1000.08	214.44
1000.37	214.42
1000.66	214.38
1000.95	214.45
1001.24	214.46
1001.53	214.49
1001.82	214.52
1002.11	214.45
1002.40	214.49
1002.68	214.53
1002.97	214.70
1003.26	214.72
1003.55	214.68
1003.84	214.76
1004.13	214.86
1004.42	214.87
1004.71	214.86
1004.99	214.86
1005.28	214.92
1005.57	214.91
1005.86	214.91
1006.15	214.87
1006.44	214.84
1006.72	214.89
1007.01	214.85
1007.30	214.85
1007.59	214.84
1007.88	214.84
1008.17	214.88
1008.45	214.81
1008.74	214.73
1009.03	214.62
1009.32	214.64
1009.60	214.65
1009.89	214.64
1010.18	214.54
1010.47	214.54
1010.76	214.56
1011.04	214.54
1011.33	214.59
1011.62	214.57
1011.91	214.58
1012.19	214.63
1012.48	214.66
1012.77	214.63
1013.05	214.74
1013.34	214.76
1013.63	214.74
1013.92	214.73
1014.20	214.72
1014.49	214.75
1014.78	214.79
1015.06	214.72
1015.35	214.69
1015.64	214.73
1015.92	214.77
1016.21	214.77
1016.50	214.78
1016.78	214.79
1017.07	214.83
1017.36	214.73
1017.64	214.71
1017.93	214.73
1018.22	214.71
1018.50	214.70
1018.79	214.70
1019.08	214.58
1019.36	214.59
1019.65	214.56
1019.93	214.57
1020.22	214.59
1020.51	214.71
1020.79	214.64
1021.08	214.58
1021.36	214.39
1021.65	214.51
1021.94	214.57
1022.22	214.78
1022.51	213.94
1022.79	214.69
1023.08	214.68
1023.36	217.17
1023.65	213.64
>>>>>End Processed Spectral Data<<<<<
