SpectraSuite Data File
++++++++++++++++++++++++++++++++++++
Date: Tue Jan 29 16:00:18 EST 2013
User: group
Dark Spectrum Present: No
Reference Spectrum Present: No
Number of Sampled Component Spectra: 1
Spectrometers: USB2E7196
Integration Time (usec): 65000 (USB2E7196)
Spectra Averaged: 100 (USB2E7196)
Boxcar Smoothing: 10 (USB2E7196)
Correct for Electrical Dark: No (USB2E7196)
Strobe/Lamp Enabled: No (USB2E7196)
Correct for Detector Non-linearity: No (USB2E7196)
Correct for Stray Light: No (USB2E7196)
Number of Pixels in Processed Spectrum: 2048
>>>>>Begin Processed Spectral Data<<<<<
339.09	0.00
339.48	202.71
339.86	204.40
340.24	205.58
340.63	207.55
341.01	211.35
341.39	210.27
341.78	210.99
342.16	213.15
342.54	213.23
342.93	201.95
343.31	212.17
343.69	212.71
344.07	213.16
344.46	213.62
344.84	214.00
345.22	214.18
345.60	214.45
345.99	214.66
346.37	214.77
346.75	214.84
347.13	214.97
347.52	215.04
347.90	215.16
348.28	215.18
348.66	215.24
349.05	215.20
349.43	215.25
349.81	215.34
350.19	215.42
350.57	215.46
350.96	215.57
351.34	215.64
351.72	215.76
352.10	215.87
352.48	215.90
352.87	215.96
353.25	216.03
353.63	216.04
354.01	216.09
354.39	216.15
354.77	216.22
355.15	216.33
355.54	216.37
355.92	216.39
356.30	216.48
356.68	216.70
357.06	216.83
357.44	216.88
357.82	216.92
358.20	216.98
358.58	217.03
358.97	217.11
359.35	217.21
359.73	217.29
360.11	217.33
360.49	217.41
360.87	217.44
361.25	217.51
361.63	217.59
362.01	217.66
362.39	217.69
362.77	217.76
363.15	217.78
363.53	217.82
363.91	217.81
364.29	217.84
364.67	217.64
365.05	217.60
365.43	217.63
365.81	217.64
366.19	217.75
366.57	217.87
366.95	217.90
367.33	217.83
367.71	217.82
368.09	217.84
368.47	217.79
368.85	217.79
369.23	217.83
369.61	217.80
369.99	217.84
370.37	217.86
370.75	217.90
371.13	217.84
371.51	217.81
371.89	217.85
372.27	217.82
372.65	217.83
373.03	217.81
373.41	217.78
373.78	217.75
374.16	217.60
374.54	217.51
374.92	217.44
375.30	217.43
375.68	217.37
376.06	217.36
376.44	217.35
376.82	217.32
377.19	217.26
377.57	217.23
377.95	217.10
378.33	217.01
378.71	216.88
379.09	216.89
379.47	216.86
379.84	216.79
380.22	216.74
380.60	216.65
380.98	216.63
381.36	216.62
381.73	216.56
382.11	216.56
382.49	216.49
382.87	216.43
383.25	216.41
383.62	216.64
384.00	216.57
384.38	216.58
384.76	216.60
385.13	216.65
385.51	216.63
385.89	216.58
386.27	216.60
386.64	216.61
387.02	216.56
387.40	216.52
387.78	216.49
388.15	216.47
388.53	216.47
388.91	216.42
389.29	216.35
389.66	216.36
390.04	216.32
390.42	216.35
390.79	216.36
391.17	216.31
391.55	216.02
391.92	216.04
392.30	216.04
392.68	215.93
393.05	215.88
393.43	215.87
393.81	215.90
394.18	215.86
394.56	215.86
394.94	215.91
395.31	215.88
395.69	215.95
396.06	215.98
396.44	216.00
396.82	215.98
397.19	216.11
397.57	216.11
397.95	216.16
398.32	216.10
398.70	216.15
399.07	216.20
399.45	216.25
399.82	216.26
400.20	216.28
400.58	216.36
400.95	216.36
401.33	216.46
401.70	216.70
402.08	216.79
402.45	216.90
402.83	217.03
403.20	217.17
403.58	217.28
403.95	217.46
404.33	217.59
404.71	217.79
405.08	218.01
405.46	218.18
405.83	218.36
406.21	218.58
406.58	218.79
406.96	219.03
407.33	219.29
407.70	219.59
408.08	220.03
408.45	220.37
408.83	220.75
409.20	221.05
409.58	221.29
409.95	221.75
410.33	222.20
410.70	222.62
411.08	223.14
411.45	223.65
411.82	224.17
412.20	224.85
412.57	225.62
412.95	226.18
413.32	226.99
413.69	227.76
414.07	228.61
414.44	229.59
414.82	230.56
415.19	231.66
415.56	232.80
415.94	233.93
416.31	235.29
416.68	236.65
417.06	238.19
417.43	239.67
417.81	241.34
418.18	243.02
418.55	244.86
418.93	246.82
419.30	248.86
419.67	251.01
420.04	253.20
420.42	255.52
420.79	258.25
421.16	260.93
421.54	263.77
421.91	266.67
422.28	269.64
422.66	272.84
423.03	276.01
423.40	279.24
423.77	282.72
424.15	286.26
424.52	289.96
424.89	293.93
425.26	297.86
425.64	301.63
426.01	305.78
426.38	310.11
426.75	314.48
427.13	319.05
427.50	323.83
427.87	328.86
428.24	333.84
428.61	338.65
428.99	343.93
429.36	349.76
429.73	355.44
430.10	361.12
430.47	366.93
430.85	373.01
431.22	379.53
431.59	386.34
431.96	392.87
432.33	400.15
432.70	407.13
433.08	415.38
433.45	423.10
433.82	430.76
434.19	439.35
434.56	447.73
434.93	455.76
435.30	463.76
435.68	472.59
436.05	481.22
436.42	489.82
436.79	497.69
437.16	506.08
437.53	514.99
437.90	523.77
438.27	532.34
438.64	541.29
439.01	549.42
439.38	556.74
439.75	563.83
440.13	571.87
440.50	579.54
440.87	585.74
441.24	592.11
441.61	599.21
441.98	604.28
442.35	610.39
442.72	616.47
443.09	622.33
443.46	625.82
443.83	628.25
444.20	630.31
444.57	633.29
444.94	634.68
445.31	636.05
445.68	637.36
446.05	638.00
446.42	637.07
446.79	636.19
447.16	635.17
447.53	634.34
447.90	631.12
448.27	627.95
448.64	623.39
449.01	620.20
449.37	614.53
449.74	609.14
450.11	602.40
450.48	595.26
450.85	587.98
451.22	581.70
451.59	575.80
451.96	570.19
452.33	562.68
452.70	555.88
453.07	547.73
453.43	539.43
453.80	531.43
454.17	523.86
454.54	516.61
454.91	508.76
455.28	501.15
455.65	494.06
456.02	486.93
456.38	480.91
456.75	473.40
457.12	467.06
457.49	460.78
457.86	454.94
458.23	449.79
458.59	444.18
458.96	438.56
459.33	433.45
459.70	428.32
460.07	424.22
460.43	419.52
460.80	415.16
461.17	411.38
461.54	407.44
461.91	403.58
462.27	399.63
462.64	396.28
463.01	392.68
463.38	389.14
463.74	385.54
464.11	382.42
464.48	379.66
464.85	376.71
465.21	374.37
465.58	371.78
465.95	368.75
466.32	366.25
466.68	363.71
467.05	361.32
467.42	358.88
467.78	356.33
468.15	353.87
468.52	352.07
468.88	349.68
469.25	347.51
469.62	345.76
469.98	343.90
470.35	342.21
470.72	340.58
471.08	338.87
471.45	337.46
471.82	335.98
472.18	334.40
472.55	333.30
472.92	331.97
473.28	330.89
473.65	329.85
474.02	328.76
474.38	327.92
474.75	327.14
475.11	326.31
475.48	325.79
475.85	325.39
476.21	324.89
476.58	324.58
476.94	324.43
477.31	324.17
477.67	323.95
478.04	323.81
478.41	323.82
478.77	323.98
479.14	323.96
479.50	324.14
479.87	324.46
480.23	324.81
480.60	325.13
480.96	325.40
481.33	326.04
481.69	326.63
482.06	327.20
482.42	327.73
482.79	328.39
483.15	329.18
483.52	330.11
483.88	331.01
484.25	331.97
484.61	332.96
484.98	334.01
485.34	335.35
485.71	336.73
486.07	338.15
486.44	339.47
486.80	341.05
487.17	342.70
487.53	344.52
487.90	346.36
488.26	348.39
488.62	350.53
488.99	352.52
489.35	354.64
489.72	357.00
490.08	359.49
490.44	362.02
490.81	364.75
491.17	367.46
491.54	370.47
491.90	373.49
492.26	376.69
492.63	380.11
492.99	383.61
493.36	387.24
493.72	391.11
494.08	395.11
494.45	399.32
494.81	403.66
495.17	408.10
495.54	412.82
495.90	417.63
496.26	422.58
496.63	427.81
496.99	433.22
497.35	438.75
497.72	444.56
498.08	450.49
498.44	456.58
498.80	462.98
499.17	469.45
499.53	476.15
499.89	483.07
500.26	489.99
500.62	497.01
500.98	504.45
501.34	511.88
501.71	519.64
502.07	527.40
502.43	535.41
502.79	543.46
503.16	551.77
503.52	560.32
503.88	568.98
504.24	577.82
504.60	586.87
504.97	596.05
505.33	605.31
505.69	615.14
506.05	624.97
506.41	634.78
506.78	644.73
507.14	654.93
507.50	665.27
507.86	676.00
508.22	686.77
508.59	697.37
508.95	708.42
509.31	719.56
509.67	730.97
510.03	742.39
510.39	754.18
510.75	765.96
511.12	777.88
511.48	789.95
511.84	802.17
512.20	814.39
512.56	826.97
512.92	839.65
513.28	852.18
513.64	864.76
514.00	877.54
514.37	890.47
514.73	903.43
515.09	916.35
515.45	929.08
515.81	941.92
516.17	955.14
516.53	968.21
516.89	981.34
517.25	994.39
517.61	1007.74
517.97	1020.94
518.33	1033.93
518.69	1047.24
519.05	1060.76
519.41	1074.31
519.77	1088.01
520.13	1101.18
520.49	1114.18
520.85	1127.47
521.21	1140.69
521.57	1154.16
521.93	1167.04
522.29	1180.59
522.65	1194.03
523.01	1207.41
523.37	1220.37
523.73	1233.39
524.09	1246.33
524.45	1259.50
524.81	1272.83
525.17	1285.91
525.53	1298.83
525.89	1312.03
526.25	1324.85
526.61	1337.39
526.97	1350.11
527.33	1362.78
527.68	1375.94
528.04	1389.13
528.40	1401.90
528.76	1414.90
529.12	1427.50
529.48	1440.54
529.84	1452.49
530.20	1465.00
530.56	1477.40
530.91	1490.44
531.27	1503.10
531.63	1515.55
531.99	1528.02
532.35	1539.84
532.71	1551.87
533.07	1564.30
533.42	1576.11
533.78	1587.93
534.14	1599.68
534.50	1610.66
534.86	1621.92
535.21	1632.45
535.57	1643.61
535.93	1654.62
536.29	1665.43
536.65	1676.55
537.00	1687.23
537.36	1698.31
537.72	1708.95
538.08	1719.88
538.44	1730.43
538.79	1741.17
539.15	1751.75
539.51	1762.18
539.87	1773.31
540.22	1783.77
540.58	1794.50
540.94	1804.97
541.29	1814.95
541.65	1824.46
542.01	1834.66
542.37	1844.43
542.72	1854.52
543.08	1864.12
543.44	1874.31
543.79	1883.38
544.15	1892.46
544.51	1902.20
544.87	1911.82
545.22	1920.70
545.58	1929.31
545.94	1937.90
546.29	1945.99
546.65	1954.07
547.01	1962.01
547.36	1969.43
547.72	1977.08
548.07	1984.40
548.43	1991.97
548.79	1999.51
549.14	2007.39
549.50	2015.51
549.86	2023.09
550.21	2030.05
550.57	2037.27
550.92	2043.74
551.28	2050.98
551.64	2058.07
551.99	2065.15
552.35	2071.99
552.70	2078.60
553.06	2085.17
553.41	2091.37
553.77	2097.80
554.13	2104.00
554.48	2110.72
554.84	2117.52
555.19	2123.72
555.55	2130.18
555.90	2136.29
556.26	2142.92
556.61	2148.76
556.97	2153.65
557.32	2159.37
557.68	2165.68
558.03	2171.34
558.39	2176.55
558.74	2182.36
559.10	2188.06
559.45	2193.66
559.81	2199.17
560.16	2204.74
560.52	2210.43
560.87	2216.74
561.23	2222.81
561.58	2229.43
561.94	2234.58
562.29	2239.46
562.64	2245.70
563.00	2251.18
563.35	2256.76
563.71	2262.69
564.06	2268.26
564.42	2274.08
564.77	2279.31
565.12	2284.47
565.48	2289.92
565.83	2295.64
566.19	2301.28
566.54	2306.47
566.89	2311.10
567.25	2315.78
567.60	2321.66
567.96	2327.11
568.31	2331.73
568.66	2335.84
569.02	2339.69
569.37	2343.61
569.72	2348.04
570.08	2351.56
570.43	2354.59
570.78	2357.71
571.14	2360.44
571.49	2363.58
571.84	2367.29
572.20	2370.19
572.55	2373.49
572.90	2375.71
573.26	2378.80
573.61	2381.30
573.96	2383.68
574.31	2385.92
574.67	2387.91
575.02	2388.97
575.37	2390.28
575.72	2391.23
576.08	2392.97
576.43	2393.50
576.78	2394.44
577.13	2396.20
577.49	2397.52
577.84	2399.37
578.19	2401.28
578.54	2402.21
578.90	2403.72
579.25	2403.89
579.60	2404.21
579.95	2403.59
580.30	2404.05
580.66	2403.33
581.01	2401.89
581.36	2399.93
581.71	2398.65
582.06	2397.93
582.42	2397.19
582.77	2395.57
583.12	2394.32
583.47	2393.29
583.82	2392.92
584.17	2391.83
584.53	2389.80
584.88	2388.02
585.23	2386.04
585.58	2383.77
585.93	2381.63
586.28	2379.57
586.63	2377.39
586.98	2375.48
587.34	2373.96
587.69	2372.00
588.04	2370.40
588.39	2369.19
588.74	2366.89
589.09	2364.58
589.44	2361.63
589.79	2359.35
590.14	2357.58
590.49	2354.89
590.84	2351.40
591.19	2348.64
591.54	2345.53
591.89	2341.83
592.25	2338.72
592.60	2334.76
592.95	2330.74
593.30	2326.85
593.65	2322.54
594.00	2318.35
594.35	2315.23
594.70	2310.54
595.05	2305.82
595.40	2300.36
595.75	2295.01
596.10	2291.33
596.45	2286.57
596.80	2282.16
597.15	2276.97
597.50	2271.06
597.85	2266.12
598.19	2260.88
598.54	2255.36
598.89	2250.34
599.24	2245.97
599.59	2240.13
599.94	2234.56
600.29	2228.92
600.64	2223.15
600.99	2216.63
601.34	2211.24
601.69	2204.48
602.04	2198.30
602.39	2191.89
602.74	2186.01
603.08	2180.48
603.43	2174.17
603.78	2167.44
604.13	2160.39
604.48	2153.39
604.83	2147.55
605.18	2141.28
605.53	2134.31
605.87	2127.09
606.22	2120.44
606.57	2112.59
606.92	2104.70
607.27	2097.70
607.62	2091.23
607.96	2084.36
608.31	2077.88
608.66	2070.18
609.01	2062.60
609.36	2055.50
609.70	2047.92
610.05	2040.18
610.40	2031.96
610.75	2023.84
611.10	2016.41
611.44	2007.76
611.79	1999.01
612.14	1988.91
612.49	1978.59
612.83	1969.57
613.18	1960.46
613.53	1951.00
613.88	1941.56
614.22	1932.96
614.57	1923.07
614.92	1912.47
615.27	1902.34
615.61	1892.34
615.96	1882.63
616.31	1873.10
616.65	1863.69
617.00	1853.85
617.35	1844.21
617.70	1834.41
618.04	1824.21
618.39	1813.74
618.74	1804.08
619.08	1794.51
619.43	1785.86
619.78	1777.61
620.12	1768.79
620.47	1759.00
620.82	1748.85
621.16	1738.93
621.51	1728.97
621.85	1719.10
622.20	1708.53
622.55	1697.92
622.89	1687.95
623.24	1678.24
623.59	1668.50
623.93	1658.36
624.28	1648.57
624.62	1638.39
624.97	1628.08
625.32	1618.44
625.66	1609.63
626.01	1600.71
626.35	1591.18
626.70	1580.92
627.04	1570.68
627.39	1560.61
627.73	1551.29
628.08	1542.18
628.43	1532.47
628.77	1523.24
629.12	1514.47
629.46	1506.66
629.81	1498.14
630.15	1488.48
630.50	1478.73
630.84	1468.15
631.19	1458.34
631.53	1449.04
631.88	1438.71
632.22	1428.60
632.57	1419.24
632.91	1409.05
633.26	1399.16
633.60	1389.60
633.95	1380.34
634.29	1371.02
634.64	1361.57
634.98	1351.76
635.32	1342.36
635.67	1333.96
636.01	1324.60
636.36	1314.59
636.70	1304.96
637.05	1295.60
637.39	1286.63
637.73	1277.98
638.08	1270.45
638.42	1262.04
638.77	1253.18
639.11	1245.05
639.45	1237.38
639.80	1228.56
640.14	1219.85
640.49	1210.95
640.83	1202.19
641.17	1194.15
641.52	1185.86
641.86	1177.33
642.20	1169.42
642.55	1160.86
642.89	1151.94
643.23	1143.25
643.58	1135.26
643.92	1126.22
644.26	1117.57
644.61	1109.17
644.95	1100.33
645.29	1091.04
645.64	1081.90
645.98	1073.47
646.32	1065.57
646.66	1056.97
647.01	1048.66
647.35	1040.60
647.69	1032.16
648.04	1023.74
648.38	1014.72
648.72	1005.93
649.06	997.43
649.41	989.23
649.75	981.24
650.09	973.26
650.43	965.27
650.78	957.05
651.12	949.46
651.46	942.15
651.80	934.87
652.14	927.54
652.49	920.04
652.83	912.78
653.17	904.99
653.51	897.30
653.85	889.97
654.20	882.68
654.54	875.00
654.88	867.96
655.22	860.76
655.56	853.84
655.90	847.06
656.25	840.40
656.59	833.40
656.93	826.39
657.27	819.36
657.61	812.52
657.95	806.46
658.29	800.54
658.64	794.33
658.98	787.98
659.32	781.40
659.66	775.17
660.00	768.85
660.34	762.96
660.68	756.83
661.02	750.67
661.36	744.93
661.70	739.29
662.05	733.59
662.39	728.19
662.73	722.91
663.07	717.60
663.41	712.10
663.75	706.49
664.09	700.90
664.43	695.55
664.77	690.12
665.11	684.28
665.45	678.42
665.79	672.65
666.13	666.95
666.47	661.50
666.81	656.12
667.15	650.82
667.49	645.61
667.83	640.45
668.17	635.18
668.51	630.03
668.85	625.15
669.19	620.33
669.53	615.39
669.87	610.27
670.21	605.48
670.55	600.77
670.89	596.46
671.23	592.23
671.57	587.91
671.91	583.70
672.25	579.69
672.58	575.59
672.92	571.61
673.26	567.68
673.60	563.89
673.94	560.09
674.28	556.47
674.62	552.79
674.96	549.15
675.30	545.75
675.64	542.18
675.97	538.64
676.31	535.09
676.65	531.53
676.99	528.16
677.33	524.44
677.67	520.84
678.01	516.97
678.34	513.38
678.68	509.94
679.02	506.37
679.36	502.64
679.70	499.08
680.04	495.63
680.37	492.32
680.71	489.11
681.05	486.00
681.39	482.88
681.73	479.79
682.06	476.81
682.40	473.70
682.74	470.55
683.08	467.42
683.42	464.24
683.75	461.33
684.09	458.37
684.43	455.56
684.77	452.66
685.10	449.96
685.44	447.04
685.78	444.15
686.12	441.48
686.45	438.79
686.79	436.19
687.13	433.66
687.46	431.07
687.80	428.46
688.14	425.67
688.48	423.07
688.81	420.38
689.15	417.87
689.49	415.34
689.82	412.84
690.16	410.32
690.50	407.86
690.83	405.38
691.17	402.87
691.51	400.54
691.84	398.43
692.18	396.21
692.52	394.11
692.85	392.02
693.19	389.94
693.52	387.86
693.86	385.66
694.20	383.54
694.53	381.44
694.87	379.22
695.21	377.18
695.54	375.01
695.88	372.96
696.21	370.80
696.55	368.72
696.88	366.73
697.22	364.75
697.56	362.95
697.89	361.16
698.23	359.46
698.56	357.71
698.90	355.93
699.23	354.02
699.57	352.17
699.90	350.38
700.24	348.59
700.58	346.81
700.91	345.22
701.25	343.70
701.58	342.16
701.92	340.65
702.25	339.06
702.59	337.53
702.92	335.99
703.26	334.48
703.59	333.09
703.93	331.86
704.26	330.50
704.60	329.03
704.93	327.56
705.26	326.11
705.60	324.66
705.93	323.22
706.27	321.97
706.60	320.75
706.94	319.53
707.27	318.20
707.61	316.94
707.94	315.61
708.27	314.13
708.61	312.67
708.94	311.34
709.28	310.12
709.61	308.93
709.94	307.80
710.28	306.61
710.61	305.46
710.95	304.08
711.28	303.02
711.61	301.87
711.95	300.79
712.28	299.64
712.61	298.50
712.95	297.49
713.28	296.50
713.61	295.41
713.95	294.26
714.28	293.25
714.61	292.22
714.95	291.27
715.28	290.28
715.61	289.33
715.95	288.39
716.28	287.43
716.61	286.46
716.95	285.47
717.28	284.60
717.61	283.66
717.94	282.80
718.28	281.84
718.61	281.04
718.94	280.15
719.27	279.32
719.61	278.50
719.94	277.61
720.27	276.67
720.60	275.86
720.94	275.13
721.27	274.39
721.60	273.73
721.93	272.98
722.27	272.39
722.60	271.76
722.93	271.10
723.26	270.47
723.59	269.85
723.93	269.28
724.26	268.59
724.59	267.94
724.92	267.38
725.25	266.87
725.59	266.26
725.92	265.79
726.25	265.25
726.58	264.70
726.91	264.16
727.24	263.64
727.57	263.07
727.91	262.50
728.24	261.96
728.57	261.41
728.90	260.85
729.23	260.22
729.56	259.76
729.89	259.22
730.22	258.67
730.55	258.10
730.89	257.57
731.22	257.09
731.55	256.58
731.88	256.07
732.21	255.55
732.54	255.02
732.87	254.53
733.20	254.03
733.53	253.56
733.86	253.12
734.19	252.62
734.52	252.24
734.85	251.98
735.18	251.52
735.51	251.16
735.84	250.76
736.17	250.40
736.50	249.92
736.83	249.80
737.16	249.46
737.49	249.12
737.82	248.74
738.15	248.43
738.48	248.09
738.81	247.68
739.14	247.24
739.47	246.89
739.80	246.50
740.13	246.16
740.46	245.80
740.79	245.41
741.12	245.08
741.45	244.68
741.78	244.24
742.11	244.00
742.44	243.65
742.77	243.39
743.10	243.05
743.43	242.69
743.75	242.11
744.08	242.01
744.41	241.64
744.74	241.28
745.07	240.92
745.40	240.62
745.73	240.40
746.06	240.10
746.39	239.82
746.71	239.50
747.04	239.15
747.37	238.82
747.70	238.56
748.03	238.26
748.36	238.03
748.68	237.70
749.01	237.33
749.34	237.00
749.67	236.69
750.00	236.45
750.33	236.36
750.65	236.13
750.98	235.61
751.31	235.38
751.64	235.16
751.97	235.03
752.29	234.77
752.62	234.43
752.95	234.21
753.28	233.96
753.60	233.67
753.93	233.53
754.26	233.36
754.59	233.10
754.91	232.87
755.24	232.65
755.57	232.43
755.90	232.22
756.22	232.05
756.55	231.79
756.88	231.57
757.20	231.22
757.53	230.99
757.86	230.81
758.19	230.64
758.51	230.44
758.84	230.12
759.17	229.97
759.49	229.82
759.82	229.73
760.15	229.58
760.47	229.39
760.80	229.17
761.13	229.01
761.45	228.82
761.78	228.67
762.11	228.48
762.43	228.30
762.76	228.15
763.08	227.97
763.41	227.86
763.74	227.71
764.06	227.58
764.39	227.41
764.71	227.29
765.04	227.12
765.37	227.01
765.69	226.87
766.02	226.69
766.34	226.54
766.67	226.31
767.00	226.20
767.32	226.21
767.65	226.19
767.97	226.05
768.30	225.96
768.62	225.86
768.95	225.67
769.27	225.56
769.60	225.49
769.92	225.31
770.25	225.13
770.57	224.93
770.90	224.79
771.22	224.66
771.55	224.52
771.87	224.41
772.20	224.26
772.52	224.33
772.85	224.49
773.17	224.38
773.50	224.27
773.82	224.13
774.15	223.94
774.47	223.73
774.80	223.61
775.12	223.49
775.45	223.36
775.77	223.31
776.09	223.22
776.42	223.12
776.74	223.13
777.07	223.08
777.39	223.03
777.72	222.96
778.04	222.90
778.36	222.82
778.69	222.78
779.01	222.68
779.33	222.44
779.66	222.11
779.98	222.02
780.31	221.94
780.63	221.95
780.95	221.91
781.28	221.83
781.60	221.77
781.92	221.70
782.25	221.64
782.57	221.59
782.89	221.52
783.22	221.43
783.54	221.30
783.86	221.26
784.19	221.18
784.51	221.19
784.83	221.10
785.16	221.00
785.48	220.93
785.80	220.90
786.12	220.87
786.45	220.79
786.77	220.72
787.09	220.69
787.42	220.55
787.74	220.52
788.06	220.47
788.38	220.39
788.71	220.32
789.03	220.26
789.35	220.24
789.67	220.17
789.99	220.13
790.32	220.06
790.64	220.01
790.96	220.13
791.28	220.00
791.61	219.95
791.93	219.94
792.25	219.85
792.57	219.91
792.89	219.84
793.21	219.80
793.54	219.75
793.86	219.67
794.18	219.67
794.50	219.58
794.82	219.52
795.14	219.51
795.47	219.51
795.79	219.49
796.11	219.37
796.43	219.34
796.75	219.33
797.07	219.29
797.39	219.23
797.71	219.05
798.04	219.04
798.36	219.02
798.68	219.02
799.00	219.01
799.32	218.88
799.64	218.87
799.96	218.86
800.28	218.88
800.60	218.84
800.92	218.78
801.24	218.73
801.56	218.75
801.89	218.70
802.21	218.67
802.53	218.60
802.85	218.63
803.17	218.67
803.49	218.56
803.81	218.52
804.13	218.50
804.45	218.48
804.77	218.44
805.09	218.39
805.41	218.32
805.73	218.24
806.05	218.16
806.37	218.13
806.69	218.10
807.01	218.04
807.33	217.98
807.65	217.90
807.97	218.00
808.28	217.93
808.60	217.91
808.92	217.86
809.24	217.96
809.56	217.89
809.88	217.81
810.20	217.82
810.52	217.86
810.84	217.82
811.16	217.76
811.48	217.73
811.80	217.78
812.12	217.76
812.43	217.79
812.75	217.80
813.07	217.77
813.39	217.72
813.71	217.69
814.03	217.67
814.35	217.65
814.67	217.52
814.98	217.48
815.30	217.48
815.62	217.43
815.94	217.27
816.26	217.25
816.58	217.21
816.89	217.20
817.21	217.11
817.53	217.09
817.85	217.10
818.17	217.10
818.48	216.99
818.80	217.00
819.12	216.96
819.44	216.91
819.76	216.83
820.07	216.82
820.39	216.77
820.71	216.78
821.03	216.77
821.34	216.72
821.66	216.72
821.98	216.69
822.30	216.67
822.61	216.80
822.93	216.72
823.25	216.68
823.57	216.65
823.88	216.69
824.20	216.68
824.52	216.67
824.83	216.63
825.15	216.61
825.47	216.57
825.79	216.57
826.10	216.53
826.42	216.54
826.74	216.55
827.05	216.53
827.37	216.53
827.69	216.50
828.00	216.51
828.32	216.52
828.64	216.47
828.95	216.56
829.27	216.48
829.58	216.51
829.90	216.55
830.22	216.59
830.53	216.51
830.85	216.48
831.17	216.39
831.48	216.42
831.80	216.41
832.11	216.37
832.43	216.34
832.75	216.36
833.06	216.47
833.38	216.39
833.69	216.37
834.01	216.37
834.32	216.38
834.64	216.37
834.96	216.36
835.27	216.37
835.59	216.29
835.90	216.28
836.22	216.26
836.53	216.20
836.85	216.13
837.16	216.37
837.48	216.35
837.79	216.43
838.11	216.39
838.42	216.39
838.74	216.42
839.05	216.35
839.37	216.35
839.68	216.21
840.00	216.23
840.31	216.27
840.63	216.24
840.94	216.18
841.26	216.17
841.57	216.14
841.88	216.13
842.20	216.10
842.51	216.06
842.83	216.07
843.14	216.24
843.46	216.21
843.77	216.05
844.08	216.04
844.40	215.98
844.71	215.96
845.03	215.93
845.34	215.93
845.65	215.97
845.97	215.92
846.28	215.92
846.60	215.93
846.91	215.89
847.22	215.86
847.54	215.90
847.85	215.86
848.16	215.84
848.48	215.82
848.79	215.91
849.10	215.91
849.42	215.90
849.73	215.70
850.04	215.71
850.36	215.63
850.67	215.69
850.98	215.70
851.30	215.70
851.61	215.68
851.92	215.67
852.23	215.71
852.55	215.73
852.86	215.75
853.17	215.77
853.49	215.81
853.80	215.87
854.11	215.90
854.42	215.95
854.74	215.97
855.05	216.00
855.36	215.88
855.67	215.88
855.99	215.88
856.30	216.13
856.61	216.11
856.92	216.14
857.23	216.07
857.55	216.03
857.86	216.03
858.17	216.07
858.48	216.05
858.79	216.05
859.11	216.09
859.42	216.06
859.73	216.03
860.04	216.01
860.35	215.94
860.66	215.86
860.98	215.85
861.29	215.87
861.60	215.85
861.91	215.89
862.22	215.85
862.53	215.81
862.84	215.55
863.16	215.64
863.47	215.58
863.78	215.59
864.09	215.62
864.40	215.63
864.71	215.63
865.02	215.63
865.33	215.58
865.64	215.53
865.95	215.56
866.27	215.69
866.58	215.68
866.89	215.70
867.20	215.70
867.51	215.66
867.82	215.64
868.13	215.68
868.44	215.64
868.75	215.67
869.06	215.70
869.37	215.72
869.68	215.62
869.99	215.65
870.30	215.69
870.61	215.72
870.92	215.66
871.23	215.65
871.54	215.69
871.85	215.73
872.16	215.72
872.47	215.69
872.78	215.56
873.09	215.56
873.40	215.56
873.71	215.59
874.02	215.59
874.33	215.54
874.64	215.47
874.95	215.53
875.26	215.50
875.56	215.49
875.87	215.48
876.18	215.50
876.49	215.70
876.80	215.63
877.11	215.57
877.42	215.59
877.73	215.56
878.04	215.52
878.35	215.51
878.66	215.54
878.96	215.51
879.27	215.49
879.58	215.48
879.89	215.47
880.20	215.48
880.51	215.50
880.82	215.50
881.12	215.53
881.43	215.45
881.74	215.43
882.05	215.42
882.36	215.42
882.67	215.43
882.97	215.19
883.28	215.19
883.59	215.19
883.90	215.19
884.21	215.21
884.51	215.20
884.82	215.18
885.13	215.17
885.44	215.20
885.74	215.20
886.05	215.18
886.36	215.17
886.67	215.12
886.98	215.22
887.28	215.25
887.59	215.26
887.90	215.26
888.20	215.23
888.51	215.27
888.82	215.22
889.13	215.22
889.43	215.42
889.74	215.40
890.05	215.40
890.35	215.38
890.66	215.36
890.97	215.33
891.28	215.33
891.58	215.34
891.89	215.33
892.20	215.34
892.50	215.32
892.81	215.35
893.12	215.36
893.42	215.23
893.73	215.23
894.04	215.21
894.34	215.22
894.65	215.22
894.95	215.19
895.26	215.23
895.57	215.32
895.87	215.11
896.18	215.17
896.48	215.21
896.79	215.24
897.10	215.26
897.40	215.26
897.71	215.26
898.01	215.27
898.32	215.28
898.63	215.23
898.93	215.27
899.24	215.24
899.54	215.23
899.85	215.23
900.15	215.21
900.46	215.21
900.76	215.24
901.07	215.25
901.38	215.27
901.68	215.31
901.99	215.21
902.29	215.27
902.60	215.23
902.90	215.19
903.21	215.17
903.51	215.19
903.82	215.25
904.12	215.27
904.43	215.26
904.73	215.25
905.03	215.25
905.34	215.45
905.64	215.43
905.95	215.43
906.25	215.42
906.56	215.40
906.86	215.40
907.17	215.38
907.47	215.41
907.77	215.37
908.08	215.33
908.38	215.35
908.69	215.34
908.99	215.37
909.30	215.39
909.60	215.38
909.90	215.36
910.21	215.30
910.51	215.27
910.81	215.28
911.12	215.29
911.42	215.33
911.73	215.12
912.03	215.14
912.33	215.15
912.64	215.16
912.94	215.18
913.24	215.19
913.55	215.15
913.85	215.14
914.15	215.18
914.46	215.16
914.76	215.14
915.06	215.12
915.37	215.10
915.67	215.11
915.97	215.15
916.27	215.12
916.58	215.13
916.88	215.14
917.18	215.12
917.49	215.28
917.79	215.27
918.09	215.29
918.39	215.38
918.70	215.38
919.00	215.39
919.30	215.46
919.60	215.40
919.91	215.39
920.21	215.37
920.51	215.34
920.81	215.36
921.12	215.37
921.42	215.37
921.72	215.36
922.02	215.34
922.32	215.34
922.63	215.35
922.93	215.45
923.23	215.45
923.53	215.43
923.83	215.27
924.13	215.28
924.44	215.28
924.74	215.31
925.04	215.33
925.34	215.30
925.64	215.20
925.94	215.22
926.24	215.34
926.55	215.34
926.85	215.37
927.15	215.38
927.45	215.39
927.75	215.40
928.05	215.43
928.35	215.42
928.65	215.46
928.95	215.50
929.26	215.44
929.56	215.43
929.86	215.45
930.16	215.43
930.46	215.42
930.76	215.41
931.06	215.30
931.36	215.27
931.66	215.31
931.96	215.36
932.26	215.37
932.56	215.31
932.86	215.33
933.16	215.30
933.46	215.26
933.76	215.24
934.06	215.26
934.36	215.31
934.66	215.29
934.96	215.25
935.26	215.25
935.56	215.28
935.86	215.24
936.16	215.20
936.46	215.19
936.76	215.16
937.06	215.15
937.36	215.18
937.66	215.16
937.96	215.16
938.26	215.10
938.56	215.08
938.86	215.05
939.16	215.10
939.46	215.15
939.76	215.18
940.06	215.15
940.35	215.12
940.65	214.99
940.95	215.05
941.25	215.01
941.55	214.95
941.85	214.91
942.15	214.96
942.45	215.04
942.75	215.02
943.04	215.02
943.34	215.06
943.64	215.03
943.94	215.01
944.24	215.02
944.54	215.04
944.84	215.04
945.13	215.02
945.43	214.95
945.73	214.92
946.03	214.88
946.33	214.88
946.62	214.87
946.92	214.87
947.22	214.84
947.52	214.85
947.82	214.86
948.11	214.83
948.41	214.77
948.71	214.71
949.01	214.73
949.31	214.73
949.60	214.70
949.90	214.74
950.20	214.74
950.50	214.70
950.79	214.69
951.09	214.73
951.39	214.76
951.69	214.76
951.98	214.80
952.28	214.82
952.58	214.83
952.87	214.84
953.17	214.86
953.47	214.87
953.76	214.87
954.06	214.86
954.36	214.85
954.66	214.88
954.95	214.92
955.25	214.95
955.55	214.95
955.84	214.93
956.14	214.93
956.44	214.93
956.73	214.91
957.03	214.92
957.32	214.90
957.62	214.88
957.92	214.89
958.21	214.86
958.51	215.09
958.81	215.07
959.10	215.09
959.40	215.15
959.69	215.14
959.99	215.18
960.29	215.17
960.58	215.15
960.88	215.25
961.17	215.26
961.47	215.28
961.76	215.28
962.06	215.32
962.36	215.30
962.65	215.33
962.95	215.34
963.24	215.30
963.54	215.30
963.83	215.29
964.13	215.31
964.42	215.27
964.72	215.08
965.01	215.12
965.31	215.08
965.60	215.02
965.90	215.13
966.19	215.03
966.49	215.03
966.78	215.03
967.08	214.98
967.37	214.95
967.67	214.89
967.96	214.91
968.26	214.91
968.55	214.95
968.85	214.94
969.14	214.92
969.43	214.95
969.73	214.94
970.02	214.95
970.32	214.91
970.61	214.91
970.91	214.87
971.20	214.86
971.49	214.82
971.79	214.85
972.08	214.71
972.38	214.78
972.67	214.80
972.96	214.84
973.26	214.79
973.55	214.83
973.85	214.81
974.14	214.80
974.43	214.83
974.73	214.76
975.02	214.76
975.31	214.78
975.61	214.75
975.90	214.71
976.19	214.71
976.49	214.75
976.78	214.76
977.07	214.76
977.37	214.76
977.66	214.80
977.95	214.78
978.24	214.79
978.54	214.81
978.83	214.78
979.12	214.77
979.42	214.80
979.71	214.79
980.00	214.83
980.29	214.83
980.59	214.78
980.88	214.86
981.17	214.84
981.46	214.82
981.76	214.84
982.05	214.92
982.34	214.92
982.63	214.90
982.93	214.93
983.22	214.99
983.51	215.00
983.80	215.02
984.09	215.05
984.39	215.06
984.68	215.04
984.97	215.07
985.26	215.07
985.55	215.07
985.85	214.99
986.14	215.01
986.43	215.00
986.72	214.99
987.01	214.90
987.30	214.95
987.59	214.96
987.89	215.00
988.18	214.96
988.47	214.95
988.76	214.93
989.05	214.89
989.34	214.85
989.63	214.87
989.92	214.86
990.22	214.80
990.51	214.80
990.80	214.81
991.09	214.83
991.38	214.84
991.67	214.84
991.96	214.84
992.25	214.84
992.54	214.82
992.83	214.81
993.12	214.82
993.41	214.85
993.70	214.96
993.99	214.97
994.28	214.99
994.58	215.04
994.87	215.01
995.16	215.05
995.45	215.02
995.74	214.97
996.03	214.98
996.32	215.05
996.61	215.09
996.90	215.05
997.19	214.99
997.48	214.99
997.77	214.98
998.06	215.00
998.34	214.97
998.63	214.96
998.92	214.97
999.21	215.01
999.50	214.99
999.79	214.87
1000.08	214.85
1000.37	214.82
1000.66	214.77
1000.95	214.81
1001.24	214.80
1001.53	214.86
1001.82	214.84
1002.11	214.80
1002.40	214.84
1002.68	214.87
1002.97	215.01
1003.26	215.05
1003.55	215.01
1003.84	215.00
1004.13	215.06
1004.42	215.07
1004.71	215.09
1004.99	215.07
1005.28	215.12
1005.57	215.10
1005.86	215.08
1006.15	215.06
1006.44	215.07
1006.72	215.11
1007.01	215.08
1007.30	215.08
1007.59	215.03
1007.88	215.02
1008.17	215.02
1008.45	214.94
1008.74	214.86
1009.03	214.74
1009.32	214.73
1009.60	214.76
1009.89	214.76
1010.18	214.70
1010.47	214.68
1010.76	214.63
1011.04	214.63
1011.33	214.63
1011.62	214.65
1011.91	214.68
1012.19	214.70
1012.48	214.70
1012.77	214.71
1013.05	214.81
1013.34	214.83
1013.63	214.83
1013.92	214.86
1014.20	214.88
1014.49	214.91
1014.78	214.94
1015.06	214.89
1015.35	214.90
1015.64	214.89
1015.92	214.90
1016.21	214.91
1016.50	214.95
1016.78	215.01
1017.07	215.01
1017.36	214.97
1017.64	214.92
1017.93	214.94
1018.22	214.92
1018.50	214.89
1018.79	214.84
1019.08	214.73
1019.36	214.71
1019.65	214.70
1019.93	214.76
1020.22	214.76
1020.51	214.86
1020.79	214.84
1021.08	214.52
1021.36	214.22
1021.65	214.49
1021.94	214.47
1022.22	214.47
1022.51	214.41
1022.79	216.00
1023.08	214.91
1023.36	217.31
1023.65	214.39
>>>>>End Processed Spectral Data<<<<<
