SpectraSuite Data File
++++++++++++++++++++++++++++++++++++
Date: Tue Jan 29 16:18:12 EST 2013
User: group
Dark Spectrum Present: No
Reference Spectrum Present: No
Number of Sampled Component Spectra: 1
Spectrometers: USB2E7196
Integration Time (usec): 65000 (USB2E7196)
Spectra Averaged: 100 (USB2E7196)
Boxcar Smoothing: 10 (USB2E7196)
Correct for Electrical Dark: No (USB2E7196)
Strobe/Lamp Enabled: No (USB2E7196)
Correct for Detector Non-linearity: No (USB2E7196)
Correct for Stray Light: No (USB2E7196)
Number of Pixels in Processed Spectrum: 2048
>>>>>Begin Processed Spectral Data<<<<<
339.09	0.00
339.48	202.06
339.86	203.87
340.24	205.63
340.63	206.08
341.01	210.66
341.39	209.00
341.78	210.48
342.16	211.70
342.54	211.90
342.93	201.32
343.31	211.49
343.69	212.04
344.07	212.50
344.46	212.96
344.84	213.38
345.22	213.58
345.60	213.89
345.99	214.10
346.37	214.25
346.75	214.38
347.13	214.45
347.52	214.55
347.90	214.64
348.28	214.68
348.66	214.80
349.05	214.79
349.43	214.85
349.81	214.91
350.19	214.97
350.57	215.08
350.96	215.17
351.34	215.32
351.72	215.41
352.10	215.55
352.48	215.59
352.87	215.64
353.25	215.71
353.63	215.72
354.01	215.76
354.39	215.84
354.77	215.93
355.15	216.09
355.54	216.16
355.92	216.20
356.30	216.28
356.68	216.48
357.06	216.56
357.44	216.59
357.82	216.63
358.20	216.70
358.58	216.75
358.97	216.82
359.35	216.90
359.73	217.00
360.11	217.04
360.49	217.12
360.87	217.19
361.25	217.26
361.63	217.43
362.01	217.53
362.39	217.59
362.77	217.67
363.15	217.67
363.53	217.70
363.91	217.73
364.29	217.79
364.67	217.61
365.05	217.65
365.43	217.71
365.81	217.78
366.19	217.88
366.57	217.95
366.95	217.95
367.33	217.89
367.71	217.90
368.09	217.96
368.47	217.94
368.85	217.91
369.23	217.94
369.61	217.84
369.99	217.89
370.37	217.90
370.75	217.93
371.13	217.88
371.51	217.83
371.89	217.84
372.27	217.80
372.65	217.81
373.03	217.80
373.41	217.73
373.78	217.68
374.16	217.54
374.54	217.48
374.92	217.43
375.30	217.42
375.68	217.33
376.06	217.30
376.44	217.25
376.82	217.25
377.19	217.20
377.57	217.14
377.95	217.02
378.33	216.96
378.71	216.80
379.09	216.80
379.47	216.82
379.84	216.74
380.22	216.68
380.60	216.59
380.98	216.50
381.36	216.44
381.73	216.37
382.11	216.37
382.49	216.30
382.87	216.23
383.25	216.20
383.62	216.42
384.00	216.30
384.38	216.24
384.76	216.24
385.13	216.28
385.51	216.27
385.89	216.19
386.27	216.15
386.64	216.16
387.02	216.10
387.40	216.02
387.78	215.98
388.15	215.95
388.53	215.93
388.91	215.89
389.29	215.88
389.66	215.87
390.04	215.81
390.42	215.88
390.79	215.90
391.17	215.87
391.55	215.62
391.92	215.63
392.30	215.64
392.68	215.61
393.05	215.53
393.43	215.51
393.81	215.54
394.18	215.54
394.56	215.53
394.94	215.58
395.31	215.58
395.69	215.68
396.06	215.73
396.44	215.77
396.82	215.79
397.19	215.90
397.57	215.90
397.95	215.96
398.32	215.87
398.70	215.93
399.07	215.98
399.45	215.99
399.82	216.05
400.20	216.10
400.58	216.13
400.95	216.14
401.33	216.25
401.70	216.42
402.08	216.52
402.45	216.61
402.83	216.72
403.20	216.82
403.58	216.89
403.95	217.05
404.33	217.21
404.71	217.36
405.08	217.64
405.46	217.84
405.83	218.04
406.21	218.26
406.58	218.47
406.96	218.72
407.33	218.98
407.70	219.26
408.08	219.71
408.45	220.08
408.83	220.46
409.20	220.79
409.58	221.09
409.95	221.52
410.33	222.00
410.70	222.43
411.08	222.99
411.45	223.53
411.82	224.10
412.20	224.75
412.57	225.54
412.95	226.08
413.32	226.86
413.69	227.66
414.07	228.57
414.44	229.51
414.82	230.48
415.19	231.64
415.56	232.78
415.94	233.91
416.31	235.24
416.68	236.60
417.06	238.14
417.43	239.65
417.81	241.35
418.18	243.06
418.55	244.92
418.93	246.85
419.30	248.93
419.67	251.06
420.04	253.29
420.42	255.57
420.79	258.32
421.16	261.02
421.54	263.84
421.91	266.75
422.28	269.77
422.66	272.99
423.03	276.10
423.40	279.32
423.77	282.76
424.15	286.32
424.52	289.99
424.89	294.05
425.26	297.99
425.64	301.72
426.01	305.87
426.38	310.18
426.75	314.62
427.13	319.14
427.50	323.95
427.87	328.96
428.24	334.00
428.61	338.79
428.99	344.12
429.36	349.89
429.73	355.54
430.10	361.20
430.47	367.05
430.85	373.13
431.22	379.64
431.59	386.59
431.96	393.18
432.33	400.43
432.70	407.39
433.08	415.66
433.45	423.43
433.82	431.19
434.19	439.79
434.56	448.22
434.93	456.31
435.30	464.28
435.68	473.08
436.05	481.74
436.42	490.32
436.79	498.20
437.16	506.66
437.53	515.61
437.90	524.40
438.27	533.05
438.64	541.97
439.01	550.23
439.38	557.52
439.75	564.59
440.13	572.72
440.50	580.47
440.87	586.54
441.24	592.98
441.61	600.07
441.98	605.29
442.35	611.35
442.72	617.36
443.09	623.30
443.46	626.87
443.83	629.34
444.20	631.52
444.57	634.55
444.94	636.01
445.31	637.40
445.68	638.77
446.05	639.40
446.42	638.66
446.79	637.72
447.16	636.68
447.53	635.90
447.90	632.74
448.27	629.50
448.64	625.03
449.01	621.78
449.37	616.01
449.74	610.54
450.11	603.87
450.48	596.82
450.85	589.46
451.22	583.23
451.59	577.30
451.96	571.61
452.33	564.00
452.70	557.09
453.07	548.89
453.43	540.56
453.80	532.50
454.17	524.80
454.54	517.47
454.91	509.51
455.28	501.80
455.65	494.61
456.02	487.39
456.38	481.38
456.75	473.87
457.12	467.62
457.49	461.32
457.86	455.41
458.23	450.22
458.59	444.63
458.96	438.84
459.33	433.74
459.70	428.61
460.07	424.53
460.43	419.83
460.80	415.44
461.17	411.66
461.54	407.61
461.91	403.73
462.27	399.81
462.64	396.56
463.01	392.95
463.38	389.38
463.74	385.82
464.11	382.67
464.48	379.89
464.85	376.87
465.21	374.51
465.58	371.96
465.95	368.93
466.32	366.38
466.68	363.88
467.05	361.34
467.42	358.89
467.78	356.31
468.15	353.84
468.52	352.03
468.88	349.61
469.25	347.49
469.62	345.74
469.98	343.88
470.35	342.12
470.72	340.53
471.08	338.82
471.45	337.37
471.82	335.89
472.18	334.30
472.55	333.14
472.92	331.81
473.28	330.65
473.65	329.58
474.02	328.50
474.38	327.66
474.75	326.98
475.11	326.15
475.48	325.58
475.85	325.11
476.21	324.59
476.58	324.26
476.94	324.06
477.31	323.83
477.67	323.61
478.04	323.50
478.41	323.46
478.77	323.60
479.14	323.61
479.50	323.75
479.87	324.06
480.23	324.42
480.60	324.68
480.96	324.94
481.33	325.50
481.69	326.07
482.06	326.59
482.42	327.08
482.79	327.69
483.15	328.50
483.52	329.47
483.88	330.40
484.25	331.32
484.61	332.32
484.98	333.32
485.34	334.61
485.71	336.01
486.07	337.42
486.44	338.79
486.80	340.39
487.17	342.05
487.53	343.85
487.90	345.64
488.26	347.67
488.62	349.80
488.99	351.82
489.35	353.92
489.72	356.29
490.08	358.78
490.44	361.40
490.81	364.11
491.17	366.80
491.54	369.80
491.90	372.87
492.26	376.12
492.63	379.48
492.99	382.95
493.36	386.60
493.72	390.47
494.08	394.42
494.45	398.55
494.81	402.90
495.17	407.35
495.54	412.06
495.90	416.88
496.26	421.83
496.63	427.07
496.99	432.56
497.35	438.13
497.72	443.94
498.08	449.83
498.44	455.90
498.80	462.31
499.17	468.72
499.53	475.40
499.89	482.29
500.26	489.28
500.62	496.34
500.98	503.65
501.34	511.09
501.71	518.86
502.07	526.70
502.43	534.62
502.79	542.68
503.16	551.02
503.52	559.50
503.88	568.12
504.24	576.99
504.60	585.98
504.97	595.15
505.33	604.30
505.69	614.07
506.05	623.89
506.41	633.68
506.78	643.75
507.14	653.87
507.50	664.17
507.86	674.82
508.22	685.42
508.59	696.04
508.95	706.97
509.31	718.11
509.67	729.44
510.03	740.86
510.39	752.57
510.75	764.35
511.12	776.26
511.48	788.22
511.84	800.38
512.20	812.55
512.56	825.07
512.92	837.77
513.28	850.26
513.64	862.80
514.00	875.40
514.37	888.20
514.73	901.12
515.09	914.03
515.45	926.70
515.81	939.63
516.17	952.82
516.53	965.91
516.89	978.74
517.25	991.71
517.61	1005.02
517.97	1018.09
518.33	1030.94
518.69	1044.19
519.05	1057.72
519.41	1071.15
519.77	1084.75
520.13	1097.83
520.49	1110.76
520.85	1123.97
521.21	1137.17
521.57	1150.76
521.93	1163.57
522.29	1177.12
522.65	1190.46
523.01	1203.78
523.37	1216.79
523.73	1229.80
524.09	1242.69
524.45	1255.90
524.81	1269.12
525.17	1282.18
525.53	1295.14
525.89	1308.20
526.25	1320.96
526.61	1333.45
526.97	1346.13
527.33	1358.81
527.68	1371.88
528.04	1385.08
528.40	1397.78
528.76	1410.71
529.12	1423.16
529.48	1436.17
529.84	1448.06
530.20	1460.37
530.56	1472.74
530.91	1485.58
531.27	1498.20
531.63	1510.64
531.99	1523.01
532.35	1534.91
532.71	1547.02
533.07	1559.59
533.42	1571.45
533.78	1583.29
534.14	1595.03
534.50	1606.01
534.86	1617.20
535.21	1627.76
535.57	1638.95
535.93	1649.95
536.29	1660.68
536.65	1671.77
537.00	1682.34
537.36	1693.31
537.72	1703.99
538.08	1714.90
538.44	1725.40
538.79	1735.88
539.15	1746.35
539.51	1756.70
539.87	1767.68
540.22	1778.01
540.58	1788.43
540.94	1798.98
541.29	1808.76
541.65	1818.16
542.01	1828.46
542.37	1838.09
542.72	1847.82
543.08	1857.08
543.44	1867.13
543.79	1876.21
544.15	1885.46
544.51	1895.04
544.87	1904.62
545.22	1913.53
545.58	1922.13
545.94	1930.86
546.29	1939.20
546.65	1947.36
547.01	1955.52
547.36	1962.98
547.72	1970.55
548.07	1977.95
548.43	1985.52
548.79	1993.37
549.14	2001.37
549.50	2009.41
549.86	2017.11
550.21	2024.41
550.57	2031.93
550.92	2038.58
551.28	2045.90
551.64	2052.85
551.99	2060.10
552.35	2066.96
552.70	2073.75
553.06	2080.29
553.41	2086.29
553.77	2092.66
554.13	2098.86
554.48	2105.55
554.84	2112.39
555.19	2118.63
555.55	2125.04
555.90	2131.13
556.26	2137.85
556.61	2143.65
556.97	2148.28
557.32	2154.08
557.68	2160.36
558.03	2166.09
558.39	2171.22
558.74	2177.07
559.10	2182.54
559.45	2188.02
559.81	2193.63
560.16	2199.06
560.52	2204.89
560.87	2211.28
561.23	2217.16
561.58	2223.66
561.94	2228.87
562.29	2233.61
562.64	2239.78
563.00	2245.32
563.35	2250.95
563.71	2256.58
564.06	2262.31
564.42	2268.39
564.77	2273.37
565.12	2278.53
565.48	2283.61
565.83	2289.21
566.19	2294.48
566.54	2299.87
566.89	2304.60
567.25	2309.24
567.60	2315.01
567.96	2320.07
568.31	2324.67
568.66	2328.86
569.02	2332.72
569.37	2336.44
569.72	2340.86
570.08	2344.34
570.43	2347.56
570.78	2350.57
571.14	2353.12
571.49	2356.34
571.84	2359.93
572.20	2363.01
572.55	2366.32
572.90	2368.76
573.26	2371.74
573.61	2374.39
573.96	2376.59
574.31	2378.69
574.67	2380.77
575.02	2381.61
575.37	2383.19
575.72	2384.04
576.08	2385.62
576.43	2385.99
576.78	2386.81
577.13	2388.61
577.49	2389.86
577.84	2390.97
578.19	2392.41
578.54	2393.35
578.90	2394.28
579.25	2394.22
579.60	2394.28
579.95	2393.49
580.30	2393.72
580.66	2393.18
581.01	2391.68
581.36	2389.57
581.71	2388.34
582.06	2387.36
582.42	2386.71
582.77	2384.73
583.12	2383.36
583.47	2382.17
583.82	2381.81
584.17	2380.64
584.53	2378.54
584.88	2376.74
585.23	2375.10
585.58	2373.00
585.93	2370.94
586.28	2368.84
586.63	2366.71
586.98	2364.79
587.34	2363.09
587.69	2360.87
588.04	2358.97
588.39	2357.75
588.74	2355.55
589.09	2353.06
589.44	2350.00
589.79	2347.61
590.14	2345.80
590.49	2343.07
590.84	2339.47
591.19	2336.54
591.54	2333.54
591.89	2329.89
592.25	2326.67
592.60	2322.66
592.95	2318.79
593.30	2314.86
593.65	2310.70
594.00	2306.45
594.35	2303.60
594.70	2299.02
595.05	2294.54
595.40	2289.17
595.75	2283.63
596.10	2280.15
596.45	2275.40
596.80	2271.12
597.15	2266.08
597.50	2260.26
597.85	2255.42
598.19	2250.41
598.54	2244.84
598.89	2239.64
599.24	2235.02
599.59	2229.07
599.94	2223.32
600.29	2217.44
600.64	2211.58
600.99	2204.89
601.34	2199.46
601.69	2192.49
602.04	2186.17
602.39	2179.71
602.74	2173.84
603.08	2168.36
603.43	2161.73
603.78	2155.03
604.13	2147.83
604.48	2140.71
604.83	2134.77
605.18	2128.56
605.53	2121.68
605.87	2114.62
606.22	2107.99
606.57	2100.19
606.92	2092.27
607.27	2085.46
607.62	2078.86
607.96	2071.97
608.31	2065.50
608.66	2057.85
609.01	2050.26
609.36	2043.30
609.70	2035.54
610.05	2027.73
610.40	2019.45
610.75	2011.37
611.10	2003.70
611.44	1994.94
611.79	1986.16
612.14	1976.30
612.49	1965.86
612.83	1956.66
613.18	1947.54
613.53	1938.23
613.88	1928.75
614.22	1920.42
614.57	1910.50
614.92	1900.15
615.27	1889.91
615.61	1879.98
615.96	1870.41
616.31	1860.95
616.65	1851.66
617.00	1842.07
617.35	1832.45
617.70	1822.82
618.04	1812.79
618.39	1802.72
618.74	1793.12
619.08	1783.53
619.43	1774.83
619.78	1766.59
620.12	1758.02
620.47	1748.43
620.82	1738.27
621.16	1728.56
621.51	1718.58
621.85	1708.87
622.20	1698.57
622.55	1688.15
622.89	1678.40
623.24	1668.71
623.59	1658.98
623.93	1648.80
624.28	1639.10
624.62	1629.18
624.97	1619.04
625.32	1609.33
625.66	1600.52
626.01	1591.82
626.35	1582.58
626.70	1572.50
627.04	1562.55
627.39	1552.45
627.73	1543.20
628.08	1534.20
628.43	1524.64
628.77	1515.45
629.12	1506.60
629.46	1498.83
629.81	1490.45
630.15	1480.80
630.50	1470.92
630.84	1460.51
631.19	1450.75
631.53	1441.48
631.88	1431.29
632.22	1421.26
632.57	1411.98
632.91	1401.84
633.26	1392.04
633.60	1382.59
633.95	1373.45
634.29	1363.91
634.64	1354.62
634.98	1344.83
635.32	1335.61
635.67	1327.14
636.01	1317.97
636.36	1308.28
636.70	1298.75
637.05	1289.46
637.39	1280.70
637.73	1272.31
638.08	1264.72
638.42	1256.53
638.77	1247.75
639.11	1239.62
639.45	1231.84
639.80	1223.27
640.14	1214.65
640.49	1205.88
640.83	1197.08
641.17	1189.07
641.52	1181.06
641.86	1172.56
642.20	1164.59
642.55	1155.93
642.89	1147.13
643.23	1138.48
643.58	1130.49
643.92	1121.47
644.26	1112.88
644.61	1104.45
644.95	1095.60
645.29	1086.45
645.64	1077.44
645.98	1068.96
646.32	1061.09
646.66	1052.62
647.01	1044.35
647.35	1036.28
647.69	1027.95
648.04	1019.75
648.38	1010.73
648.72	1001.94
649.06	993.57
649.41	985.49
649.75	977.69
650.09	969.85
650.43	961.92
650.78	953.70
651.12	946.05
651.46	938.66
651.80	931.40
652.14	924.17
652.49	916.67
652.83	909.34
653.17	901.75
653.51	894.16
653.85	887.01
654.20	879.83
654.54	872.45
654.88	865.27
655.22	858.15
655.56	851.29
655.90	844.64
656.25	838.11
656.59	831.31
656.93	824.41
657.27	817.38
657.61	810.46
657.95	804.40
658.29	798.63
658.64	792.59
658.98	786.24
659.32	779.75
659.66	773.69
660.00	767.45
660.34	761.51
660.68	755.46
661.02	749.22
661.36	743.38
661.70	737.62
662.05	732.17
662.39	726.75
662.73	721.47
663.07	716.10
663.41	710.55
663.75	704.88
664.09	699.30
664.43	693.99
664.77	688.82
665.11	683.11
665.45	677.25
665.79	671.59
666.13	666.02
666.47	660.64
666.81	655.26
667.15	649.97
667.49	644.87
667.83	639.71
668.17	634.59
668.51	629.56
668.85	624.75
669.19	619.85
669.53	614.90
669.87	609.86
670.21	605.22
670.55	600.56
670.89	596.24
671.23	591.96
671.57	587.73
671.91	583.45
672.25	579.37
672.58	575.29
672.92	571.26
673.26	567.41
673.60	563.61
673.94	559.88
674.28	556.27
674.62	552.63
674.96	548.95
675.30	545.49
675.64	541.90
675.97	538.42
676.31	534.95
676.65	531.37
676.99	527.97
677.33	524.18
677.67	520.62
678.01	516.81
678.34	513.23
678.68	509.71
679.02	506.21
679.36	502.55
679.70	498.97
680.04	495.45
680.37	492.09
680.71	488.85
681.05	485.73
681.39	482.58
681.73	479.42
682.06	476.50
682.40	473.45
682.74	470.31
683.08	467.07
683.42	463.90
683.75	461.00
684.09	458.05
684.43	455.31
684.77	452.41
685.10	449.65
685.44	446.78
685.78	443.89
686.12	441.16
686.45	438.54
686.79	435.91
687.13	433.46
687.46	430.86
687.80	428.26
688.14	425.46
688.48	422.90
688.81	420.32
689.15	417.73
689.49	415.15
689.82	412.72
690.16	410.20
690.50	407.80
690.83	405.31
691.17	402.84
691.51	400.38
691.84	398.20
692.18	396.05
692.52	393.97
692.85	391.92
693.19	389.86
693.52	387.75
693.86	385.67
694.20	383.49
694.53	381.44
694.87	379.32
695.21	377.25
695.54	375.16
695.88	373.03
696.21	370.91
696.55	368.84
696.88	366.81
697.22	364.91
697.56	363.05
697.89	361.25
698.23	359.55
698.56	357.84
698.90	356.08
699.23	354.21
699.57	352.36
699.90	350.54
700.24	348.74
700.58	347.02
700.91	345.37
701.25	343.89
701.58	342.33
701.92	340.72
702.25	339.16
702.59	337.58
702.92	336.13
703.26	334.61
703.59	333.18
703.93	331.96
704.26	330.55
704.60	329.08
704.93	327.66
705.26	326.17
705.60	324.74
705.93	323.26
706.27	321.96
706.60	320.72
706.94	319.53
707.27	318.14
707.61	316.83
707.94	315.49
708.27	314.01
708.61	312.56
708.94	311.24
709.28	310.00
709.61	308.79
709.94	307.59
710.28	306.42
710.61	305.25
710.95	303.85
711.28	302.79
711.61	301.66
711.95	300.56
712.28	299.42
712.61	298.21
712.95	297.20
713.28	296.21
713.61	295.08
713.95	293.95
714.28	292.99
714.61	291.94
714.95	290.99
715.28	290.03
715.61	289.05
715.95	288.13
716.28	287.18
716.61	286.25
716.95	285.29
717.28	284.41
717.61	283.50
717.94	282.63
718.28	281.67
718.61	280.84
718.94	279.97
719.27	279.15
719.61	278.43
719.94	277.58
720.27	276.61
720.60	275.81
720.94	275.02
721.27	274.25
721.60	273.61
721.93	272.88
722.27	272.23
722.60	271.62
722.93	270.92
723.26	270.30
723.59	269.60
723.93	268.98
724.26	268.32
724.59	267.68
724.92	267.10
725.25	266.53
725.59	265.94
725.92	265.42
726.25	264.85
726.58	264.29
726.91	263.72
727.24	263.22
727.57	262.66
727.91	262.05
728.24	261.57
728.57	260.99
728.90	260.48
729.23	259.91
729.56	259.47
729.89	258.96
730.22	258.39
730.55	257.90
730.89	257.36
731.22	256.84
731.55	256.31
731.88	255.80
732.21	255.32
732.54	254.78
732.87	254.26
733.20	253.80
733.53	253.31
733.86	252.88
734.19	252.40
734.52	251.97
734.85	251.70
735.18	251.21
735.51	250.81
735.84	250.38
736.17	250.01
736.50	249.44
736.83	249.27
737.16	248.88
737.49	248.51
737.82	248.14
738.15	247.79
738.48	247.47
738.81	247.05
739.14	246.58
739.47	246.23
739.80	245.85
740.13	245.52
740.46	245.16
740.79	244.79
741.12	244.45
741.45	244.09
741.78	243.65
742.11	243.42
742.44	243.08
742.77	242.77
743.10	242.42
743.43	242.11
743.75	241.58
744.08	241.50
744.41	241.14
744.74	240.79
745.07	240.43
745.40	240.15
745.73	239.97
746.06	239.72
746.39	239.41
746.71	239.09
747.04	238.75
747.37	238.42
747.70	238.15
748.03	237.86
748.36	237.64
748.68	237.36
749.01	237.03
749.34	236.74
749.67	236.44
750.00	236.21
750.33	236.12
750.65	235.85
750.98	235.38
751.31	235.16
751.64	234.96
751.97	234.85
752.29	234.59
752.62	234.26
752.95	234.02
753.28	233.77
753.60	233.53
753.93	233.38
754.26	233.18
754.59	232.93
754.91	232.71
755.24	232.42
755.57	232.23
755.90	232.01
756.22	231.76
756.55	231.56
756.88	231.27
757.20	230.92
757.53	230.65
757.86	230.46
758.19	230.23
758.51	230.03
758.84	229.73
759.17	229.52
759.49	229.35
759.82	229.28
760.15	229.16
760.47	229.01
760.80	228.78
761.13	228.64
761.45	228.40
761.78	228.25
762.11	228.10
762.43	227.91
762.76	227.71
763.08	227.60
763.41	227.44
763.74	227.33
764.06	227.17
764.39	227.07
764.71	226.88
765.04	226.74
765.37	226.56
765.69	226.40
766.02	226.29
766.34	226.13
766.67	225.90
767.00	225.81
767.32	225.78
767.65	225.73
767.97	225.61
768.30	225.54
768.62	225.43
768.95	225.29
769.27	225.17
769.60	225.06
769.92	224.90
770.25	224.77
770.57	224.61
770.90	224.49
771.22	224.33
771.55	224.26
771.87	224.15
772.20	224.05
772.52	224.13
772.85	224.25
773.17	224.14
773.50	224.03
773.82	223.89
774.15	223.69
774.47	223.49
774.80	223.36
775.12	223.25
775.45	223.15
775.77	223.06
776.09	222.98
776.42	222.90
776.74	222.90
777.07	222.78
777.39	222.72
777.72	222.60
778.04	222.57
778.36	222.49
778.69	222.45
779.01	222.39
779.33	222.18
779.66	221.86
779.98	221.78
780.31	221.74
780.63	221.73
780.95	221.68
781.28	221.59
781.60	221.52
781.92	221.47
782.25	221.39
782.57	221.32
782.89	221.25
783.22	221.18
783.54	221.04
783.86	221.01
784.19	220.94
784.51	220.99
784.83	220.89
785.16	220.82
785.48	220.76
785.80	220.68
786.12	220.60
786.45	220.55
786.77	220.52
787.09	220.41
787.42	220.30
787.74	220.27
788.06	220.25
788.38	220.18
788.71	220.11
789.03	220.05
789.35	220.02
789.67	219.94
789.99	219.91
790.32	219.85
790.64	219.83
790.96	219.94
791.28	219.77
791.61	219.71
791.93	219.71
792.25	219.64
792.57	219.74
792.89	219.64
793.21	219.66
793.54	219.58
793.86	219.51
794.18	219.47
794.50	219.40
794.82	219.34
795.14	219.31
795.47	219.31
795.79	219.30
796.11	219.21
796.43	219.17
796.75	219.14
797.07	219.11
797.39	219.07
797.71	218.89
798.04	218.90
798.36	218.89
798.68	218.79
799.00	218.76
799.32	218.62
799.64	218.63
799.96	218.55
800.28	218.53
800.60	218.50
800.92	218.46
801.24	218.38
801.56	218.40
801.89	218.36
802.21	218.34
802.53	218.24
802.85	218.28
803.17	218.33
803.49	218.26
803.81	218.22
804.13	218.16
804.45	218.09
804.77	218.09
805.09	218.05
805.41	217.98
805.73	217.92
806.05	217.86
806.37	217.82
806.69	217.79
807.01	217.78
807.33	217.76
807.65	217.71
807.97	217.79
808.28	217.69
808.60	217.67
808.92	217.58
809.24	217.71
809.56	217.65
809.88	217.57
810.20	217.55
810.52	217.55
810.84	217.52
811.16	217.48
811.48	217.45
811.80	217.52
812.12	217.50
812.43	217.53
812.75	217.49
813.07	217.43
813.39	217.39
813.71	217.33
814.03	217.27
814.35	217.25
814.67	217.17
814.98	217.17
815.30	217.11
815.62	217.07
815.94	216.93
816.26	216.90
816.58	216.83
816.89	216.84
817.21	216.75
817.53	216.77
817.85	216.77
818.17	216.72
818.48	216.59
818.80	216.63
819.12	216.59
819.44	216.57
819.76	216.54
820.07	216.54
820.39	216.54
820.71	216.58
821.03	216.53
821.34	216.49
821.66	216.48
821.98	216.50
822.30	216.50
822.61	216.60
822.93	216.58
823.25	216.55
823.57	216.49
823.88	216.54
824.20	216.46
824.52	216.53
824.83	216.51
825.15	216.49
825.47	216.48
825.79	216.46
826.10	216.39
826.42	216.39
826.74	216.44
827.05	216.44
827.37	216.42
827.69	216.39
828.00	216.39
828.32	216.37
828.64	216.33
828.95	216.46
829.27	216.36
829.58	216.36
829.90	216.40
830.22	216.41
830.53	216.33
830.85	216.33
831.17	216.25
831.48	216.22
831.80	216.22
832.11	216.20
832.43	216.18
832.75	216.20
833.06	216.29
833.38	216.17
833.69	216.11
834.01	216.11
834.32	216.09
834.64	216.07
834.96	216.09
835.27	216.07
835.59	215.98
835.90	215.96
836.22	215.94
836.53	215.89
836.85	215.90
837.16	216.12
837.48	216.12
837.79	216.14
838.11	216.13
838.42	216.10
838.74	216.07
839.05	216.02
839.37	215.98
839.68	215.86
840.00	215.85
840.31	215.89
840.63	215.84
840.94	215.80
841.26	215.77
841.57	215.72
841.88	215.74
842.20	215.70
842.51	215.65
842.83	215.64
843.14	215.82
843.46	215.76
843.77	215.60
844.08	215.57
844.40	215.50
844.71	215.51
845.03	215.52
845.34	215.53
845.65	215.55
845.97	215.55
846.28	215.56
846.60	215.57
846.91	215.53
847.22	215.53
847.54	215.60
847.85	215.63
848.16	215.61
848.48	215.57
848.79	215.62
849.10	215.67
849.42	215.67
849.73	215.45
850.04	215.48
850.36	215.39
850.67	215.47
850.98	215.45
851.30	215.44
851.61	215.40
851.92	215.40
852.23	215.45
852.55	215.45
852.86	215.46
853.17	215.50
853.49	215.53
853.80	215.59
854.11	215.59
854.42	215.59
854.74	215.54
855.05	215.52
855.36	215.44
855.67	215.42
855.99	215.42
856.30	215.68
856.61	215.63
856.92	215.63
857.23	215.59
857.55	215.58
857.86	215.59
858.17	215.64
858.48	215.62
858.79	215.56
859.11	215.56
859.42	215.55
859.73	215.50
860.04	215.48
860.35	215.39
860.66	215.33
860.98	215.30
861.29	215.38
861.60	215.41
861.91	215.45
862.22	215.40
862.53	215.38
862.84	215.12
863.16	215.21
863.47	215.19
863.78	215.18
864.09	215.20
864.40	215.19
864.71	215.16
865.02	215.21
865.33	215.21
865.64	215.17
865.95	215.14
866.27	215.28
866.58	215.25
866.89	215.31
867.20	215.28
867.51	215.23
867.82	215.19
868.13	215.21
868.44	215.15
868.75	215.22
869.06	215.19
869.37	215.25
869.68	215.18
869.99	215.23
870.30	215.22
870.61	215.23
870.92	215.22
871.23	215.23
871.54	215.21
871.85	215.25
872.16	215.31
872.47	215.31
872.78	215.20
873.09	215.22
873.40	215.19
873.71	215.21
874.02	215.26
874.33	215.25
874.64	215.22
874.95	215.28
875.26	215.23
875.56	215.25
875.87	215.23
876.18	215.22
876.49	215.43
876.80	215.44
877.11	215.39
877.42	215.39
877.73	215.38
878.04	215.37
878.35	215.39
878.66	215.38
878.96	215.37
879.27	215.35
879.58	215.35
879.89	215.31
880.20	215.38
880.51	215.35
880.82	215.35
881.12	215.36
881.43	215.31
881.74	215.28
882.05	215.25
882.36	215.23
882.67	215.28
882.97	215.03
883.28	215.03
883.59	215.05
883.90	215.08
884.21	215.11
884.51	215.07
884.82	215.02
885.13	215.03
885.44	215.02
885.74	215.00
886.05	214.98
886.36	214.99
886.67	214.94
886.98	215.05
887.28	215.06
887.59	215.03
887.90	215.03
888.20	215.02
888.51	215.08
888.82	215.08
889.13	215.04
889.43	215.23
889.74	215.21
890.05	215.18
890.35	215.16
890.66	215.10
890.97	215.10
891.28	215.12
891.58	215.14
891.89	215.13
892.20	215.14
892.50	215.11
892.81	215.11
893.12	215.11
893.42	215.01
893.73	215.03
894.04	215.07
894.34	215.07
894.65	215.07
894.95	215.04
895.26	215.03
895.57	215.13
895.87	214.95
896.18	214.97
896.48	214.99
896.79	214.98
897.10	215.02
897.40	215.03
897.71	215.05
898.01	215.00
898.32	215.02
898.63	215.02
898.93	215.07
899.24	215.10
899.54	215.05
899.85	215.04
900.15	215.01
900.46	215.00
900.76	215.02
901.07	215.02
901.38	215.00
901.68	215.03
901.99	214.93
902.29	214.92
902.60	214.89
902.90	214.87
903.21	214.86
903.51	214.84
903.82	214.88
904.12	214.84
904.43	214.87
904.73	214.87
905.03	214.88
905.34	215.06
905.64	215.04
905.95	215.05
906.25	215.07
906.56	215.09
906.86	215.10
907.17	215.06
907.47	215.08
907.77	215.09
908.08	215.01
908.38	215.00
908.69	215.02
908.99	215.08
909.30	215.09
909.60	215.10
909.90	215.12
910.21	215.03
910.51	215.00
910.81	215.01
911.12	215.05
911.42	215.03
911.73	214.80
912.03	214.79
912.33	214.85
912.64	214.83
912.94	214.81
913.24	214.77
913.55	214.78
913.85	214.77
914.15	214.80
914.46	214.89
914.76	214.87
915.06	214.87
915.37	214.82
915.67	214.79
915.97	214.80
916.27	214.74
916.58	214.76
916.88	214.77
917.18	214.75
917.49	214.86
917.79	214.83
918.09	214.86
918.39	214.91
918.70	214.87
919.00	214.88
919.30	214.97
919.60	214.93
919.91	214.91
920.21	214.93
920.51	214.87
920.81	214.82
921.12	214.89
921.42	214.85
921.72	214.85
922.02	214.88
922.32	214.89
922.63	214.90
922.93	215.00
923.23	215.01
923.53	214.98
923.83	214.81
924.13	214.86
924.44	214.85
924.74	214.87
925.04	214.94
925.34	214.91
925.64	214.79
925.94	214.82
926.24	214.91
926.55	214.87
926.85	214.89
927.15	214.91
927.45	214.88
927.75	214.89
928.05	214.89
928.35	214.88
928.65	214.91
928.95	214.94
929.26	214.89
929.56	214.95
929.86	214.98
930.16	214.97
930.46	214.95
930.76	214.96
931.06	214.88
931.36	214.82
931.66	214.85
931.96	214.90
932.26	214.89
932.56	214.80
932.86	214.82
933.16	214.83
933.46	214.80
933.76	214.76
934.06	214.81
934.36	214.87
934.66	214.84
934.96	214.84
935.26	214.82
935.56	214.85
935.86	214.76
936.16	214.73
936.46	214.74
936.76	214.72
937.06	214.71
937.36	214.73
937.66	214.74
937.96	214.72
938.26	214.68
938.56	214.68
938.86	214.69
939.16	214.72
939.46	214.74
939.76	214.79
940.06	214.80
940.35	214.76
940.65	214.68
940.95	214.70
941.25	214.62
941.55	214.56
941.85	214.53
942.15	214.59
942.45	214.63
942.75	214.59
943.04	214.61
943.34	214.66
943.64	214.68
943.94	214.68
944.24	214.74
944.54	214.75
944.84	214.74
945.13	214.75
945.43	214.70
945.73	214.68
946.03	214.66
946.33	214.63
946.62	214.62
946.92	214.62
947.22	214.62
947.52	214.67
947.82	214.73
948.11	214.77
948.41	214.74
948.71	214.67
949.01	214.69
949.31	214.67
949.60	214.63
949.90	214.62
950.20	214.59
950.50	214.54
950.79	214.53
951.09	214.59
951.39	214.58
951.69	214.59
951.98	214.62
952.28	214.63
952.58	214.65
952.87	214.64
953.17	214.65
953.47	214.64
953.76	214.63
954.06	214.61
954.36	214.56
954.66	214.54
954.95	214.61
955.25	214.66
955.55	214.67
955.84	214.65
956.14	214.68
956.44	214.66
956.73	214.63
957.03	214.66
957.32	214.67
957.62	214.68
957.92	214.70
958.21	214.66
958.51	214.88
958.81	214.88
959.10	214.93
959.40	215.01
959.69	215.03
959.99	215.07
960.29	215.03
960.58	214.98
960.88	215.03
961.17	214.99
961.47	214.99
961.76	215.00
962.06	215.05
962.36	215.03
962.65	215.05
962.95	215.05
963.24	215.02
963.54	215.00
963.83	214.97
964.13	214.95
964.42	214.92
964.72	214.78
965.01	214.79
965.31	214.76
965.60	214.70
965.90	214.81
966.19	214.76
966.49	214.79
966.78	214.83
967.08	214.84
967.37	214.86
967.67	214.81
967.96	214.81
968.26	214.80
968.55	214.81
968.85	214.79
969.14	214.82
969.43	214.81
969.73	214.78
970.02	214.78
970.32	214.79
970.61	214.79
970.91	214.68
971.20	214.62
971.49	214.61
971.79	214.64
972.08	214.51
972.38	214.55
972.67	214.50
972.96	214.49
973.26	214.42
973.55	214.50
973.85	214.50
974.14	214.49
974.43	214.47
974.73	214.43
975.02	214.41
975.31	214.38
975.61	214.41
975.90	214.41
976.19	214.40
976.49	214.39
976.78	214.41
977.07	214.41
977.37	214.45
977.66	214.45
977.95	214.40
978.24	214.42
978.54	214.46
978.83	214.49
979.12	214.51
979.42	214.52
979.71	214.44
980.00	214.44
980.29	214.46
980.59	214.43
980.88	214.49
981.17	214.47
981.46	214.48
981.76	214.46
982.05	214.51
982.34	214.55
982.63	214.56
982.93	214.57
983.22	214.62
983.51	214.61
983.80	214.65
984.09	214.71
984.39	214.73
984.68	214.65
984.97	214.66
985.26	214.63
985.55	214.65
985.85	214.63
986.14	214.66
986.43	214.67
986.72	214.67
987.01	214.64
987.30	214.68
987.59	214.68
987.89	214.70
988.18	214.65
988.47	214.63
988.76	214.60
989.05	214.60
989.34	214.60
989.63	214.68
989.92	214.66
990.22	214.62
990.51	214.57
990.80	214.56
991.09	214.56
991.38	214.60
991.67	214.58
991.96	214.56
992.25	214.56
992.54	214.50
992.83	214.51
993.12	214.46
993.41	214.48
993.70	214.55
993.99	214.59
994.28	214.61
994.58	214.60
994.87	214.56
995.16	214.52
995.45	214.48
995.74	214.42
996.03	214.45
996.32	214.45
996.61	214.49
996.90	214.48
997.19	214.48
997.48	214.47
997.77	214.47
998.06	214.49
998.34	214.47
998.63	214.50
998.92	214.50
999.21	214.52
999.50	214.53
999.79	214.47
1000.08	214.46
1000.37	214.44
1000.66	214.43
1000.95	214.52
1001.24	214.53
1001.53	214.57
1001.82	214.53
1002.11	214.46
1002.40	214.48
1002.68	214.53
1002.97	214.70
1003.26	214.67
1003.55	214.61
1003.84	214.60
1004.13	214.68
1004.42	214.67
1004.71	214.69
1004.99	214.68
1005.28	214.73
1005.57	214.70
1005.86	214.66
1006.15	214.62
1006.44	214.61
1006.72	214.63
1007.01	214.60
1007.30	214.61
1007.59	214.61
1007.88	214.62
1008.17	214.66
1008.45	214.64
1008.74	214.58
1009.03	214.46
1009.32	214.45
1009.60	214.46
1009.89	214.46
1010.18	214.36
1010.47	214.35
1010.76	214.32
1011.04	214.33
1011.33	214.40
1011.62	214.43
1011.91	214.44
1012.19	214.48
1012.48	214.49
1012.77	214.50
1013.05	214.60
1013.34	214.62
1013.63	214.59
1013.92	214.65
1014.20	214.60
1014.49	214.60
1014.78	214.58
1015.06	214.53
1015.35	214.56
1015.64	214.61
1015.92	214.64
1016.21	214.61
1016.50	214.64
1016.78	214.68
1017.07	214.68
1017.36	214.60
1017.64	214.55
1017.93	214.58
1018.22	214.56
1018.50	214.55
1018.79	214.52
1019.08	214.38
1019.36	214.37
1019.65	214.38
1019.93	214.42
1020.22	214.49
1020.51	214.58
1020.79	214.58
1021.08	214.34
1021.36	214.17
1021.65	214.28
1021.94	213.83
1022.22	214.47
1022.51	214.48
1022.79	215.91
1023.08	215.14
1023.36	216.93
1023.65	214.05
>>>>>End Processed Spectral Data<<<<<
