SpectraSuite Data File
++++++++++++++++++++++++++++++++++++
Date: Tue Jan 29 16:57:15 EST 2013
User: group
Dark Spectrum Present: No
Reference Spectrum Present: No
Number of Sampled Component Spectra: 1
Spectrometers: USB2E7196
Integration Time (usec): 65000 (USB2E7196)
Spectra Averaged: 100 (USB2E7196)
Boxcar Smoothing: 10 (USB2E7196)
Correct for Electrical Dark: No (USB2E7196)
Strobe/Lamp Enabled: No (USB2E7196)
Correct for Detector Non-linearity: No (USB2E7196)
Correct for Stray Light: No (USB2E7196)
Number of Pixels in Processed Spectrum: 2048
>>>>>Begin Processed Spectral Data<<<<<
339.09	0.00
339.48	201.20
339.86	202.34
340.24	204.10
340.63	205.34
341.01	210.29
341.39	208.42
341.78	209.68
342.16	210.95
342.54	211.18
342.93	200.57
343.31	210.71
343.69	211.26
344.07	211.76
344.46	212.24
344.84	212.67
345.22	212.84
345.60	213.12
345.99	213.34
346.37	213.52
346.75	213.67
347.13	213.80
347.52	213.87
347.90	214.04
348.28	214.06
348.66	214.14
349.05	214.15
349.43	214.24
349.81	214.31
350.19	214.40
350.57	214.46
350.96	214.59
351.34	214.68
351.72	214.81
352.10	214.91
352.48	214.99
352.87	215.08
353.25	215.18
353.63	215.23
354.01	215.30
354.39	215.35
354.77	215.44
355.15	215.53
355.54	215.59
355.92	215.57
356.30	215.66
356.68	215.87
357.06	215.91
357.44	215.93
357.82	216.00
358.20	216.10
358.58	216.14
358.97	216.22
359.35	216.33
359.73	216.42
360.11	216.50
360.49	216.52
360.87	216.53
361.25	216.56
361.63	216.67
362.01	216.74
362.39	216.76
362.77	216.77
363.15	216.77
363.53	216.81
363.91	216.80
364.29	216.80
364.67	216.60
365.05	216.64
365.43	216.66
365.81	216.68
366.19	216.78
366.57	216.86
366.95	216.86
367.33	216.79
367.71	216.80
368.09	216.81
368.47	216.82
368.85	216.83
369.23	216.85
369.61	216.75
369.99	216.73
370.37	216.72
370.75	216.79
371.13	216.74
371.51	216.71
371.89	216.73
372.27	216.72
372.65	216.72
373.03	216.67
373.41	216.64
373.78	216.60
374.16	216.44
374.54	216.35
374.92	216.27
375.30	216.25
375.68	216.10
376.06	216.07
376.44	215.97
376.82	215.92
377.19	215.86
377.57	215.84
377.95	215.76
378.33	215.74
378.71	215.58
379.09	215.58
379.47	215.52
379.84	215.45
380.22	215.38
380.60	215.29
380.98	215.26
381.36	215.18
381.73	215.13
382.11	215.13
382.49	215.08
382.87	215.01
383.25	214.95
383.62	215.17
384.00	215.08
384.38	215.04
384.76	215.04
385.13	215.08
385.51	215.04
385.89	214.99
386.27	214.97
386.64	214.99
387.02	214.93
387.40	214.91
387.78	214.91
388.15	214.88
388.53	214.87
388.91	214.81
389.29	214.82
389.66	214.83
390.04	214.80
390.42	214.78
390.79	214.76
391.17	214.74
391.55	214.53
391.92	214.55
392.30	214.59
392.68	214.55
393.05	214.54
393.43	214.53
393.81	214.51
394.18	214.46
394.56	214.45
394.94	214.49
395.31	214.46
395.69	214.53
396.06	214.60
396.44	214.63
396.82	214.66
397.19	214.77
397.57	214.78
397.95	214.85
398.32	214.84
398.70	214.93
399.07	215.06
399.45	215.10
399.82	215.14
400.20	215.18
400.58	215.23
400.95	215.21
401.33	215.33
401.70	215.62
402.08	215.74
402.45	215.87
402.83	216.00
403.20	216.15
403.58	216.24
403.95	216.40
404.33	216.56
404.71	216.74
405.08	216.99
405.46	217.16
405.83	217.34
406.21	217.54
406.58	217.74
406.96	217.95
407.33	218.23
407.70	218.54
408.08	219.02
408.45	219.40
408.83	219.79
409.20	220.15
409.58	220.41
409.95	220.88
410.33	221.33
410.70	221.77
411.08	222.31
411.45	222.91
411.82	223.48
412.20	224.18
412.57	224.99
412.95	225.57
413.32	226.38
413.69	227.23
414.07	228.15
414.44	229.19
414.82	230.20
415.19	231.37
415.56	232.56
415.94	233.75
416.31	235.16
416.68	236.57
417.06	238.17
417.43	239.72
417.81	241.46
418.18	243.22
418.55	245.19
418.93	247.23
419.30	249.35
419.67	251.61
420.04	253.90
420.42	256.31
420.79	259.17
421.16	262.04
421.54	264.95
421.91	267.97
422.28	271.11
422.66	274.46
423.03	277.75
423.40	281.14
423.77	284.74
424.15	288.39
424.52	292.24
424.89	296.48
425.26	300.61
425.64	304.49
426.01	308.79
426.38	313.29
426.75	317.90
427.13	322.62
427.50	327.61
427.87	332.87
428.24	338.08
428.61	343.07
428.99	348.62
429.36	354.65
429.73	360.59
430.10	366.48
430.47	372.58
430.85	378.93
431.22	385.70
431.59	392.90
431.96	399.81
432.33	407.41
432.70	414.71
433.08	423.24
433.45	431.46
433.82	439.65
434.19	448.59
434.56	457.35
434.93	465.74
435.30	474.07
435.68	483.30
436.05	492.38
436.42	501.42
436.79	509.66
437.16	518.48
437.53	527.80
437.90	537.04
438.27	546.03
438.64	555.34
439.01	563.95
439.38	571.54
439.75	578.96
440.13	587.46
440.50	595.44
440.87	601.95
441.24	608.59
441.61	615.92
441.98	621.31
442.35	627.67
442.72	634.10
443.09	640.19
443.46	643.89
443.83	646.49
444.20	648.66
444.57	651.82
444.94	653.33
445.31	654.79
445.68	656.17
446.05	656.80
446.42	656.06
446.79	655.09
447.16	654.03
447.53	653.23
447.90	649.92
448.27	646.68
448.64	642.06
449.01	638.75
449.37	632.86
449.74	627.25
450.11	620.32
450.48	612.86
450.85	605.39
451.22	598.90
451.59	592.69
451.96	586.81
452.33	578.90
452.70	571.72
453.07	563.23
453.43	554.58
453.80	546.30
454.17	538.20
454.54	530.61
454.91	522.39
455.28	514.36
455.65	506.81
456.02	499.18
456.38	492.73
456.75	484.74
457.12	478.08
457.49	471.48
457.86	465.26
458.23	459.79
458.59	453.80
458.96	447.70
459.33	442.32
459.70	436.91
460.07	432.58
460.43	427.68
460.80	423.03
461.17	419.00
461.54	414.75
461.91	410.69
462.27	406.53
462.64	403.05
463.01	399.21
463.38	395.49
463.74	391.75
464.11	388.49
464.48	385.64
464.85	382.54
465.21	380.06
465.58	377.35
465.95	374.20
466.32	371.60
466.68	369.00
467.05	366.41
467.42	363.81
467.78	361.09
468.15	358.53
468.52	356.59
468.88	354.05
469.25	351.78
469.62	349.96
469.98	347.96
470.35	346.10
470.72	344.45
471.08	342.66
471.45	341.14
471.82	339.56
472.18	337.84
472.55	336.55
472.92	335.14
473.28	333.88
473.65	332.75
474.02	331.60
474.38	330.70
474.75	329.93
475.11	329.12
475.48	328.53
475.85	328.00
476.21	327.47
476.58	327.12
476.94	326.86
477.31	326.50
477.67	326.20
478.04	326.03
478.41	325.94
478.77	326.09
479.14	326.03
479.50	326.15
479.87	326.46
480.23	326.81
480.60	327.04
480.96	327.31
481.33	327.88
481.69	328.42
482.06	328.92
482.42	329.38
482.79	329.96
483.15	330.75
483.52	331.69
483.88	332.57
484.25	333.51
484.61	334.49
484.98	335.53
485.34	336.85
485.71	338.22
486.07	339.61
486.44	340.95
486.80	342.58
487.17	344.26
487.53	346.09
487.90	347.96
488.26	350.05
488.62	352.26
488.99	354.31
489.35	356.46
489.72	358.83
490.08	361.35
490.44	363.89
490.81	366.58
491.17	369.34
491.54	372.37
491.90	375.40
492.26	378.72
492.63	382.18
492.99	385.68
493.36	389.37
493.72	393.23
494.08	397.18
494.45	401.35
494.81	405.75
495.17	410.19
495.54	414.87
495.90	419.63
496.26	424.50
496.63	429.68
496.99	435.10
497.35	440.69
497.72	446.53
498.08	452.45
498.44	458.56
498.80	465.00
499.17	471.43
499.53	478.11
499.89	484.99
500.26	492.00
500.62	499.06
500.98	506.36
501.34	513.88
501.71	521.62
502.07	529.43
502.43	537.37
502.79	545.49
503.16	553.89
503.52	562.48
503.88	571.23
504.24	580.20
504.60	589.20
504.97	598.38
505.33	607.51
505.69	617.34
506.05	627.15
506.41	636.94
506.78	647.00
507.14	657.19
507.50	667.59
507.86	678.19
508.22	688.91
508.59	699.55
508.95	710.52
509.31	721.71
509.67	733.15
510.03	744.46
510.39	756.02
510.75	767.76
511.12	779.56
511.48	791.53
511.84	803.70
512.20	816.01
512.56	828.59
512.92	841.44
513.28	854.03
513.64	866.73
514.00	879.47
514.37	892.41
514.73	905.54
515.09	918.57
515.45	931.49
515.81	944.56
516.17	957.97
516.53	971.24
516.89	984.34
517.25	997.43
517.61	1011.02
517.97	1024.53
518.33	1037.64
518.69	1051.23
519.05	1065.02
519.41	1078.66
519.77	1092.55
520.13	1105.80
520.49	1118.99
520.85	1132.38
521.21	1145.64
521.57	1159.38
521.93	1172.41
522.29	1186.03
522.65	1199.63
523.01	1213.24
523.37	1226.49
523.73	1239.92
524.09	1253.02
524.45	1266.52
524.81	1280.11
525.17	1293.46
525.53	1306.62
525.89	1320.02
526.25	1333.21
526.61	1346.09
526.97	1359.17
527.33	1372.16
527.68	1385.65
528.04	1399.14
528.40	1412.30
528.76	1425.89
529.12	1438.87
529.48	1452.17
529.84	1464.63
530.20	1477.35
530.56	1489.97
530.91	1503.24
531.27	1515.96
531.63	1528.72
531.99	1541.55
532.35	1553.69
532.71	1566.20
533.07	1579.20
533.42	1591.49
533.78	1603.61
534.14	1615.76
534.50	1627.23
534.86	1638.92
535.21	1649.86
535.57	1661.48
535.93	1672.82
536.29	1683.84
536.65	1695.49
537.00	1706.58
537.36	1718.02
537.72	1728.97
538.08	1740.39
538.44	1751.41
538.79	1762.72
539.15	1773.84
539.51	1784.60
539.87	1796.06
540.22	1806.86
540.58	1817.85
540.94	1828.84
541.29	1839.31
541.65	1849.14
542.01	1859.62
542.37	1869.63
542.72	1879.82
543.08	1889.61
543.44	1900.06
543.79	1909.38
544.15	1918.74
544.51	1928.68
544.87	1938.54
545.22	1947.94
545.58	1957.01
545.94	1965.91
546.29	1974.22
546.65	1982.62
547.01	1990.87
547.36	1998.53
547.72	2006.43
548.07	2013.83
548.43	2021.54
548.79	2029.33
549.14	2037.48
549.50	2045.95
549.86	2054.01
550.21	2061.65
550.57	2069.44
550.92	2076.14
551.28	2083.72
551.64	2090.73
551.99	2098.24
552.35	2105.41
552.70	2112.24
553.06	2118.70
553.41	2124.92
553.77	2131.51
554.13	2137.88
554.48	2144.94
554.84	2152.25
555.19	2158.80
555.55	2165.26
555.90	2171.69
556.26	2178.54
556.61	2184.77
556.97	2189.53
557.32	2195.09
557.68	2201.50
558.03	2207.18
558.39	2212.75
558.74	2218.72
559.10	2224.42
559.45	2229.97
559.81	2235.47
560.16	2241.00
560.52	2246.95
560.87	2253.22
561.23	2259.05
561.58	2265.63
561.94	2270.88
562.29	2275.45
562.64	2281.26
563.00	2286.96
563.35	2292.33
563.71	2297.80
564.06	2303.34
564.42	2309.22
564.77	2314.22
565.12	2319.41
565.48	2324.28
565.83	2329.67
566.19	2334.69
566.54	2339.84
566.89	2344.31
567.25	2348.77
567.60	2354.47
567.96	2359.37
568.31	2363.86
568.66	2368.08
569.02	2371.88
569.37	2375.40
569.72	2379.65
570.08	2383.09
570.43	2386.16
570.78	2389.11
571.14	2391.52
571.49	2394.54
571.84	2397.88
572.20	2400.80
572.55	2403.45
572.90	2405.75
573.26	2408.35
573.61	2411.06
573.96	2413.28
574.31	2415.23
574.67	2417.14
575.02	2417.43
575.37	2418.82
575.72	2419.33
576.08	2420.68
576.43	2420.60
576.78	2420.83
577.13	2421.94
577.49	2423.00
577.84	2423.67
578.19	2424.75
578.54	2425.17
578.90	2425.34
579.25	2425.07
579.60	2424.62
579.95	2423.67
580.30	2423.44
580.66	2422.62
581.01	2420.72
581.36	2417.98
581.71	2416.39
582.06	2414.83
582.42	2413.94
582.77	2411.57
583.12	2409.79
583.47	2408.00
583.82	2407.33
584.17	2405.79
584.53	2403.75
584.88	2401.36
585.23	2399.36
585.58	2396.91
585.93	2394.86
586.28	2392.47
586.63	2389.85
586.98	2387.45
587.34	2385.31
587.69	2382.61
588.04	2380.22
588.39	2378.51
588.74	2375.97
589.09	2372.89
589.44	2369.45
589.79	2366.67
590.14	2364.35
590.49	2361.41
590.84	2357.48
591.19	2353.91
591.54	2350.80
591.89	2346.54
592.25	2343.08
592.60	2338.83
592.95	2334.56
593.30	2330.37
593.65	2326.09
594.00	2321.50
594.35	2318.44
594.70	2313.85
595.05	2309.43
595.40	2303.99
595.75	2298.04
596.10	2294.24
596.45	2289.46
596.80	2284.94
597.15	2279.90
597.50	2274.04
597.85	2268.99
598.19	2263.89
598.54	2258.18
598.89	2252.75
599.24	2248.04
599.59	2242.03
599.94	2236.01
600.29	2229.87
600.64	2223.65
600.99	2216.74
601.34	2211.17
601.69	2204.16
602.04	2197.63
602.39	2190.75
602.74	2184.62
603.08	2179.08
603.43	2172.66
603.78	2165.81
604.13	2158.72
604.48	2151.17
604.83	2145.01
605.18	2138.78
605.53	2131.99
605.87	2125.06
606.22	2118.27
606.57	2110.41
606.92	2102.32
607.27	2095.37
607.62	2089.02
607.96	2081.98
608.31	2075.64
608.66	2067.90
609.01	2060.26
609.36	2053.15
609.70	2045.62
610.05	2037.71
610.40	2029.51
610.75	2020.93
611.10	2013.05
611.44	2004.02
611.79	1995.46
612.14	1985.63
612.49	1974.95
612.83	1965.33
613.18	1955.83
613.53	1946.50
613.88	1937.02
614.22	1928.58
614.57	1918.77
614.92	1908.03
615.27	1897.91
615.61	1887.59
615.96	1877.99
616.31	1868.49
616.65	1858.97
617.00	1849.40
617.35	1839.85
617.70	1830.06
618.04	1820.39
618.39	1810.44
618.74	1800.93
619.08	1791.24
619.43	1782.65
619.78	1774.46
620.12	1766.09
620.47	1756.86
620.82	1746.57
621.16	1736.98
621.51	1727.02
621.85	1717.43
622.20	1707.38
622.55	1697.00
622.89	1687.19
623.24	1677.75
623.59	1667.95
623.93	1658.01
624.28	1648.13
624.62	1638.22
624.97	1628.13
625.32	1618.44
625.66	1609.65
626.01	1601.13
626.35	1592.14
626.70	1582.19
627.04	1572.43
627.39	1562.33
627.73	1553.11
628.08	1544.40
628.43	1534.86
628.77	1525.79
629.12	1516.91
629.46	1509.11
629.81	1500.93
630.15	1491.83
630.50	1482.04
630.84	1471.79
631.19	1462.08
631.53	1453.08
631.88	1443.03
632.22	1433.24
632.57	1424.01
632.91	1414.11
633.26	1404.19
633.60	1394.74
633.95	1385.50
634.29	1376.03
634.64	1366.91
634.98	1357.05
635.32	1348.03
635.67	1339.74
636.01	1330.60
636.36	1321.09
636.70	1311.70
637.05	1302.45
637.39	1293.67
637.73	1285.18
638.08	1277.70
638.42	1269.69
638.77	1261.04
639.11	1252.97
639.45	1245.35
639.80	1236.95
640.14	1228.27
640.49	1219.67
640.83	1210.92
641.17	1202.84
641.52	1194.87
641.86	1186.45
642.20	1178.74
642.55	1169.97
642.89	1161.14
643.23	1152.77
643.58	1144.74
643.92	1135.88
644.26	1127.22
644.61	1118.82
644.95	1110.10
645.29	1101.03
645.64	1091.92
645.98	1083.37
646.32	1075.51
646.66	1067.07
647.01	1058.80
647.35	1050.78
647.69	1042.55
648.04	1034.43
648.38	1025.81
648.72	1017.13
649.06	1008.79
649.41	1000.64
649.75	992.91
650.09	985.17
650.43	977.17
650.78	968.90
651.12	961.18
651.46	953.89
651.80	946.77
652.14	939.61
652.49	932.26
652.83	925.07
653.17	917.56
653.51	909.98
653.85	902.67
654.20	895.51
654.54	888.19
654.88	881.06
655.22	873.81
655.56	866.80
655.90	860.02
656.25	853.31
656.59	846.58
656.93	839.63
657.27	832.58
657.61	825.55
657.95	819.49
658.29	813.56
658.64	807.53
658.98	801.02
659.32	794.49
659.66	788.19
660.00	781.92
660.34	775.83
660.68	769.84
661.02	763.56
661.36	757.55
661.70	751.79
662.05	746.19
662.39	740.78
662.73	735.37
663.07	730.07
663.41	724.48
663.75	718.71
664.09	713.04
664.43	707.60
664.77	702.39
665.11	696.63
665.45	690.80
665.79	684.92
666.13	679.24
666.47	673.82
666.81	668.40
667.15	663.02
667.49	657.86
667.83	652.57
668.17	647.47
668.51	642.44
668.85	637.46
669.19	632.61
669.53	627.55
669.87	622.43
670.21	617.60
670.55	612.94
670.89	608.44
671.23	604.07
671.57	599.69
671.91	595.33
672.25	591.10
672.58	586.99
672.92	582.94
673.26	578.99
673.60	574.98
673.94	571.17
674.28	567.57
674.62	563.80
674.96	560.08
675.30	556.50
675.64	552.84
675.97	549.25
676.31	545.60
676.65	542.03
676.99	538.68
677.33	534.83
677.67	531.22
678.01	527.42
678.34	523.85
678.68	520.34
679.02	516.77
679.36	513.21
679.70	509.57
680.04	506.05
680.37	502.58
680.71	499.32
681.05	496.11
681.39	492.74
681.73	489.56
682.06	486.51
682.40	483.35
682.74	480.15
683.08	477.01
683.42	473.79
683.75	470.75
684.09	467.62
684.43	464.84
684.77	461.87
685.10	459.04
685.44	456.08
685.78	453.16
686.12	450.33
686.45	447.49
686.79	444.81
687.13	442.22
687.46	439.68
687.80	436.95
688.14	434.09
688.48	431.43
688.81	428.72
689.15	426.10
689.49	423.51
689.82	420.93
690.16	418.32
690.50	415.85
690.83	413.31
691.17	410.74
691.51	408.24
691.84	405.89
692.18	403.64
692.52	401.47
692.85	399.23
693.19	397.12
693.52	394.92
693.86	392.71
694.20	390.47
694.53	388.23
694.87	386.04
695.21	383.90
695.54	381.73
695.88	379.55
696.21	377.35
696.55	375.20
696.88	373.10
697.22	371.05
697.56	369.10
697.89	367.17
698.23	365.41
698.56	363.59
698.90	361.84
699.23	359.87
699.57	357.95
699.90	356.12
700.24	354.27
700.58	352.50
700.91	350.75
701.25	349.18
701.58	347.59
701.92	345.95
702.25	344.32
702.59	342.66
702.92	341.10
703.26	339.51
703.59	337.97
703.93	336.69
704.26	335.25
704.60	333.69
704.93	332.18
705.26	330.60
705.60	329.12
705.93	327.53
706.27	326.20
706.60	324.95
706.94	323.68
707.27	322.26
707.61	320.92
707.94	319.55
708.27	318.05
708.61	316.53
708.94	315.18
709.28	313.86
709.61	312.62
709.94	311.37
710.28	310.13
710.61	308.92
710.95	307.50
711.28	306.40
711.61	305.22
711.95	304.09
712.28	302.91
712.61	301.65
712.95	300.61
713.28	299.57
713.61	298.38
713.95	297.18
714.28	296.15
714.61	295.07
714.95	294.05
715.28	292.99
715.61	291.98
715.95	290.94
716.28	289.96
716.61	288.99
716.95	288.02
717.28	287.10
717.61	286.12
717.94	285.21
718.28	284.17
718.61	283.31
718.94	282.39
719.27	281.50
719.61	280.69
719.94	279.82
720.27	278.84
720.60	277.96
720.94	277.12
721.27	276.34
721.60	275.65
721.93	274.95
722.27	274.31
722.60	273.63
722.93	272.92
723.26	272.23
723.59	271.52
723.93	270.85
724.26	270.17
724.59	269.50
724.92	268.90
725.25	268.36
725.59	267.73
725.92	267.18
726.25	266.63
726.58	266.09
726.91	265.46
727.24	264.93
727.57	264.32
727.91	263.74
728.24	263.16
728.57	262.53
728.90	261.94
729.23	261.31
729.56	260.90
729.89	260.36
730.22	259.78
730.55	259.24
730.89	258.69
731.22	258.17
731.55	257.70
731.88	257.15
732.21	256.56
732.54	256.07
732.87	255.55
733.20	255.05
733.53	254.52
733.86	254.07
734.19	253.57
734.52	253.17
734.85	252.87
735.18	252.37
735.51	252.01
735.84	251.58
736.17	251.15
736.50	250.58
736.83	250.43
737.16	250.05
737.49	249.67
737.82	249.24
738.15	248.81
738.48	248.41
738.81	248.00
739.14	247.56
739.47	247.15
739.80	246.80
740.13	246.46
740.46	246.05
740.79	245.64
741.12	245.25
741.45	244.86
741.78	244.40
742.11	244.14
742.44	243.75
742.77	243.45
743.10	243.12
743.43	242.75
743.75	242.16
744.08	242.08
744.41	241.69
744.74	241.35
745.07	241.02
745.40	240.66
745.73	240.44
746.06	240.14
746.39	239.82
746.71	239.44
747.04	239.09
747.37	238.80
747.70	238.56
748.03	238.27
748.36	237.96
748.68	237.65
749.01	237.29
749.34	236.98
749.67	236.68
750.00	236.39
750.33	236.27
750.65	236.04
750.98	235.51
751.31	235.26
751.64	235.04
751.97	234.88
752.29	234.64
752.62	234.26
752.95	233.99
753.28	233.75
753.60	233.51
753.93	233.34
754.26	233.10
754.59	232.82
754.91	232.58
755.24	232.38
755.57	232.17
755.90	231.93
756.22	231.72
756.55	231.43
756.88	231.18
757.20	230.81
757.53	230.56
757.86	230.36
758.19	230.20
758.51	229.95
758.84	229.62
759.17	229.44
759.49	229.28
759.82	229.17
760.15	228.99
760.47	228.79
760.80	228.53
761.13	228.37
761.45	228.14
761.78	227.98
762.11	227.79
762.43	227.56
762.76	227.39
763.08	227.21
763.41	227.08
763.74	226.94
764.06	226.80
764.39	226.63
764.71	226.45
765.04	226.26
765.37	226.12
765.69	226.00
766.02	225.82
766.34	225.64
766.67	225.42
767.00	225.33
767.32	225.32
767.65	225.32
767.97	225.17
768.30	225.10
768.62	224.96
768.95	224.75
769.27	224.65
769.60	224.56
769.92	224.42
770.25	224.26
770.57	224.10
770.90	223.98
771.22	223.84
771.55	223.73
771.87	223.62
772.20	223.52
772.52	223.58
772.85	223.76
773.17	223.66
773.50	223.56
773.82	223.43
774.15	223.23
774.47	222.99
774.80	222.89
775.12	222.75
775.45	222.64
775.77	222.60
776.09	222.50
776.42	222.42
776.74	222.36
777.07	222.25
777.39	222.16
777.72	222.06
778.04	222.03
778.36	221.97
778.69	221.89
779.01	221.80
779.33	221.53
779.66	221.18
779.98	221.10
780.31	221.04
780.63	221.05
780.95	221.00
781.28	220.92
781.60	220.79
781.92	220.75
782.25	220.70
782.57	220.63
782.89	220.56
783.22	220.49
783.54	220.40
783.86	220.40
784.19	220.36
784.51	220.35
784.83	220.26
785.16	220.17
785.48	220.11
785.80	220.06
786.12	220.04
786.45	219.96
786.77	219.94
787.09	219.88
787.42	219.72
787.74	219.67
788.06	219.62
788.38	219.58
788.71	219.49
789.03	219.42
789.35	219.41
789.67	219.35
789.99	219.26
790.32	219.17
790.64	219.07
790.96	219.20
791.28	219.06
791.61	218.99
791.93	218.96
792.25	218.89
792.57	219.01
792.89	218.91
793.21	218.90
793.54	218.81
793.86	218.72
794.18	218.67
794.50	218.60
794.82	218.57
795.14	218.56
795.47	218.58
795.79	218.50
796.11	218.41
796.43	218.38
796.75	218.32
797.07	218.29
797.39	218.27
797.71	218.04
798.04	218.05
798.36	218.03
798.68	217.96
799.00	217.96
799.32	217.79
799.64	217.79
799.96	217.76
800.28	217.76
800.60	217.71
800.92	217.73
801.24	217.69
801.56	217.65
801.89	217.58
802.21	217.52
802.53	217.50
802.85	217.52
803.17	217.56
803.49	217.50
803.81	217.46
804.13	217.40
804.45	217.38
804.77	217.33
805.09	217.28
805.41	217.22
805.73	217.17
806.05	217.09
806.37	217.06
806.69	216.98
807.01	216.94
807.33	216.93
807.65	216.83
807.97	216.88
808.28	216.85
808.60	216.82
808.92	216.75
809.24	216.86
809.56	216.77
809.88	216.67
810.20	216.68
810.52	216.68
810.84	216.66
811.16	216.60
811.48	216.59
811.80	216.64
812.12	216.60
812.43	216.61
812.75	216.60
813.07	216.55
813.39	216.55
813.71	216.49
814.03	216.46
814.35	216.45
814.67	216.35
814.98	216.30
815.30	216.30
815.62	216.23
815.94	216.06
816.26	216.06
816.58	216.00
816.89	215.99
817.21	215.95
817.53	215.93
817.85	215.91
818.17	215.85
818.48	215.73
818.80	215.75
819.12	215.69
819.44	215.62
819.76	215.59
820.07	215.59
820.39	215.57
820.71	215.57
821.03	215.54
821.34	215.50
821.66	215.50
821.98	215.48
822.30	215.47
822.61	215.59
822.93	215.54
823.25	215.52
823.57	215.46
823.88	215.49
824.20	215.46
824.52	215.49
824.83	215.49
825.15	215.48
825.47	215.48
825.79	215.47
826.10	215.48
826.42	215.45
826.74	215.45
827.05	215.43
827.37	215.42
827.69	215.39
828.00	215.38
828.32	215.38
828.64	215.30
828.95	215.40
829.27	215.30
829.58	215.28
829.90	215.30
830.22	215.32
830.53	215.22
830.85	215.17
831.17	215.09
831.48	215.12
831.80	215.12
832.11	215.08
832.43	215.04
832.75	215.05
833.06	215.16
833.38	215.08
833.69	215.05
834.01	215.04
834.32	215.01
834.64	214.98
834.96	214.98
835.27	215.00
835.59	214.91
835.90	214.88
836.22	214.87
836.53	214.82
836.85	214.81
837.16	215.02
837.48	215.06
837.79	215.13
838.11	215.08
838.42	215.08
838.74	215.07
839.05	215.05
839.37	215.05
839.68	214.94
840.00	214.90
840.31	214.91
840.63	214.89
840.94	214.91
841.26	214.89
841.57	214.88
841.88	214.91
842.20	214.87
842.51	214.83
842.83	214.85
843.14	215.04
843.46	215.04
843.77	214.92
844.08	214.89
844.40	214.80
844.71	214.78
845.03	214.71
845.34	214.70
845.65	214.69
845.97	214.68
846.28	214.67
846.60	214.71
846.91	214.68
847.22	214.69
847.54	214.73
847.85	214.71
848.16	214.68
848.48	214.59
848.79	214.69
849.10	214.73
849.42	214.70
849.73	214.47
850.04	214.44
850.36	214.35
850.67	214.38
850.98	214.39
851.30	214.43
851.61	214.45
851.92	214.47
852.23	214.51
852.55	214.50
852.86	214.48
853.17	214.47
853.49	214.52
853.80	214.52
854.11	214.49
854.42	214.54
854.74	214.53
855.05	214.54
855.36	214.41
855.67	214.38
855.99	214.42
856.30	214.69
856.61	214.70
856.92	214.71
857.23	214.68
857.55	214.65
857.86	214.64
858.17	214.67
858.48	214.62
858.79	214.58
859.11	214.61
859.42	214.59
859.73	214.59
860.04	214.54
860.35	214.50
860.66	214.46
860.98	214.44
861.29	214.44
861.60	214.43
861.91	214.49
862.22	214.48
862.53	214.43
862.84	214.16
863.16	214.21
863.47	214.14
863.78	214.15
864.09	214.18
864.40	214.18
864.71	214.18
865.02	214.23
865.33	214.21
865.64	214.13
865.95	214.16
866.27	214.27
866.58	214.31
866.89	214.33
867.20	214.32
867.51	214.28
867.82	214.27
868.13	214.34
868.44	214.27
868.75	214.30
869.06	214.32
869.37	214.36
869.68	214.29
869.99	214.36
870.30	214.36
870.61	214.37
870.92	214.33
871.23	214.27
871.54	214.25
871.85	214.29
872.16	214.35
872.47	214.34
872.78	214.25
873.09	214.21
873.40	214.21
873.71	214.22
874.02	214.27
874.33	214.23
874.64	214.18
874.95	214.25
875.26	214.23
875.56	214.21
875.87	214.19
876.18	214.16
876.49	214.36
876.80	214.36
877.11	214.32
877.42	214.32
877.73	214.36
878.04	214.34
878.35	214.34
878.66	214.33
878.96	214.29
879.27	214.26
879.58	214.26
879.89	214.22
880.20	214.26
880.51	214.21
880.82	214.21
881.12	214.25
881.43	214.20
881.74	214.15
882.05	214.15
882.36	214.16
882.67	214.22
882.97	213.98
883.28	213.96
883.59	213.95
883.90	213.98
884.21	214.01
884.51	214.01
884.82	213.97
885.13	213.94
885.44	213.96
885.74	214.00
886.05	214.01
886.36	213.99
886.67	213.94
886.98	214.06
887.28	214.11
887.59	214.08
887.90	214.10
888.20	214.13
888.51	214.18
888.82	214.14
889.13	214.12
889.43	214.30
889.74	214.30
890.05	214.31
890.35	214.29
890.66	214.23
890.97	214.21
891.28	214.20
891.58	214.21
891.89	214.22
892.20	214.19
892.50	214.14
892.81	214.15
893.12	214.18
893.42	214.08
893.73	214.07
894.04	214.07
894.34	214.11
894.65	214.08
894.95	214.03
895.26	214.06
895.57	214.16
895.87	213.95
896.18	213.98
896.48	213.97
896.79	213.98
897.10	214.02
897.40	214.04
897.71	214.06
898.01	214.03
898.32	214.05
898.63	214.02
898.93	214.05
899.24	214.08
899.54	214.02
899.85	214.00
900.15	214.00
900.46	214.01
900.76	214.01
901.07	214.01
901.38	214.01
901.68	214.03
901.99	213.91
902.29	213.95
902.60	213.93
902.90	213.91
903.21	213.90
903.51	213.90
903.82	213.95
904.12	213.97
904.43	214.01
904.73	214.00
905.03	214.04
905.34	214.25
905.64	214.21
905.95	214.24
906.25	214.27
906.56	214.24
906.86	214.22
907.17	214.18
907.47	214.20
907.77	214.19
908.08	214.12
908.38	214.17
908.69	214.18
908.99	214.22
909.30	214.24
909.60	214.26
909.90	214.24
910.21	214.16
910.51	214.09
910.81	214.11
911.12	214.13
911.42	214.10
911.73	213.88
912.03	213.92
912.33	213.97
912.64	213.94
912.94	213.95
913.24	213.91
913.55	213.90
913.85	213.86
914.15	213.90
914.46	213.94
914.76	213.88
915.06	213.84
915.37	213.80
915.67	213.79
915.97	213.74
916.27	213.69
916.58	213.70
916.88	213.71
917.18	213.64
917.49	213.74
917.79	213.73
918.09	213.75
918.39	213.81
918.70	213.80
919.00	213.81
919.30	213.90
919.60	213.91
919.91	213.90
920.21	213.94
920.51	213.91
920.81	213.90
921.12	213.96
921.42	213.97
921.72	213.95
922.02	213.99
922.32	214.03
922.63	214.05
922.93	214.15
923.23	214.18
923.53	214.18
923.83	214.07
924.13	214.10
924.44	214.11
924.74	214.11
925.04	214.17
925.34	214.14
925.64	214.04
925.94	214.05
926.24	214.16
926.55	214.14
926.85	214.14
927.15	214.15
927.45	214.13
927.75	214.12
928.05	214.14
928.35	214.14
928.65	214.17
928.95	214.17
929.26	214.08
929.56	214.11
929.86	214.12
930.16	214.10
930.46	214.05
930.76	214.05
931.06	213.93
931.36	213.81
931.66	213.86
931.96	213.91
932.26	213.89
932.56	213.79
932.86	213.81
933.16	213.80
933.46	213.76
933.76	213.74
934.06	213.77
934.36	213.85
934.66	213.81
934.96	213.80
935.26	213.81
935.56	213.85
935.86	213.81
936.16	213.79
936.46	213.77
936.76	213.78
937.06	213.77
937.36	213.80
937.66	213.86
937.96	213.85
938.26	213.82
938.56	213.84
938.86	213.85
939.16	213.87
939.46	213.91
939.76	213.92
940.06	213.92
940.35	213.87
940.65	213.75
940.95	213.76
941.25	213.75
941.55	213.72
941.85	213.73
942.15	213.75
942.45	213.81
942.75	213.80
943.04	213.82
943.34	213.84
943.64	213.85
943.94	213.82
944.24	213.80
944.54	213.80
944.84	213.75
945.13	213.71
945.43	213.65
945.73	213.63
946.03	213.61
946.33	213.60
946.62	213.62
946.92	213.62
947.22	213.64
947.52	213.64
947.82	213.68
948.11	213.64
948.41	213.59
948.71	213.53
949.01	213.55
949.31	213.56
949.60	213.53
949.90	213.53
950.20	213.48
950.50	213.50
950.79	213.46
951.09	213.52
951.39	213.53
951.69	213.54
951.98	213.61
952.28	213.61
952.58	213.59
952.87	213.58
953.17	213.59
953.47	213.57
953.76	213.54
954.06	213.52
954.36	213.50
954.66	213.51
954.95	213.58
955.25	213.60
955.55	213.61
955.84	213.60
956.14	213.62
956.44	213.66
956.73	213.61
957.03	213.66
957.32	213.64
957.62	213.63
957.92	213.68
958.21	213.63
958.51	213.90
958.81	213.94
959.10	213.93
959.40	213.99
959.69	214.01
959.99	214.04
960.29	214.04
960.58	214.04
960.88	214.15
961.17	214.09
961.47	214.10
961.76	214.08
962.06	214.11
962.36	214.07
962.65	214.09
962.95	214.10
963.24	214.08
963.54	214.11
963.83	214.13
964.13	214.14
964.42	214.09
964.72	213.89
965.01	213.89
965.31	213.90
965.60	213.85
965.90	214.00
966.19	213.95
966.49	213.96
966.78	213.96
967.08	213.88
967.37	213.90
967.67	213.86
967.96	213.89
968.26	213.87
968.55	213.92
968.85	213.87
969.14	213.88
969.43	213.89
969.73	213.87
970.02	213.82
970.32	213.78
970.61	213.80
970.91	213.72
971.20	213.70
971.49	213.64
971.79	213.66
972.08	213.51
972.38	213.50
972.67	213.50
972.96	213.53
973.26	213.50
973.55	213.57
973.85	213.57
974.14	213.52
974.43	213.53
974.73	213.50
975.02	213.53
975.31	213.55
975.61	213.54
975.90	213.50
976.19	213.51
976.49	213.54
976.78	213.54
977.07	213.53
977.37	213.53
977.66	213.58
977.95	213.54
978.24	213.54
978.54	213.60
978.83	213.58
979.12	213.58
979.42	213.64
979.71	213.59
980.00	213.58
980.29	213.60
980.59	213.60
980.88	213.64
981.17	213.61
981.46	213.61
981.76	213.59
982.05	213.68
982.34	213.68
982.63	213.67
982.93	213.66
983.22	213.73
983.51	213.74
983.80	213.78
984.09	213.82
984.39	213.79
984.68	213.71
984.97	213.71
985.26	213.68
985.55	213.62
985.85	213.58
986.14	213.60
986.43	213.63
986.72	213.59
987.01	213.51
987.30	213.52
987.59	213.50
987.89	213.52
988.18	213.46
988.47	213.43
988.76	213.40
989.05	213.35
989.34	213.30
989.63	213.39
989.92	213.35
990.22	213.34
990.51	213.32
990.80	213.37
991.09	213.42
991.38	213.46
991.67	213.47
991.96	213.46
992.25	213.45
992.54	213.40
992.83	213.40
993.12	213.43
993.41	213.46
993.70	213.53
993.99	213.57
994.28	213.58
994.58	213.65
994.87	213.62
995.16	213.67
995.45	213.65
995.74	213.54
996.03	213.58
996.32	213.62
996.61	213.69
996.90	213.66
997.19	213.64
997.48	213.63
997.77	213.64
998.06	213.62
998.34	213.64
998.63	213.67
998.92	213.74
999.21	213.75
999.50	213.74
999.79	213.69
1000.08	213.69
1000.37	213.73
1000.66	213.73
1000.95	213.79
1001.24	213.82
1001.53	213.87
1001.82	213.90
1002.11	213.84
1002.40	213.86
1002.68	213.93
1002.97	214.08
1003.26	214.04
1003.55	214.00
1003.84	214.01
1004.13	214.12
1004.42	214.08
1004.71	214.10
1004.99	214.07
1005.28	214.11
1005.57	214.09
1005.86	214.06
1006.15	214.04
1006.44	213.99
1006.72	213.98
1007.01	213.96
1007.30	213.96
1007.59	213.94
1007.88	213.94
1008.17	213.94
1008.45	213.86
1008.74	213.73
1009.03	213.62
1009.32	213.65
1009.60	213.62
1009.89	213.58
1010.18	213.46
1010.47	213.46
1010.76	213.42
1011.04	213.40
1011.33	213.42
1011.62	213.45
1011.91	213.49
1012.19	213.49
1012.48	213.49
1012.77	213.48
1013.05	213.58
1013.34	213.59
1013.63	213.57
1013.92	213.59
1014.20	213.60
1014.49	213.64
1014.78	213.68
1015.06	213.63
1015.35	213.65
1015.64	213.69
1015.92	213.74
1016.21	213.76
1016.50	213.77
1016.78	213.81
1017.07	213.85
1017.36	213.78
1017.64	213.75
1017.93	213.74
1018.22	213.73
1018.50	213.72
1018.79	213.71
1019.08	213.62
1019.36	213.61
1019.65	213.58
1019.93	213.62
1020.22	213.61
1020.51	213.68
1020.79	213.68
1021.08	213.62
1021.36	213.01
1021.65	213.38
1021.94	213.82
1022.22	213.79
1022.51	212.94
1022.79	214.60
1023.08	213.37
1023.36	215.53
1023.65	213.61
>>>>>End Processed Spectral Data<<<<<
