SpectraSuite Data File
++++++++++++++++++++++++++++++++++++
Date: Tue Jan 29 16:02:27 EST 2013
User: group
Dark Spectrum Present: No
Reference Spectrum Present: No
Number of Sampled Component Spectra: 1
Spectrometers: USB2E7196
Integration Time (usec): 65000 (USB2E7196)
Spectra Averaged: 100 (USB2E7196)
Boxcar Smoothing: 10 (USB2E7196)
Correct for Electrical Dark: No (USB2E7196)
Strobe/Lamp Enabled: No (USB2E7196)
Correct for Detector Non-linearity: No (USB2E7196)
Correct for Stray Light: No (USB2E7196)
Number of Pixels in Processed Spectrum: 2048
>>>>>Begin Processed Spectral Data<<<<<
339.09	0.00
339.48	202.88
339.86	204.24
340.24	205.24
340.63	206.79
341.01	211.25
341.39	209.11
341.78	211.02
342.16	212.63
342.54	212.51
342.93	201.79
343.31	212.00
343.69	212.54
344.07	212.99
344.46	213.44
344.84	213.84
345.22	214.00
345.60	214.29
345.99	214.49
346.37	214.61
346.75	214.75
347.13	214.81
347.52	214.89
347.90	215.01
348.28	215.04
348.66	215.13
349.05	215.09
349.43	215.15
349.81	215.22
350.19	215.31
350.57	215.37
350.96	215.48
351.34	215.58
351.72	215.68
352.10	215.80
352.48	215.89
352.87	215.94
353.25	216.03
353.63	216.11
354.01	216.19
354.39	216.29
354.77	216.35
355.15	216.45
355.54	216.50
355.92	216.52
356.30	216.61
356.68	216.82
357.06	216.92
357.44	216.99
357.82	217.07
358.20	217.13
358.58	217.22
358.97	217.29
359.35	217.39
359.73	217.52
360.11	217.59
360.49	217.67
360.87	217.75
361.25	217.82
361.63	217.95
362.01	218.01
362.39	218.05
362.77	218.11
363.15	218.17
363.53	218.22
363.91	218.28
364.29	218.33
364.67	218.18
365.05	218.22
365.43	218.24
365.81	218.31
366.19	218.44
366.57	218.53
366.95	218.51
367.33	218.45
367.71	218.39
368.09	218.42
368.47	218.42
368.85	218.42
369.23	218.46
369.61	218.37
369.99	218.42
370.37	218.43
370.75	218.51
371.13	218.44
371.51	218.40
371.89	218.38
372.27	218.34
372.65	218.32
373.03	218.28
373.41	218.27
373.78	218.19
374.16	218.03
374.54	217.92
374.92	217.88
375.30	217.81
375.68	217.77
376.06	217.76
376.44	217.68
376.82	217.62
377.19	217.56
377.57	217.48
377.95	217.35
378.33	217.27
378.71	217.10
379.09	217.11
379.47	217.07
379.84	217.01
380.22	216.95
380.60	216.86
380.98	216.78
381.36	216.72
381.73	216.67
382.11	216.65
382.49	216.60
382.87	216.53
383.25	216.53
383.62	216.73
384.00	216.62
384.38	216.58
384.76	216.59
385.13	216.65
385.51	216.63
385.89	216.58
386.27	216.56
386.64	216.57
387.02	216.50
387.40	216.48
387.78	216.42
388.15	216.40
388.53	216.37
388.91	216.34
389.29	216.32
389.66	216.33
390.04	216.31
390.42	216.31
390.79	216.30
391.17	216.27
391.55	216.00
391.92	216.00
392.30	216.00
392.68	215.95
393.05	215.89
393.43	215.89
393.81	215.92
394.18	215.87
394.56	215.86
394.94	215.93
395.31	215.92
395.69	216.01
396.06	216.05
396.44	216.08
396.82	216.12
397.19	216.22
397.57	216.18
397.95	216.18
398.32	216.16
398.70	216.25
399.07	216.34
399.45	216.41
399.82	216.46
400.20	216.48
400.58	216.53
400.95	216.53
401.33	216.64
401.70	216.84
402.08	216.96
402.45	217.03
402.83	217.13
403.20	217.21
403.58	217.29
403.95	217.45
404.33	217.60
404.71	217.74
405.08	218.01
405.46	218.18
405.83	218.42
406.21	218.62
406.58	218.84
406.96	219.01
407.33	219.24
407.70	219.53
408.08	219.99
408.45	220.33
408.83	220.69
409.20	220.99
409.58	221.26
409.95	221.68
410.33	222.15
410.70	222.54
411.08	223.08
411.45	223.60
411.82	224.14
412.20	224.80
412.57	225.59
412.95	226.12
413.32	226.93
413.69	227.73
414.07	228.61
414.44	229.54
414.82	230.56
415.19	231.71
415.56	232.87
415.94	234.01
416.31	235.36
416.68	236.68
417.06	238.21
417.43	239.72
417.81	241.42
418.18	243.15
418.55	245.03
418.93	246.98
419.30	249.03
419.67	251.16
420.04	253.37
420.42	255.63
420.79	258.38
421.16	261.05
421.54	263.85
421.91	266.74
422.28	269.73
422.66	272.88
423.03	275.99
423.40	279.22
423.77	282.72
424.15	286.25
424.52	289.98
424.89	294.06
425.26	297.95
425.64	301.69
426.01	305.83
426.38	310.15
426.75	314.53
427.13	319.07
427.50	323.90
427.87	328.94
428.24	334.01
428.61	338.77
428.99	344.14
429.36	349.93
429.73	355.55
430.10	361.21
430.47	367.08
430.85	373.19
431.22	379.65
431.59	386.50
431.96	393.04
432.33	400.25
432.70	407.23
433.08	415.46
433.45	423.29
433.82	431.04
434.19	439.62
434.56	448.00
434.93	456.08
435.30	464.10
435.68	472.85
436.05	481.44
436.42	490.06
436.79	497.89
437.16	506.35
437.53	515.37
437.90	524.22
438.27	532.86
438.64	541.73
439.01	549.96
439.38	557.27
439.75	564.37
440.13	572.50
440.50	580.10
440.87	586.27
441.24	592.58
441.61	599.59
441.98	604.76
442.35	610.81
442.72	616.81
443.09	622.53
443.46	626.08
443.83	628.49
444.20	630.54
444.57	633.55
444.94	634.92
445.31	636.19
445.68	637.47
446.05	638.01
446.42	637.31
446.79	636.40
447.16	635.33
447.53	634.51
447.90	631.31
448.27	628.11
448.64	623.66
449.01	620.46
449.37	614.78
449.74	609.28
450.11	602.65
450.48	595.58
450.85	588.43
451.22	582.21
451.59	576.32
451.96	570.72
452.33	563.13
452.70	556.27
453.07	548.17
453.43	539.86
453.80	531.87
454.17	524.06
454.54	516.76
454.91	508.92
455.28	501.25
455.65	494.15
456.02	486.99
456.38	480.89
456.75	473.34
457.12	467.04
457.49	460.86
457.86	455.00
458.23	449.82
458.59	444.16
458.96	438.45
459.33	433.36
459.70	428.24
460.07	424.18
460.43	419.52
460.80	415.11
461.17	411.26
461.54	407.22
461.91	403.38
462.27	399.41
462.64	396.07
463.01	392.42
463.38	388.82
463.74	385.28
464.11	382.19
464.48	379.45
464.85	376.44
465.21	374.04
465.58	371.43
465.95	368.44
466.32	365.91
466.68	363.39
467.05	360.87
467.42	358.43
467.78	355.90
468.15	353.45
468.52	351.67
468.88	349.34
469.25	347.27
469.62	345.60
469.98	343.77
470.35	342.08
470.72	340.52
471.08	338.85
471.45	337.41
471.82	335.97
472.18	334.39
472.55	333.29
472.92	331.96
473.28	330.84
473.65	329.70
474.02	328.67
474.38	327.88
474.75	327.21
475.11	326.41
475.48	325.80
475.85	325.33
476.21	324.87
476.58	324.57
476.94	324.36
477.31	324.09
477.67	323.87
478.04	323.71
478.41	323.72
478.77	323.93
479.14	323.90
479.50	324.02
479.87	324.37
480.23	324.75
480.60	325.03
480.96	325.35
481.33	326.02
481.69	326.62
482.06	327.13
482.42	327.60
482.79	328.28
483.15	329.14
483.52	330.12
483.88	331.01
484.25	331.98
484.61	332.97
484.98	334.00
485.34	335.34
485.71	336.73
486.07	338.14
486.44	339.44
486.80	341.08
487.17	342.74
487.53	344.52
487.90	346.33
488.26	348.39
488.62	350.55
488.99	352.55
489.35	354.68
489.72	357.07
490.08	359.59
490.44	362.09
490.81	364.84
491.17	367.49
491.54	370.51
491.90	373.50
492.26	376.78
492.63	380.26
492.99	383.68
493.36	387.36
493.72	391.20
494.08	395.17
494.45	399.29
494.81	403.67
495.17	408.11
495.54	412.79
495.90	417.59
496.26	422.51
496.63	427.70
496.99	433.10
497.35	438.71
497.72	444.52
498.08	450.44
498.44	456.46
498.80	462.92
499.17	469.33
499.53	476.05
499.89	482.88
500.26	489.76
500.62	496.84
500.98	504.19
501.34	511.67
501.71	519.47
502.07	527.28
502.43	535.32
502.79	543.46
503.16	551.82
503.52	560.43
503.88	569.10
504.24	578.02
504.60	587.04
504.97	596.19
505.33	605.45
505.69	615.30
506.05	625.13
506.41	634.93
506.78	644.99
507.14	655.19
507.50	665.61
507.86	676.28
508.22	687.06
508.59	697.76
508.95	708.81
509.31	719.99
509.67	731.46
510.03	742.71
510.39	754.40
510.75	766.23
511.12	778.02
511.48	790.10
511.84	802.26
512.20	814.53
512.56	827.10
512.92	839.76
513.28	852.27
513.64	864.91
514.00	877.69
514.37	890.61
514.73	903.59
515.09	916.48
515.45	929.18
515.81	942.04
516.17	955.20
516.53	968.24
516.89	981.20
517.25	994.22
517.61	1007.61
517.97	1020.80
518.33	1033.78
518.69	1047.14
519.05	1060.60
519.41	1074.21
519.77	1087.92
520.13	1101.07
520.49	1114.09
520.85	1127.34
521.21	1140.53
521.57	1154.00
521.93	1166.86
522.29	1180.54
522.65	1193.96
523.01	1207.51
523.37	1220.46
523.73	1233.58
524.09	1246.50
524.45	1259.65
524.81	1272.86
525.17	1285.99
525.53	1298.99
525.89	1311.99
526.25	1324.79
526.61	1337.42
526.97	1350.12
527.33	1362.72
527.68	1375.87
528.04	1389.11
528.40	1402.01
528.76	1415.03
529.12	1427.56
529.48	1440.66
529.84	1452.48
530.20	1464.97
530.56	1477.25
530.91	1490.24
531.27	1502.76
531.63	1515.27
531.99	1527.75
532.35	1539.72
532.71	1551.83
533.07	1564.38
533.42	1576.28
533.78	1588.24
534.14	1600.08
534.50	1611.10
534.86	1622.45
535.21	1632.99
535.57	1644.12
535.93	1655.03
536.29	1665.89
536.65	1677.09
537.00	1687.68
537.36	1698.77
537.72	1709.55
538.08	1720.48
538.44	1731.12
538.79	1741.85
539.15	1752.36
539.51	1762.82
539.87	1773.88
540.22	1784.35
540.58	1794.94
540.94	1805.52
541.29	1815.42
541.65	1824.87
542.01	1835.21
542.37	1844.99
542.72	1854.91
543.08	1864.53
543.44	1874.71
543.79	1883.71
544.15	1892.81
544.51	1902.57
544.87	1912.18
545.22	1920.85
545.58	1929.53
545.94	1938.14
546.29	1946.45
546.65	1954.67
547.01	1962.69
547.36	1970.08
547.72	1977.61
548.07	1984.90
548.43	1992.30
548.79	2000.00
549.14	2007.97
549.50	2015.94
549.86	2023.45
550.21	2030.59
550.57	2037.98
550.92	2044.55
551.28	2051.88
551.64	2059.10
551.99	2066.41
552.35	2073.35
552.70	2080.11
553.06	2086.63
553.41	2092.88
553.77	2099.27
554.13	2105.38
554.48	2112.21
554.84	2119.17
555.19	2125.49
555.55	2132.10
555.90	2138.44
556.26	2145.00
556.61	2150.62
556.97	2155.49
557.32	2161.38
557.68	2167.81
558.03	2173.37
558.39	2178.44
558.74	2184.34
559.10	2189.85
559.45	2195.35
559.81	2200.83
560.16	2206.32
560.52	2212.15
560.87	2218.43
561.23	2224.31
561.58	2231.09
561.94	2236.30
562.29	2241.06
562.64	2247.38
563.00	2252.71
563.35	2258.40
563.71	2264.32
564.06	2270.18
564.42	2276.16
564.77	2281.24
565.12	2286.35
565.48	2291.60
565.83	2297.29
566.19	2302.85
566.54	2308.17
566.89	2312.90
567.25	2317.56
567.60	2323.31
567.96	2328.54
568.31	2333.05
568.66	2337.32
569.02	2341.07
569.37	2344.81
569.72	2349.27
570.08	2352.80
570.43	2355.96
570.78	2359.05
571.14	2361.58
571.49	2364.77
571.84	2368.40
572.20	2371.39
572.55	2374.62
572.90	2376.97
573.26	2380.09
573.61	2382.54
573.96	2384.85
574.31	2386.87
574.67	2388.93
575.02	2390.08
575.37	2391.52
575.72	2392.49
576.08	2394.27
576.43	2394.77
576.78	2395.79
577.13	2397.74
577.49	2398.95
577.84	2400.45
578.19	2402.09
578.54	2403.08
578.90	2404.39
579.25	2404.49
579.60	2404.62
579.95	2404.07
580.30	2404.59
580.66	2404.02
581.01	2402.58
581.36	2400.69
581.71	2399.52
582.06	2398.62
582.42	2397.95
582.77	2396.29
583.12	2395.06
583.47	2393.98
583.82	2393.57
584.17	2392.44
584.53	2390.31
584.88	2388.61
585.23	2386.87
585.58	2384.71
585.93	2382.66
586.28	2380.49
586.63	2378.23
586.98	2376.37
587.34	2374.75
587.69	2372.55
588.04	2370.78
588.39	2369.53
588.74	2367.17
589.09	2364.81
589.44	2362.12
589.79	2359.79
590.14	2358.02
590.49	2355.25
590.84	2351.68
591.19	2348.90
591.54	2345.66
591.89	2341.95
592.25	2338.86
592.60	2334.84
592.95	2330.93
593.30	2326.89
593.65	2322.49
594.00	2318.32
594.35	2315.32
594.70	2310.81
595.05	2306.26
595.40	2300.99
595.75	2295.64
596.10	2292.01
596.45	2287.13
596.80	2282.51
597.15	2277.36
597.50	2271.42
597.85	2266.59
598.19	2261.28
598.54	2255.58
598.89	2250.69
599.24	2246.18
599.59	2240.08
599.94	2234.48
600.29	2228.75
600.64	2223.12
600.99	2216.84
601.34	2211.48
601.69	2204.42
602.04	2198.06
602.39	2191.64
602.74	2185.69
603.08	2180.15
603.43	2173.75
603.78	2167.15
604.13	2160.14
604.48	2153.04
604.83	2147.15
605.18	2140.98
605.53	2134.17
605.87	2127.18
606.22	2120.53
606.57	2112.62
606.92	2104.81
607.27	2097.88
607.62	2091.30
607.96	2084.33
608.31	2077.61
608.66	2069.88
609.01	2062.49
609.36	2055.50
609.70	2047.80
610.05	2039.97
610.40	2031.83
610.75	2023.69
611.10	2016.09
611.44	2007.47
611.79	1998.85
612.14	1988.92
612.49	1978.52
612.83	1969.46
613.18	1960.41
613.53	1950.99
613.88	1941.56
614.22	1933.00
614.57	1923.20
614.92	1912.66
615.27	1902.66
615.61	1892.83
615.96	1883.22
616.31	1873.75
616.65	1864.43
617.00	1854.57
617.35	1845.05
617.70	1835.16
618.04	1824.95
618.39	1814.52
618.74	1804.88
619.08	1795.32
619.43	1786.65
619.78	1778.40
620.12	1769.55
620.47	1759.58
620.82	1749.35
621.16	1739.52
621.51	1729.56
621.85	1719.66
622.20	1709.17
622.55	1698.48
622.89	1688.48
623.24	1678.67
623.59	1668.92
623.93	1658.68
624.28	1649.07
624.62	1638.77
624.97	1628.42
625.32	1618.87
625.66	1610.17
626.01	1601.08
626.35	1591.64
626.70	1581.43
627.04	1571.21
627.39	1561.11
627.73	1551.95
628.08	1542.74
628.43	1533.14
628.77	1523.88
629.12	1515.05
629.46	1507.17
629.81	1498.67
630.15	1489.17
630.50	1479.37
630.84	1468.80
631.19	1458.89
631.53	1449.36
631.88	1439.24
632.22	1429.31
632.57	1419.81
632.91	1409.53
633.26	1399.82
633.60	1390.15
633.95	1380.79
634.29	1371.32
634.64	1362.07
634.98	1352.12
635.32	1342.88
635.67	1334.39
636.01	1325.17
636.36	1315.24
636.70	1305.68
637.05	1296.36
637.39	1287.28
637.73	1278.64
638.08	1271.00
638.42	1262.70
638.77	1253.94
639.11	1245.66
639.45	1237.79
639.80	1229.15
640.14	1220.45
640.49	1211.50
640.83	1202.69
641.17	1194.54
641.52	1186.29
641.86	1177.51
642.20	1169.60
642.55	1161.02
642.89	1152.08
643.23	1143.35
643.58	1135.31
643.92	1126.30
644.26	1117.58
644.61	1109.13
644.95	1100.31
645.29	1091.02
645.64	1081.84
645.98	1073.41
646.32	1065.40
646.66	1056.82
647.01	1048.43
647.35	1040.34
647.69	1031.88
648.04	1023.57
648.38	1014.60
648.72	1005.88
649.06	997.51
649.41	989.37
649.75	981.28
650.09	973.41
650.43	965.33
650.78	957.07
651.12	949.44
651.46	942.08
651.80	934.80
652.14	927.41
652.49	919.92
652.83	912.56
653.17	904.84
653.51	897.21
653.85	889.99
654.20	882.81
654.54	875.21
654.88	868.14
655.22	860.95
655.56	854.01
655.90	847.13
656.25	840.49
656.59	833.48
656.93	826.58
657.27	819.47
657.61	812.62
657.95	806.57
658.29	800.66
658.64	794.47
658.98	788.01
659.32	781.57
659.66	775.38
660.00	769.11
660.34	763.14
660.68	757.12
661.02	750.92
661.36	745.03
661.70	739.34
662.05	733.65
662.39	728.23
662.73	722.96
663.07	717.77
663.41	712.28
663.75	706.73
664.09	701.12
664.43	695.82
664.77	690.50
665.11	684.67
665.45	678.76
665.79	673.03
666.13	667.44
666.47	662.08
666.81	656.69
667.15	651.49
667.49	646.39
667.83	641.21
668.17	636.04
668.51	630.95
668.85	626.10
669.19	621.26
669.53	616.31
669.87	611.28
670.21	606.53
670.55	601.84
670.89	597.45
671.23	593.20
671.57	588.89
671.91	584.64
672.25	580.57
672.58	576.49
672.92	572.48
673.26	568.68
673.60	564.82
673.94	561.03
674.28	557.40
674.62	553.65
674.96	550.00
675.30	546.47
675.64	542.89
675.97	539.31
676.31	535.74
676.65	532.14
676.99	528.73
677.33	524.89
677.67	521.19
678.01	517.36
678.34	513.75
678.68	510.21
679.02	506.65
679.36	502.94
679.70	499.39
680.04	495.94
680.37	492.53
680.71	489.29
681.05	486.21
681.39	483.00
681.73	479.85
682.06	476.82
682.40	473.75
682.74	470.56
683.08	467.44
683.42	464.37
683.75	461.46
684.09	458.51
684.43	455.78
684.77	452.94
685.10	450.20
685.44	447.36
685.78	444.48
686.12	441.80
686.45	439.15
686.79	436.50
687.13	433.99
687.46	431.38
687.80	428.70
688.14	425.91
688.48	423.39
688.81	420.81
689.15	418.30
689.49	415.74
689.82	413.37
690.16	410.82
690.50	408.39
690.83	405.90
691.17	403.42
691.51	401.01
691.84	398.79
692.18	396.62
692.52	394.46
692.85	392.37
693.19	390.19
693.52	388.10
693.86	385.97
694.20	383.82
694.53	381.77
694.87	379.63
695.21	377.56
695.54	375.38
695.88	373.25
696.21	371.12
696.55	369.08
696.88	366.98
697.22	365.06
697.56	363.23
697.89	361.43
698.23	359.73
698.56	357.99
698.90	356.28
699.23	354.41
699.57	352.56
699.90	350.77
700.24	349.04
700.58	347.30
700.91	345.66
701.25	344.14
701.58	342.52
701.92	340.97
702.25	339.38
702.59	337.86
702.92	336.40
703.26	334.90
703.59	333.48
703.93	332.28
704.26	330.90
704.60	329.40
704.93	327.94
705.26	326.45
705.60	324.98
705.93	323.51
706.27	322.17
706.60	320.97
706.94	319.77
707.27	318.43
707.61	317.17
707.94	315.88
708.27	314.41
708.61	313.02
708.94	311.67
709.28	310.43
709.61	309.19
709.94	308.01
710.28	306.79
710.61	305.63
710.95	304.22
711.28	303.15
711.61	301.98
711.95	300.91
712.28	299.72
712.61	298.60
712.95	297.59
713.28	296.61
713.61	295.48
713.95	294.35
714.28	293.33
714.61	292.29
714.95	291.24
715.28	290.28
715.61	289.30
715.95	288.40
716.28	287.48
716.61	286.56
716.95	285.58
717.28	284.69
717.61	283.75
717.94	282.90
718.28	281.89
718.61	281.06
718.94	280.18
719.27	279.41
719.61	278.61
719.94	277.75
720.27	276.83
720.60	276.02
720.94	275.24
721.27	274.50
721.60	273.84
721.93	273.17
722.27	272.55
722.60	271.90
722.93	271.21
723.26	270.57
723.59	269.90
723.93	269.29
724.26	268.68
724.59	268.06
724.92	267.49
725.25	267.00
725.59	266.43
725.92	265.90
726.25	265.37
726.58	264.79
726.91	264.19
727.24	263.69
727.57	263.09
727.91	262.49
728.24	262.01
728.57	261.43
728.90	260.92
729.23	260.32
729.56	259.88
729.89	259.36
730.22	258.79
730.55	258.28
730.89	257.77
731.22	257.24
731.55	256.72
731.88	256.22
732.21	255.65
732.54	255.13
732.87	254.65
733.20	254.09
733.53	253.64
733.86	253.22
734.19	252.74
734.52	252.39
734.85	252.11
735.18	251.62
735.51	251.26
735.84	250.81
736.17	250.43
736.50	249.93
736.83	249.74
737.16	249.39
737.49	249.04
737.82	248.61
738.15	248.25
738.48	247.88
738.81	247.49
739.14	247.10
739.47	246.76
739.80	246.38
740.13	246.11
740.46	245.74
740.79	245.36
741.12	244.98
741.45	244.61
741.78	244.19
742.11	243.92
742.44	243.53
742.77	243.24
743.10	242.88
743.43	242.54
743.75	241.95
744.08	241.86
744.41	241.50
744.74	241.18
745.07	240.83
745.40	240.56
745.73	240.31
746.06	240.02
746.39	239.72
746.71	239.37
747.04	239.02
747.37	238.68
747.70	238.42
748.03	238.16
748.36	237.87
748.68	237.56
749.01	237.23
749.34	236.94
749.67	236.68
750.00	236.43
750.33	236.35
750.65	236.17
750.98	235.68
751.31	235.43
751.64	235.23
751.97	235.11
752.29	234.82
752.62	234.48
752.95	234.24
753.28	233.98
753.60	233.76
753.93	233.60
754.26	233.43
754.59	233.16
754.91	232.90
755.24	232.71
755.57	232.46
755.90	232.25
756.22	232.03
756.55	231.74
756.88	231.49
757.20	231.14
757.53	230.87
757.86	230.67
758.19	230.50
758.51	230.26
758.84	229.96
759.17	229.77
759.49	229.62
759.82	229.55
760.15	229.38
760.47	229.20
760.80	228.94
761.13	228.78
761.45	228.61
761.78	228.43
762.11	228.25
762.43	228.10
762.76	227.93
763.08	227.76
763.41	227.63
763.74	227.52
764.06	227.36
764.39	227.20
764.71	227.08
765.04	226.87
765.37	226.73
765.69	226.61
766.02	226.50
766.34	226.38
766.67	226.16
767.00	226.02
767.32	225.99
767.65	226.00
767.97	225.86
768.30	225.73
768.62	225.61
768.95	225.46
769.27	225.37
769.60	225.26
769.92	225.13
770.25	224.97
770.57	224.80
770.90	224.66
771.22	224.56
771.55	224.42
771.87	224.35
772.20	224.23
772.52	224.26
772.85	224.36
773.17	224.24
773.50	224.11
773.82	224.00
774.15	223.84
774.47	223.61
774.80	223.48
775.12	223.39
775.45	223.34
775.77	223.24
776.09	223.13
776.42	223.02
776.74	222.97
777.07	222.91
777.39	222.84
777.72	222.78
778.04	222.69
778.36	222.60
778.69	222.54
779.01	222.47
779.33	222.23
779.66	221.93
779.98	221.84
780.31	221.79
780.63	221.83
780.95	221.78
781.28	221.70
781.60	221.63
781.92	221.53
782.25	221.42
782.57	221.38
782.89	221.31
783.22	221.26
783.54	221.17
783.86	221.14
784.19	221.06
784.51	221.05
784.83	220.96
785.16	220.87
785.48	220.82
785.80	220.77
786.12	220.73
786.45	220.67
786.77	220.60
787.09	220.51
787.42	220.37
787.74	220.30
788.06	220.27
788.38	220.22
788.71	220.15
789.03	220.13
789.35	220.10
789.67	220.05
789.99	220.01
790.32	219.98
790.64	219.90
790.96	220.02
791.28	219.89
791.61	219.86
791.93	219.85
792.25	219.76
792.57	219.88
792.89	219.80
793.21	219.77
793.54	219.72
793.86	219.69
794.18	219.67
794.50	219.61
794.82	219.59
795.14	219.57
795.47	219.61
795.79	219.55
796.11	219.49
796.43	219.43
796.75	219.40
797.07	219.35
797.39	219.29
797.71	219.13
798.04	219.14
798.36	219.13
798.68	219.08
799.00	219.09
799.32	218.94
799.64	218.94
799.96	218.92
800.28	218.94
800.60	218.87
800.92	218.82
801.24	218.77
801.56	218.74
801.89	218.71
802.21	218.68
802.53	218.59
802.85	218.57
803.17	218.63
803.49	218.58
803.81	218.52
804.13	218.54
804.45	218.44
804.77	218.39
805.09	218.34
805.41	218.29
805.73	218.20
806.05	218.11
806.37	218.05
806.69	217.98
807.01	217.95
807.33	217.97
807.65	217.85
807.97	217.92
808.28	217.92
808.60	217.86
808.92	217.80
809.24	217.93
809.56	217.93
809.88	217.82
810.20	217.79
810.52	217.78
810.84	217.70
811.16	217.68
811.48	217.64
811.80	217.70
812.12	217.72
812.43	217.75
812.75	217.76
813.07	217.70
813.39	217.69
813.71	217.62
814.03	217.56
814.35	217.59
814.67	217.43
814.98	217.35
815.30	217.34
815.62	217.30
815.94	217.13
816.26	217.10
816.58	217.04
816.89	217.04
817.21	217.00
817.53	216.97
817.85	216.95
818.17	216.95
818.48	216.85
818.80	216.85
819.12	216.80
819.44	216.74
819.76	216.74
820.07	216.68
820.39	216.70
820.71	216.71
821.03	216.67
821.34	216.70
821.66	216.74
821.98	216.73
822.30	216.73
822.61	216.86
822.93	216.80
823.25	216.78
823.57	216.71
823.88	216.75
824.20	216.74
824.52	216.78
824.83	216.75
825.15	216.69
825.47	216.62
825.79	216.65
826.10	216.62
826.42	216.60
826.74	216.63
827.05	216.57
827.37	216.60
827.69	216.57
828.00	216.57
828.32	216.53
828.64	216.48
828.95	216.56
829.27	216.46
829.58	216.45
829.90	216.50
830.22	216.51
830.53	216.42
830.85	216.40
831.17	216.33
831.48	216.31
831.80	216.32
832.11	216.33
832.43	216.27
832.75	216.27
833.06	216.35
833.38	216.29
833.69	216.30
834.01	216.27
834.32	216.28
834.64	216.23
834.96	216.20
835.27	216.21
835.59	216.12
835.90	216.08
836.22	216.10
836.53	216.03
836.85	216.02
837.16	216.25
837.48	216.27
837.79	216.34
838.11	216.35
838.42	216.37
838.74	216.36
839.05	216.33
839.37	216.32
839.68	216.23
840.00	216.20
840.31	216.22
840.63	216.18
840.94	216.15
841.26	216.17
841.57	216.15
841.88	216.15
842.20	216.14
842.51	216.11
842.83	216.05
843.14	216.25
843.46	216.24
843.77	216.08
844.08	216.03
844.40	215.94
844.71	215.90
845.03	215.89
845.34	215.87
845.65	215.89
845.97	215.89
846.28	215.88
846.60	215.89
846.91	215.86
847.22	215.86
847.54	215.89
847.85	215.88
848.16	215.87
848.48	215.80
848.79	215.85
849.10	215.86
849.42	215.92
849.73	215.72
850.04	215.73
850.36	215.69
850.67	215.75
850.98	215.77
851.30	215.78
851.61	215.75
851.92	215.76
852.23	215.80
852.55	215.80
852.86	215.81
853.17	215.81
853.49	215.82
853.80	215.84
854.11	215.85
854.42	215.89
854.74	215.87
855.05	215.92
855.36	215.82
855.67	215.83
855.99	215.78
856.30	216.04
856.61	216.04
856.92	216.05
857.23	216.04
857.55	216.02
857.86	216.04
858.17	216.06
858.48	216.00
858.79	215.95
859.11	215.96
859.42	215.94
859.73	215.91
860.04	215.89
860.35	215.88
860.66	215.81
860.98	215.78
861.29	215.81
861.60	215.80
861.91	215.84
862.22	215.82
862.53	215.77
862.84	215.51
863.16	215.57
863.47	215.49
863.78	215.49
864.09	215.54
864.40	215.55
864.71	215.54
865.02	215.56
865.33	215.58
865.64	215.54
865.95	215.53
866.27	215.70
866.58	215.71
866.89	215.70
867.20	215.68
867.51	215.66
867.82	215.66
868.13	215.72
868.44	215.67
868.75	215.71
869.06	215.77
869.37	215.78
869.68	215.71
869.99	215.79
870.30	215.78
870.61	215.72
870.92	215.67
871.23	215.71
871.54	215.72
871.85	215.75
872.16	215.78
872.47	215.76
872.78	215.60
873.09	215.63
873.40	215.62
873.71	215.66
874.02	215.68
874.33	215.66
874.64	215.61
874.95	215.67
875.26	215.61
875.56	215.57
875.87	215.58
876.18	215.54
876.49	215.73
876.80	215.72
877.11	215.72
877.42	215.72
877.73	215.68
878.04	215.67
878.35	215.64
878.66	215.67
878.96	215.65
879.27	215.62
879.58	215.60
879.89	215.57
880.20	215.63
880.51	215.61
880.82	215.60
881.12	215.58
881.43	215.54
881.74	215.50
882.05	215.51
882.36	215.50
882.67	215.51
882.97	215.28
883.28	215.25
883.59	215.23
883.90	215.28
884.21	215.32
884.51	215.27
884.82	215.26
885.13	215.23
885.44	215.27
885.74	215.31
886.05	215.29
886.36	215.30
886.67	215.22
886.98	215.30
887.28	215.30
887.59	215.32
887.90	215.33
888.20	215.32
888.51	215.36
888.82	215.37
889.13	215.38
889.43	215.53
889.74	215.54
890.05	215.55
890.35	215.49
890.66	215.46
890.97	215.45
891.28	215.41
891.58	215.41
891.89	215.42
892.20	215.40
892.50	215.36
892.81	215.34
893.12	215.33
893.42	215.24
893.73	215.23
894.04	215.21
894.34	215.22
894.65	215.24
894.95	215.20
895.26	215.18
895.57	215.27
895.87	215.12
896.18	215.10
896.48	215.10
896.79	215.12
897.10	215.12
897.40	215.15
897.71	215.18
898.01	215.18
898.32	215.18
898.63	215.17
898.93	215.20
899.24	215.23
899.54	215.19
899.85	215.20
900.15	215.22
900.46	215.23
900.76	215.22
901.07	215.21
901.38	215.23
901.68	215.27
901.99	215.16
902.29	215.17
902.60	215.15
902.90	215.15
903.21	215.18
903.51	215.16
903.82	215.20
904.12	215.20
904.43	215.18
904.73	215.15
905.03	215.13
905.34	215.32
905.64	215.28
905.95	215.32
906.25	215.29
906.56	215.27
906.86	215.28
907.17	215.26
907.47	215.29
907.77	215.25
908.08	215.20
908.38	215.22
908.69	215.23
908.99	215.29
909.30	215.31
909.60	215.26
909.90	215.26
910.21	215.19
910.51	215.14
910.81	215.20
911.12	215.20
911.42	215.24
911.73	215.03
912.03	215.06
912.33	215.11
912.64	215.14
912.94	215.12
913.24	215.10
913.55	215.05
913.85	215.00
914.15	215.04
914.46	215.09
914.76	215.04
915.06	215.04
915.37	214.98
915.67	214.94
915.97	214.94
916.27	214.91
916.58	214.93
916.88	214.98
917.18	214.94
917.49	215.08
917.79	215.04
918.09	215.10
918.39	215.15
918.70	215.11
919.00	215.10
919.30	215.21
919.60	215.23
919.91	215.25
920.21	215.26
920.51	215.23
920.81	215.22
921.12	215.28
921.42	215.24
921.72	215.27
922.02	215.29
922.32	215.35
922.63	215.38
922.93	215.48
923.23	215.46
923.53	215.44
923.83	215.31
924.13	215.36
924.44	215.34
924.74	215.34
925.04	215.40
925.34	215.38
925.64	215.26
925.94	215.22
926.24	215.30
926.55	215.30
926.85	215.29
927.15	215.31
927.45	215.33
927.75	215.34
928.05	215.33
928.35	215.33
928.65	215.35
928.95	215.32
929.26	215.22
929.56	215.29
929.86	215.30
930.16	215.28
930.46	215.24
930.76	215.26
931.06	215.19
931.36	215.12
931.66	215.16
931.96	215.20
932.26	215.21
932.56	215.12
932.86	215.15
933.16	215.15
933.46	215.11
933.76	215.06
934.06	215.12
934.36	215.19
934.66	215.19
934.96	215.14
935.26	215.18
935.56	215.22
935.86	215.12
936.16	215.09
936.46	215.10
936.76	215.11
937.06	215.08
937.36	215.10
937.66	215.11
937.96	215.11
938.26	215.08
938.56	215.07
938.86	215.10
939.16	215.13
939.46	215.17
939.76	215.21
940.06	215.20
940.35	215.18
940.65	215.07
940.95	215.08
941.25	215.03
941.55	215.03
941.85	215.04
942.15	215.10
942.45	215.19
942.75	215.17
943.04	215.17
943.34	215.20
943.64	215.15
943.94	215.12
944.24	215.14
944.54	215.17
944.84	215.14
945.13	215.10
945.43	215.06
945.73	215.03
946.03	215.00
946.33	214.96
946.62	214.91
946.92	214.94
947.22	214.94
947.52	214.96
947.82	214.98
948.11	214.92
948.41	214.89
948.71	214.81
949.01	214.83
949.31	214.82
949.60	214.77
949.90	214.84
950.20	214.82
950.50	214.80
950.79	214.75
951.09	214.81
951.39	214.82
951.69	214.84
951.98	214.88
952.28	214.88
952.58	214.87
952.87	214.88
953.17	214.89
953.47	214.89
953.76	214.91
954.06	214.86
954.36	214.84
954.66	214.84
954.95	214.88
955.25	214.86
955.55	214.90
955.84	214.85
956.14	214.84
956.44	214.86
956.73	214.83
957.03	214.86
957.32	214.86
957.62	214.85
957.92	214.85
958.21	214.82
958.51	215.07
958.81	215.10
959.10	215.12
959.40	215.13
959.69	215.13
959.99	215.13
960.29	215.12
960.58	215.10
960.88	215.18
961.17	215.17
961.47	215.23
961.76	215.20
962.06	215.28
962.36	215.25
962.65	215.30
962.95	215.30
963.24	215.26
963.54	215.27
963.83	215.28
964.13	215.27
964.42	215.23
964.72	215.07
965.01	215.10
965.31	215.10
965.60	215.08
965.90	215.20
966.19	215.17
966.49	215.20
966.78	215.20
967.08	215.18
967.37	215.18
967.67	215.12
967.96	215.17
968.26	215.15
968.55	215.18
968.85	215.16
969.14	215.15
969.43	215.16
969.73	215.13
970.02	215.12
970.32	215.12
970.61	215.10
970.91	215.04
971.20	214.98
971.49	214.95
971.79	214.97
972.08	214.80
972.38	214.82
972.67	214.80
972.96	214.83
973.26	214.77
973.55	214.80
973.85	214.79
974.14	214.76
974.43	214.77
974.73	214.72
975.02	214.69
975.31	214.70
975.61	214.72
975.90	214.70
976.19	214.66
976.49	214.66
976.78	214.70
977.07	214.67
977.37	214.73
977.66	214.75
977.95	214.72
978.24	214.78
978.54	214.83
978.83	214.82
979.12	214.82
979.42	214.84
979.71	214.78
980.00	214.77
980.29	214.75
980.59	214.71
980.88	214.77
981.17	214.77
981.46	214.77
981.76	214.75
982.05	214.82
982.34	214.88
982.63	214.91
982.93	214.88
983.22	214.95
983.51	214.92
983.80	214.94
984.09	214.98
984.39	214.94
984.68	214.87
984.97	214.86
985.26	214.83
985.55	214.87
985.85	214.85
986.14	214.89
986.43	214.94
986.72	214.93
987.01	214.90
987.30	214.93
987.59	214.89
987.89	214.90
988.18	214.84
988.47	214.80
988.76	214.77
989.05	214.78
989.34	214.72
989.63	214.79
989.92	214.76
990.22	214.72
990.51	214.74
990.80	214.76
991.09	214.77
991.38	214.84
991.67	214.78
991.96	214.78
992.25	214.78
992.54	214.74
992.83	214.76
993.12	214.70
993.41	214.72
993.70	214.85
993.99	214.87
994.28	214.90
994.58	214.94
994.87	214.91
995.16	214.89
995.45	214.88
995.74	214.81
996.03	214.83
996.32	214.87
996.61	214.90
996.90	214.86
997.19	214.87
997.48	214.83
997.77	214.84
998.06	214.87
998.34	214.87
998.63	214.87
998.92	214.85
999.21	214.91
999.50	214.93
999.79	214.85
1000.08	214.85
1000.37	214.87
1000.66	214.81
1000.95	214.89
1001.24	214.92
1001.53	214.95
1001.82	214.92
1002.11	214.88
1002.40	214.89
1002.68	214.95
1002.97	215.14
1003.26	215.13
1003.55	215.14
1003.84	215.12
1004.13	215.16
1004.42	215.16
1004.71	215.17
1004.99	215.20
1005.28	215.25
1005.57	215.23
1005.86	215.20
1006.15	215.19
1006.44	215.14
1006.72	215.21
1007.01	215.16
1007.30	215.14
1007.59	215.16
1007.88	215.18
1008.17	215.17
1008.45	215.14
1008.74	215.04
1009.03	214.94
1009.32	214.94
1009.60	214.89
1009.89	214.92
1010.18	214.87
1010.47	214.84
1010.76	214.86
1011.04	214.82
1011.33	214.81
1011.62	214.82
1011.91	214.85
1012.19	214.86
1012.48	214.87
1012.77	214.79
1013.05	214.91
1013.34	214.91
1013.63	214.85
1013.92	214.85
1014.20	214.89
1014.49	214.88
1014.78	214.91
1015.06	214.83
1015.35	214.84
1015.64	214.90
1015.92	214.94
1016.21	214.94
1016.50	214.93
1016.78	214.94
1017.07	214.94
1017.36	214.91
1017.64	214.85
1017.93	214.87
1018.22	214.84
1018.50	214.84
1018.79	214.88
1019.08	214.74
1019.36	214.73
1019.65	214.74
1019.93	214.81
1020.22	214.80
1020.51	214.87
1020.79	214.85
1021.08	214.40
1021.36	214.60
1021.65	214.79
1021.94	214.22
1022.22	214.50
1022.51	214.42
1022.79	215.87
1023.08	214.80
1023.36	216.46
1023.65	214.64
>>>>>End Processed Spectral Data<<<<<
