SpectraSuite Data File
++++++++++++++++++++++++++++++++++++
Date: Tue Jan 29 16:03:21 EST 2013
User: group
Dark Spectrum Present: No
Reference Spectrum Present: No
Number of Sampled Component Spectra: 1
Spectrometers: USB2E7196
Integration Time (usec): 65000 (USB2E7196)
Spectra Averaged: 100 (USB2E7196)
Boxcar Smoothing: 10 (USB2E7196)
Correct for Electrical Dark: No (USB2E7196)
Strobe/Lamp Enabled: No (USB2E7196)
Correct for Detector Non-linearity: No (USB2E7196)
Correct for Stray Light: No (USB2E7196)
Number of Pixels in Processed Spectrum: 2048
>>>>>Begin Processed Spectral Data<<<<<
339.09	0.00
339.48	201.60
339.86	204.13
340.24	205.87
340.63	206.87
341.01	212.06
341.39	210.14
341.78	210.97
342.16	212.05
342.54	213.19
342.93	201.90
343.31	212.10
343.69	212.71
344.07	213.15
344.46	213.55
344.84	213.96
345.22	214.09
345.60	214.33
345.99	214.54
346.37	214.71
346.75	214.79
347.13	214.88
347.52	214.92
347.90	215.03
348.28	215.03
348.66	215.15
349.05	215.11
349.43	215.14
349.81	215.23
350.19	215.29
350.57	215.36
350.96	215.40
351.34	215.49
351.72	215.57
352.10	215.72
352.48	215.79
352.87	215.82
353.25	215.90
353.63	215.95
354.01	215.99
354.39	216.02
354.77	216.11
355.15	216.23
355.54	216.32
355.92	216.32
356.30	216.42
356.68	216.59
357.06	216.67
357.44	216.71
357.82	216.75
358.20	216.81
358.58	216.86
358.97	216.96
359.35	217.07
359.73	217.18
360.11	217.21
360.49	217.30
360.87	217.38
361.25	217.45
361.63	217.58
362.01	217.63
362.39	217.70
362.77	217.73
363.15	217.76
363.53	217.77
363.91	217.84
364.29	217.83
364.67	217.65
365.05	217.65
365.43	217.74
365.81	217.78
366.19	217.90
366.57	217.99
366.95	217.98
367.33	217.94
367.71	217.92
368.09	217.98
368.47	217.96
368.85	217.92
369.23	217.96
369.61	217.87
369.99	217.93
370.37	217.91
370.75	218.01
371.13	217.94
371.51	217.91
371.89	217.88
372.27	217.89
372.65	217.91
373.03	217.90
373.41	217.83
373.78	217.77
374.16	217.62
374.54	217.53
374.92	217.48
375.30	217.42
375.68	217.33
376.06	217.29
376.44	217.24
376.82	217.21
377.19	217.14
377.57	217.09
377.95	217.01
378.33	216.96
378.71	216.80
379.09	216.79
379.47	216.78
379.84	216.72
380.22	216.66
380.60	216.55
380.98	216.53
381.36	216.48
381.73	216.45
382.11	216.45
382.49	216.41
382.87	216.36
383.25	216.33
383.62	216.55
384.00	216.46
384.38	216.45
384.76	216.46
385.13	216.50
385.51	216.47
385.89	216.39
386.27	216.39
386.64	216.42
387.02	216.34
387.40	216.26
387.78	216.25
388.15	216.24
388.53	216.24
388.91	216.19
389.29	216.17
389.66	216.15
390.04	216.11
390.42	216.10
390.79	216.11
391.17	216.07
391.55	215.82
391.92	215.81
392.30	215.81
392.68	215.76
393.05	215.71
393.43	215.70
393.81	215.70
394.18	215.65
394.56	215.62
394.94	215.71
395.31	215.73
395.69	215.81
396.06	215.84
396.44	215.86
396.82	215.89
397.19	215.99
397.57	216.00
397.95	216.05
398.32	216.06
398.70	216.05
399.07	216.16
399.45	216.19
399.82	216.26
400.20	216.31
400.58	216.35
400.95	216.37
401.33	216.51
401.70	216.71
402.08	216.83
402.45	216.94
402.83	217.06
403.20	217.18
403.58	217.23
403.95	217.38
404.33	217.53
404.71	217.64
405.08	217.90
405.46	218.07
405.83	218.26
406.21	218.45
406.58	218.73
406.96	218.94
407.33	219.21
407.70	219.48
408.08	219.93
408.45	220.27
408.83	220.63
409.20	220.95
409.58	221.24
409.95	221.68
410.33	222.18
410.70	222.57
411.08	223.10
411.45	223.68
411.82	224.23
412.20	224.89
412.57	225.72
412.95	226.26
413.32	227.08
413.69	227.88
414.07	228.76
414.44	229.70
414.82	230.67
415.19	231.81
415.56	232.97
415.94	234.11
416.31	235.47
416.68	236.83
417.06	238.39
417.43	239.86
417.81	241.49
418.18	243.14
418.55	245.04
418.93	246.98
419.30	249.00
419.67	251.13
420.04	253.35
420.42	255.64
420.79	258.38
421.16	261.06
421.54	263.88
421.91	266.76
422.28	269.72
422.66	272.91
423.03	276.09
423.40	279.30
423.77	282.76
424.15	286.28
424.52	289.99
424.89	294.03
425.26	297.95
425.64	301.74
426.01	305.88
426.38	310.21
426.75	314.60
427.13	319.16
427.50	323.95
427.87	328.98
428.24	334.01
428.61	338.84
428.99	344.17
429.36	349.97
429.73	355.61
430.10	361.34
430.47	367.21
430.85	373.26
431.22	379.69
431.59	386.53
431.96	393.11
432.33	400.35
432.70	407.30
433.08	415.54
433.45	423.34
433.82	431.07
434.19	439.57
434.56	447.98
434.93	456.03
435.30	464.05
435.68	472.89
436.05	481.54
436.42	490.10
436.79	497.92
437.16	506.40
437.53	515.40
437.90	524.22
438.27	532.80
438.64	541.64
439.01	549.90
439.38	557.28
439.75	564.38
440.13	572.52
440.50	580.24
440.87	586.36
441.24	592.73
441.61	599.78
441.98	605.03
442.35	611.06
442.72	617.08
443.09	622.87
443.46	626.35
443.83	628.81
444.20	630.89
444.57	633.92
444.94	635.21
445.31	636.52
445.68	637.83
446.05	638.41
446.42	637.70
446.79	636.74
447.16	635.68
447.53	634.90
447.90	631.63
448.27	628.40
448.64	623.98
449.01	620.72
449.37	614.99
449.74	609.56
450.11	602.94
450.48	595.78
450.85	588.59
451.22	582.41
451.59	576.45
451.96	570.82
452.33	563.23
452.70	556.42
453.07	548.28
453.43	539.97
453.80	532.01
454.17	524.32
454.54	517.07
454.91	509.14
455.28	501.48
455.65	494.38
456.02	487.22
456.38	481.20
456.75	473.67
457.12	467.44
457.49	461.12
457.86	455.18
458.23	450.07
458.59	444.36
458.96	438.58
459.33	433.51
459.70	428.39
460.07	424.33
460.43	419.64
460.80	415.26
461.17	411.47
461.54	407.49
461.91	403.62
462.27	399.73
462.64	396.45
463.01	392.77
463.38	389.18
463.74	385.58
464.11	382.41
464.48	379.71
464.85	376.70
465.21	374.39
465.58	371.91
465.95	368.92
466.32	366.42
466.68	363.91
467.05	361.41
467.42	358.93
467.78	356.35
468.15	353.88
468.52	352.06
468.88	349.63
469.25	347.46
469.62	345.70
469.98	343.81
470.35	342.06
470.72	340.47
471.08	338.79
471.45	337.38
471.82	335.92
472.18	334.33
472.55	333.20
472.92	331.82
473.28	330.62
473.65	329.57
474.02	328.57
474.38	327.76
474.75	327.07
475.11	326.31
475.48	325.80
475.85	325.38
476.21	324.93
476.58	324.62
476.94	324.46
477.31	324.23
477.67	324.02
478.04	323.89
478.41	323.91
478.77	324.06
479.14	324.01
479.50	324.16
479.87	324.42
480.23	324.72
480.60	325.02
480.96	325.39
481.33	325.97
481.69	326.52
482.06	327.09
482.42	327.55
482.79	328.16
483.15	328.96
483.52	329.94
483.88	330.84
484.25	331.81
484.61	332.80
484.98	333.86
485.34	335.17
485.71	336.56
486.07	337.95
486.44	339.27
486.80	340.90
487.17	342.59
487.53	344.46
487.90	346.36
488.26	348.38
488.62	350.43
488.99	352.49
489.35	354.65
489.72	356.98
490.08	359.53
490.44	362.04
490.81	364.73
491.17	367.42
491.54	370.44
491.90	373.46
492.26	376.75
492.63	380.18
492.99	383.68
493.36	387.35
493.72	391.20
494.08	395.28
494.45	399.51
494.81	403.89
495.17	408.31
495.54	413.00
495.90	417.84
496.26	422.79
496.63	427.98
496.99	433.35
497.35	438.88
497.72	444.68
498.08	450.68
498.44	456.77
498.80	463.14
499.17	469.53
499.53	476.17
499.89	483.03
500.26	489.98
500.62	496.98
500.98	504.38
501.34	511.85
501.71	519.54
502.07	527.28
502.43	535.26
502.79	543.39
503.16	551.78
503.52	560.30
503.88	568.97
504.24	577.86
504.60	586.93
504.97	596.12
505.33	605.31
505.69	615.17
506.05	624.99
506.41	634.79
506.78	644.86
507.14	655.13
507.50	665.50
507.86	676.16
508.22	686.95
508.59	697.60
508.95	708.70
509.31	719.86
509.67	731.26
510.03	742.66
510.39	754.32
510.75	766.11
511.12	778.03
511.48	790.16
511.84	802.35
512.20	814.60
512.56	827.26
512.92	840.00
513.28	852.51
513.64	865.17
514.00	877.96
514.37	890.84
514.73	903.74
515.09	916.54
515.45	929.18
515.81	942.04
516.17	955.23
516.53	968.28
516.89	981.24
517.25	994.29
517.61	1007.52
517.97	1020.73
518.33	1033.72
518.69	1047.14
519.05	1060.62
519.41	1074.18
519.77	1087.97
520.13	1100.98
520.49	1113.98
520.85	1127.18
521.21	1140.30
521.57	1153.75
521.93	1166.68
522.29	1180.29
522.65	1193.87
523.01	1207.31
523.37	1220.26
523.73	1233.42
524.09	1246.37
524.45	1259.63
524.81	1272.82
525.17	1286.01
525.53	1298.94
525.89	1311.94
526.25	1324.75
526.61	1337.28
526.97	1349.96
527.33	1362.55
527.68	1375.81
528.04	1388.94
528.40	1401.74
528.76	1414.87
529.12	1427.44
529.48	1440.33
529.84	1452.37
530.20	1464.70
530.56	1477.14
530.91	1490.28
531.27	1502.84
531.63	1515.29
531.99	1527.67
532.35	1539.70
532.71	1551.90
533.07	1564.43
533.42	1576.30
533.78	1588.13
534.14	1599.93
534.50	1610.84
534.86	1622.12
535.21	1632.67
535.57	1643.96
535.93	1655.05
536.29	1665.77
536.65	1676.88
537.00	1687.63
537.36	1698.55
537.72	1709.32
538.08	1720.22
538.44	1730.66
538.79	1741.38
539.15	1751.84
539.51	1762.13
539.87	1773.10
540.22	1783.47
540.58	1794.02
540.94	1804.63
541.29	1814.57
541.65	1824.12
542.01	1834.58
542.37	1844.28
542.72	1854.35
543.08	1863.76
543.44	1873.97
543.79	1882.98
544.15	1892.27
544.51	1902.00
544.87	1911.62
545.22	1920.47
545.58	1929.17
545.94	1937.84
546.29	1946.00
546.65	1954.21
547.01	1962.45
547.36	1969.92
547.72	1977.49
548.07	1985.01
548.43	1992.66
548.79	2000.31
549.14	2008.24
549.50	2016.27
549.86	2023.88
550.21	2030.79
550.57	2038.30
550.92	2044.75
551.28	2052.05
551.64	2059.04
551.99	2066.39
552.35	2073.39
552.70	2080.08
553.06	2086.63
553.41	2092.72
553.77	2099.07
554.13	2105.26
554.48	2112.08
554.84	2118.84
555.19	2125.13
555.55	2131.51
555.90	2137.55
556.26	2144.15
556.61	2149.93
556.97	2154.70
557.32	2160.42
557.68	2166.93
558.03	2172.56
558.39	2177.75
558.74	2183.52
559.10	2189.13
559.45	2194.49
559.81	2200.08
560.16	2205.71
560.52	2211.54
560.87	2217.93
561.23	2223.96
561.58	2230.56
561.94	2235.73
562.29	2240.68
562.64	2246.98
563.00	2252.37
563.35	2257.95
563.71	2263.93
564.06	2269.63
564.42	2275.70
564.77	2280.93
565.12	2286.14
565.48	2291.48
565.83	2297.07
566.19	2302.84
566.54	2308.21
566.89	2312.91
567.25	2317.45
567.60	2323.27
567.96	2328.57
568.31	2333.23
568.66	2337.50
569.02	2341.58
569.37	2345.43
569.72	2349.94
570.08	2353.47
570.43	2356.81
570.78	2359.97
571.14	2362.53
571.49	2365.75
571.84	2369.24
572.20	2372.07
572.55	2375.13
572.90	2377.33
573.26	2380.38
573.61	2382.90
573.96	2385.08
574.31	2387.15
574.67	2389.20
575.02	2390.15
575.37	2391.49
575.72	2392.42
576.08	2394.06
576.43	2394.33
576.78	2395.15
577.13	2397.04
577.49	2398.31
577.84	2399.82
578.19	2401.51
578.54	2402.39
578.90	2403.54
579.25	2403.66
579.60	2404.08
579.95	2403.61
580.30	2404.23
580.66	2403.66
581.01	2402.05
581.36	2400.19
581.71	2399.05
582.06	2398.29
582.42	2397.63
582.77	2395.88
583.12	2394.51
583.47	2393.46
583.82	2393.26
584.17	2392.15
584.53	2390.03
584.88	2388.26
585.23	2386.42
585.58	2384.23
585.93	2382.04
586.28	2379.90
586.63	2377.74
586.98	2375.61
587.34	2373.85
587.69	2371.70
588.04	2369.97
588.39	2368.93
588.74	2366.61
589.09	2364.32
589.44	2361.31
589.79	2359.10
590.14	2357.33
590.49	2354.62
590.84	2351.07
591.19	2348.18
591.54	2345.09
591.89	2341.23
592.25	2337.96
592.60	2333.90
592.95	2330.04
593.30	2326.33
593.65	2322.11
594.00	2317.97
594.35	2314.90
594.70	2310.40
595.05	2305.72
595.40	2300.35
595.75	2294.96
596.10	2291.40
596.45	2286.63
596.80	2282.27
597.15	2276.98
597.50	2271.11
597.85	2266.30
598.19	2260.98
598.54	2255.21
598.89	2250.29
599.24	2245.96
599.59	2240.00
599.94	2234.52
600.29	2228.79
600.64	2222.85
600.99	2216.36
601.34	2210.99
601.69	2204.23
602.04	2197.99
602.39	2191.63
602.74	2185.79
603.08	2180.15
603.43	2173.66
603.78	2166.81
604.13	2159.64
604.48	2152.62
604.83	2146.68
605.18	2140.45
605.53	2133.65
605.87	2126.68
606.22	2119.79
606.57	2111.88
606.92	2104.03
607.27	2097.05
607.62	2090.45
607.96	2083.49
608.31	2076.93
608.66	2069.19
609.01	2061.69
609.36	2054.71
609.70	2046.95
610.05	2039.22
610.40	2031.09
610.75	2023.00
611.10	2015.46
611.44	2006.96
611.79	1998.13
612.14	1988.11
612.49	1977.82
612.83	1968.62
613.18	1959.56
613.53	1950.30
613.88	1940.85
614.22	1932.45
614.57	1922.56
614.92	1912.07
615.27	1902.18
615.61	1892.37
615.96	1882.66
616.31	1873.29
616.65	1863.91
617.00	1854.01
617.35	1844.31
617.70	1834.51
618.04	1824.35
618.39	1813.98
618.74	1804.25
619.08	1794.80
619.43	1786.16
619.78	1777.95
620.12	1769.36
620.47	1759.56
620.82	1749.35
621.16	1739.54
621.51	1729.44
621.85	1719.46
622.20	1708.91
622.55	1698.15
622.89	1688.27
623.24	1678.68
623.59	1668.67
623.93	1658.47
624.28	1648.95
624.62	1638.70
624.97	1628.37
625.32	1618.79
625.66	1610.13
626.01	1601.25
626.35	1591.74
626.70	1581.60
627.04	1571.20
627.39	1560.99
627.73	1551.68
628.08	1542.45
628.43	1532.79
628.77	1523.61
629.12	1514.81
629.46	1506.93
629.81	1498.43
630.15	1488.71
630.50	1478.74
630.84	1468.42
631.19	1458.39
631.53	1448.85
631.88	1438.74
632.22	1428.64
632.57	1419.14
632.91	1408.84
633.26	1398.90
633.60	1389.38
633.95	1380.05
634.29	1370.74
634.64	1361.43
634.98	1351.53
635.32	1342.34
635.67	1333.83
636.01	1324.58
636.36	1314.70
636.70	1305.15
637.05	1295.88
637.39	1286.86
637.73	1278.33
638.08	1270.69
638.42	1262.46
638.77	1253.66
639.11	1245.41
639.45	1237.58
639.80	1228.96
640.14	1220.34
640.49	1211.45
640.83	1202.58
641.17	1194.48
641.52	1186.16
641.86	1177.48
642.20	1169.62
642.55	1160.98
642.89	1152.02
643.23	1143.34
643.58	1135.36
643.92	1126.27
644.26	1117.64
644.61	1109.14
644.95	1100.22
645.29	1090.82
645.64	1081.57
645.98	1073.29
646.32	1065.32
646.66	1056.82
647.01	1048.46
647.35	1040.22
647.69	1031.82
648.04	1023.49
648.38	1014.52
648.72	1005.77
649.06	997.36
649.41	989.12
649.75	981.14
650.09	973.34
650.43	965.26
650.78	956.94
651.12	949.36
651.46	941.84
651.80	934.69
652.14	927.39
652.49	919.98
652.83	912.81
653.17	905.01
653.51	897.47
653.85	890.27
654.20	882.92
654.54	875.41
654.88	868.36
655.22	861.19
655.56	854.28
655.90	847.64
656.25	841.04
656.59	834.04
656.93	827.07
657.27	819.91
657.61	813.07
657.95	807.07
658.29	801.22
658.64	795.12
658.98	788.71
659.32	782.16
659.66	775.94
660.00	769.61
660.34	763.65
660.68	757.53
661.02	751.24
661.36	745.47
661.70	739.78
662.05	734.10
662.39	728.71
662.73	723.32
663.07	717.95
663.41	712.33
663.75	706.73
664.09	701.16
664.43	695.91
664.77	690.53
665.11	684.78
665.45	678.87
665.79	673.18
666.13	667.50
666.47	662.14
666.81	656.81
667.15	651.43
667.49	646.23
667.83	640.98
668.17	635.89
668.51	630.75
668.85	625.89
669.19	621.04
669.53	616.06
669.87	611.06
670.21	606.30
670.55	601.61
670.89	597.30
671.23	593.10
671.57	588.71
671.91	584.51
672.25	580.40
672.58	576.34
672.92	572.36
673.26	568.53
673.60	564.71
673.94	560.94
674.28	557.42
674.62	553.76
674.96	550.08
675.30	546.57
675.64	543.08
675.97	539.54
676.31	536.01
676.65	532.44
676.99	529.00
677.33	525.24
677.67	521.67
678.01	517.86
678.34	514.14
678.68	510.69
679.02	507.11
679.36	503.43
679.70	499.85
680.04	496.34
680.37	492.91
680.71	489.63
681.05	486.50
681.39	483.31
681.73	480.21
682.06	477.29
682.40	474.19
682.74	470.99
683.08	467.83
683.42	464.68
683.75	461.77
684.09	458.83
684.43	456.03
684.77	453.18
685.10	450.38
685.44	447.56
685.78	444.67
686.12	442.01
686.45	439.28
686.79	436.66
687.13	434.19
687.46	431.60
687.80	428.94
688.14	426.13
688.48	423.61
688.81	420.93
689.15	418.38
689.49	415.82
689.82	413.35
690.16	410.89
690.50	408.49
690.83	405.99
691.17	403.52
691.51	401.16
691.84	398.92
692.18	396.77
692.52	394.65
692.85	392.57
693.19	390.44
693.52	388.33
693.86	386.17
694.20	383.97
694.53	381.90
694.87	379.79
695.21	377.69
695.54	375.53
695.88	373.46
696.21	371.29
696.55	369.23
696.88	367.21
697.22	365.24
697.56	363.36
697.89	361.52
698.23	359.82
698.56	358.04
698.90	356.30
699.23	354.41
699.57	352.53
699.90	350.72
700.24	348.97
700.58	347.26
700.91	345.63
701.25	344.12
701.58	342.56
701.92	340.98
702.25	339.43
702.59	337.87
702.92	336.33
703.26	334.81
703.59	333.40
703.93	332.16
704.26	330.76
704.60	329.32
704.93	327.89
705.26	326.36
705.60	324.88
705.93	323.42
706.27	322.14
706.60	320.96
706.94	319.75
707.27	318.36
707.61	317.06
707.94	315.73
708.27	314.24
708.61	312.80
708.94	311.48
709.28	310.21
709.61	309.01
709.94	307.86
710.28	306.69
710.61	305.49
710.95	304.07
711.28	303.00
711.61	301.80
711.95	300.69
712.28	299.57
712.61	298.46
712.95	297.40
713.28	296.41
713.61	295.22
713.95	294.08
714.28	293.08
714.61	292.05
714.95	291.09
715.28	290.11
715.61	289.13
715.95	288.22
716.28	287.31
716.61	286.35
716.95	285.36
717.28	284.45
717.61	283.51
717.94	282.70
718.28	281.65
718.61	280.86
718.94	279.97
719.27	279.13
719.61	278.34
719.94	277.48
720.27	276.49
720.60	275.71
720.94	274.96
721.27	274.26
721.60	273.59
721.93	272.90
722.27	272.32
722.60	271.69
722.93	271.00
723.26	270.34
723.59	269.67
723.93	269.05
724.26	268.45
724.59	267.82
724.92	267.25
725.25	266.79
725.59	266.19
725.92	265.64
726.25	265.09
726.58	264.54
726.91	263.98
727.24	263.49
727.57	262.94
727.91	262.34
728.24	261.78
728.57	261.19
728.90	260.64
729.23	260.03
729.56	259.59
729.89	259.06
730.22	258.54
730.55	257.99
730.89	257.49
731.22	256.93
731.55	256.46
731.88	255.94
732.21	255.39
732.54	254.87
732.87	254.37
733.20	253.91
733.53	253.46
733.86	253.04
734.19	252.59
734.52	252.19
734.85	251.94
735.18	251.50
735.51	251.12
735.84	250.71
736.17	250.35
736.50	249.84
736.83	249.71
737.16	249.33
737.49	249.00
737.82	248.61
738.15	248.29
738.48	247.89
738.81	247.47
739.14	247.06
739.47	246.67
739.80	246.34
740.13	246.00
740.46	245.61
740.79	245.21
741.12	244.87
741.45	244.54
741.78	244.07
742.11	243.79
742.44	243.45
742.77	243.14
743.10	242.77
743.43	242.45
743.75	241.86
744.08	241.77
744.41	241.43
744.74	241.11
745.07	240.73
745.40	240.50
745.73	240.31
746.06	240.01
746.39	239.78
746.71	239.48
747.04	239.13
747.37	238.84
747.70	238.61
748.03	238.30
748.36	238.03
748.68	237.72
749.01	237.38
749.34	237.08
749.67	236.82
750.00	236.59
750.33	236.48
750.65	236.24
750.98	235.74
751.31	235.51
751.64	235.27
751.97	235.18
752.29	234.90
752.62	234.54
752.95	234.30
753.28	234.03
753.60	233.80
753.93	233.65
754.26	233.41
754.59	233.14
754.91	232.91
755.24	232.66
755.57	232.46
755.90	232.25
756.22	232.07
756.55	231.81
756.88	231.56
757.20	231.24
757.53	230.99
757.86	230.81
758.19	230.60
758.51	230.43
758.84	230.13
759.17	229.94
759.49	229.78
759.82	229.73
760.15	229.56
760.47	229.39
760.80	229.13
761.13	229.03
761.45	228.85
761.78	228.68
762.11	228.53
762.43	228.36
762.76	228.16
763.08	227.99
763.41	227.87
763.74	227.72
764.06	227.55
764.39	227.43
764.71	227.25
765.04	227.14
765.37	226.96
765.69	226.82
766.02	226.66
766.34	226.51
766.67	226.30
767.00	226.24
767.32	226.17
767.65	226.13
767.97	225.99
768.30	225.86
768.62	225.78
768.95	225.61
769.27	225.49
769.60	225.44
769.92	225.27
770.25	225.13
770.57	224.99
770.90	224.89
771.22	224.72
771.55	224.60
771.87	224.47
772.20	224.35
772.52	224.41
772.85	224.55
773.17	224.43
773.50	224.31
773.82	224.17
774.15	223.98
774.47	223.79
774.80	223.67
775.12	223.57
775.45	223.45
775.77	223.38
776.09	223.28
776.42	223.20
776.74	223.19
777.07	223.06
777.39	222.98
777.72	222.85
778.04	222.81
778.36	222.75
778.69	222.65
779.01	222.57
779.33	222.33
779.66	222.03
779.98	221.92
780.31	221.86
780.63	221.84
780.95	221.78
781.28	221.73
781.60	221.62
781.92	221.53
782.25	221.46
782.57	221.40
782.89	221.35
783.22	221.23
783.54	221.10
783.86	221.07
784.19	220.99
784.51	220.99
784.83	220.92
785.16	220.85
785.48	220.79
785.80	220.74
786.12	220.69
786.45	220.58
786.77	220.59
787.09	220.50
787.42	220.39
787.74	220.36
788.06	220.32
788.38	220.28
788.71	220.23
789.03	220.17
789.35	220.13
789.67	220.05
789.99	220.03
790.32	219.98
790.64	219.96
790.96	220.10
791.28	219.98
791.61	219.89
791.93	219.85
792.25	219.84
792.57	219.98
792.89	219.89
793.21	219.87
793.54	219.79
793.86	219.77
794.18	219.76
794.50	219.67
794.82	219.64
795.14	219.60
795.47	219.59
795.79	219.58
796.11	219.49
796.43	219.45
796.75	219.40
797.07	219.38
797.39	219.31
797.71	219.10
798.04	219.09
798.36	219.07
798.68	219.03
799.00	218.97
799.32	218.81
799.64	218.79
799.96	218.83
800.28	218.84
800.60	218.77
800.92	218.74
801.24	218.72
801.56	218.71
801.89	218.66
802.21	218.65
802.53	218.59
802.85	218.60
803.17	218.63
803.49	218.56
803.81	218.49
804.13	218.46
804.45	218.42
804.77	218.42
805.09	218.42
805.41	218.39
805.73	218.31
806.05	218.21
806.37	218.16
806.69	218.08
807.01	218.01
807.33	217.99
807.65	217.88
807.97	217.96
808.28	217.89
808.60	217.86
808.92	217.80
809.24	217.92
809.56	217.87
809.88	217.79
810.20	217.79
810.52	217.82
810.84	217.77
811.16	217.73
811.48	217.67
811.80	217.70
812.12	217.65
812.43	217.68
812.75	217.71
813.07	217.67
813.39	217.66
813.71	217.62
814.03	217.59
814.35	217.56
814.67	217.43
814.98	217.40
815.30	217.39
815.62	217.35
815.94	217.15
816.26	217.15
816.58	217.10
816.89	217.10
817.21	217.02
817.53	217.02
817.85	217.02
818.17	217.01
818.48	216.90
818.80	216.93
819.12	216.89
819.44	216.81
819.76	216.77
820.07	216.74
820.39	216.76
820.71	216.76
821.03	216.73
821.34	216.73
821.66	216.70
821.98	216.71
822.30	216.66
822.61	216.77
822.93	216.71
823.25	216.71
823.57	216.67
823.88	216.73
824.20	216.73
824.52	216.72
824.83	216.70
825.15	216.67
825.47	216.66
825.79	216.69
826.10	216.69
826.42	216.65
826.74	216.70
827.05	216.64
827.37	216.64
827.69	216.64
828.00	216.60
828.32	216.61
828.64	216.55
828.95	216.68
829.27	216.61
829.58	216.63
829.90	216.65
830.22	216.64
830.53	216.57
830.85	216.52
831.17	216.50
831.48	216.48
831.80	216.47
832.11	216.44
832.43	216.37
832.75	216.35
833.06	216.46
833.38	216.37
833.69	216.34
834.01	216.32
834.32	216.33
834.64	216.30
834.96	216.29
835.27	216.29
835.59	216.21
835.90	216.18
836.22	216.15
836.53	216.10
836.85	216.06
837.16	216.24
837.48	216.23
837.79	216.26
838.11	216.23
838.42	216.22
838.74	216.24
839.05	216.24
839.37	216.21
839.68	216.10
840.00	216.06
840.31	216.13
840.63	216.08
840.94	216.07
841.26	216.02
841.57	216.05
841.88	216.05
842.20	216.01
842.51	215.95
842.83	215.96
843.14	216.14
843.46	216.14
843.77	216.03
844.08	215.99
844.40	215.91
844.71	215.89
845.03	215.89
845.34	215.87
845.65	215.86
845.97	215.90
846.28	215.89
846.60	215.92
846.91	215.86
847.22	215.88
847.54	215.90
847.85	215.90
848.16	215.81
848.48	215.77
848.79	215.83
849.10	215.88
849.42	215.85
849.73	215.66
850.04	215.65
850.36	215.58
850.67	215.64
850.98	215.67
851.30	215.68
851.61	215.66
851.92	215.64
852.23	215.70
852.55	215.71
852.86	215.71
853.17	215.73
853.49	215.77
853.80	215.81
854.11	215.82
854.42	215.88
854.74	215.88
855.05	215.89
855.36	215.79
855.67	215.78
855.99	215.83
856.30	216.04
856.61	216.03
856.92	216.01
857.23	216.00
857.55	215.96
857.86	215.98
858.17	216.00
858.48	215.97
858.79	215.93
859.11	215.91
859.42	215.88
859.73	215.86
860.04	215.86
860.35	215.76
860.66	215.70
860.98	215.67
861.29	215.71
861.60	215.68
861.91	215.73
862.22	215.70
862.53	215.64
862.84	215.42
863.16	215.50
863.47	215.46
863.78	215.46
864.09	215.47
864.40	215.47
864.71	215.49
865.02	215.50
865.33	215.45
865.64	215.42
865.95	215.44
866.27	215.57
866.58	215.55
866.89	215.59
867.20	215.58
867.51	215.54
867.82	215.53
868.13	215.57
868.44	215.53
868.75	215.54
869.06	215.56
869.37	215.58
869.68	215.51
869.99	215.55
870.30	215.54
870.61	215.57
870.92	215.56
871.23	215.53
871.54	215.52
871.85	215.58
872.16	215.59
872.47	215.56
872.78	215.46
873.09	215.45
873.40	215.47
873.71	215.50
874.02	215.51
874.33	215.47
874.64	215.45
874.95	215.49
875.26	215.42
875.56	215.42
875.87	215.40
876.18	215.39
876.49	215.57
876.80	215.58
877.11	215.52
877.42	215.52
877.73	215.53
878.04	215.54
878.35	215.54
878.66	215.57
878.96	215.58
879.27	215.56
879.58	215.57
879.89	215.52
880.20	215.58
880.51	215.58
880.82	215.60
881.12	215.59
881.43	215.53
881.74	215.54
882.05	215.52
882.36	215.54
882.67	215.55
882.97	215.35
883.28	215.31
883.59	215.32
883.90	215.31
884.21	215.36
884.51	215.32
884.82	215.29
885.13	215.27
885.44	215.24
885.74	215.19
886.05	215.16
886.36	215.17
886.67	215.09
886.98	215.22
887.28	215.23
887.59	215.23
887.90	215.25
888.20	215.27
888.51	215.31
888.82	215.27
889.13	215.30
889.43	215.48
889.74	215.48
890.05	215.45
890.35	215.43
890.66	215.38
890.97	215.35
891.28	215.34
891.58	215.36
891.89	215.39
892.20	215.41
892.50	215.38
892.81	215.35
893.12	215.38
893.42	215.24
893.73	215.23
894.04	215.22
894.34	215.23
894.65	215.20
894.95	215.19
895.26	215.19
895.57	215.25
895.87	215.03
896.18	215.07
896.48	215.11
896.79	215.13
897.10	215.15
897.40	215.18
897.71	215.21
898.01	215.17
898.32	215.19
898.63	215.16
898.93	215.19
899.24	215.19
899.54	215.12
899.85	215.13
900.15	215.13
900.46	215.15
900.76	215.17
901.07	215.20
901.38	215.18
901.68	215.21
901.99	215.09
902.29	215.11
902.60	215.06
902.90	215.04
903.21	215.00
903.51	214.95
903.82	215.03
904.12	215.03
904.43	215.05
904.73	215.03
905.03	215.06
905.34	215.26
905.64	215.27
905.95	215.29
906.25	215.31
906.56	215.30
906.86	215.31
907.17	215.30
907.47	215.30
907.77	215.26
908.08	215.24
908.38	215.28
908.69	215.33
908.99	215.40
909.30	215.41
909.60	215.41
909.90	215.46
910.21	215.38
910.51	215.33
910.81	215.30
911.12	215.33
911.42	215.31
911.73	215.10
912.03	215.08
912.33	215.13
912.64	215.10
912.94	215.07
913.24	215.03
913.55	215.03
913.85	215.01
914.15	215.06
914.46	215.09
914.76	215.05
915.06	215.00
915.37	214.95
915.67	214.93
915.97	214.95
916.27	214.89
916.58	214.90
916.88	214.91
917.18	214.93
917.49	215.04
917.79	215.04
918.09	215.08
918.39	215.17
918.70	215.16
919.00	215.17
919.30	215.27
919.60	215.25
919.91	215.21
920.21	215.24
920.51	215.20
920.81	215.19
921.12	215.22
921.42	215.22
921.72	215.25
922.02	215.26
922.32	215.31
922.63	215.34
922.93	215.46
923.23	215.49
923.53	215.46
923.83	215.31
924.13	215.34
924.44	215.32
924.74	215.36
925.04	215.41
925.34	215.39
925.64	215.31
925.94	215.29
926.24	215.43
926.55	215.39
926.85	215.44
927.15	215.45
927.45	215.42
927.75	215.44
928.05	215.44
928.35	215.43
928.65	215.43
928.95	215.43
929.26	215.35
929.56	215.37
929.86	215.40
930.16	215.40
930.46	215.40
930.76	215.39
931.06	215.27
931.36	215.19
931.66	215.26
931.96	215.28
932.26	215.31
932.56	215.18
932.86	215.19
933.16	215.15
933.46	215.12
933.76	215.10
934.06	215.16
934.36	215.22
934.66	215.24
934.96	215.21
935.26	215.20
935.56	215.20
935.86	215.13
936.16	215.11
936.46	215.12
936.76	215.10
937.06	215.08
937.36	215.10
937.66	215.13
937.96	215.12
938.26	215.11
938.56	215.08
938.86	215.13
939.16	215.22
939.46	215.23
939.76	215.23
940.06	215.25
940.35	215.17
940.65	215.06
940.95	215.03
941.25	214.98
941.55	214.99
941.85	214.99
942.15	215.03
942.45	215.07
942.75	215.05
943.04	215.07
943.34	215.11
943.64	215.11
943.94	215.07
944.24	215.07
944.54	215.04
944.84	215.07
945.13	215.02
945.43	214.96
945.73	214.95
946.03	214.96
946.33	214.95
946.62	214.92
946.92	214.92
947.22	214.96
947.52	214.99
947.82	214.96
948.11	214.93
948.41	214.90
948.71	214.83
949.01	214.84
949.31	214.80
949.60	214.79
949.90	214.81
950.20	214.82
950.50	214.79
950.79	214.79
951.09	214.82
951.39	214.81
951.69	214.80
951.98	214.86
952.28	214.82
952.58	214.80
952.87	214.83
953.17	214.86
953.47	214.85
953.76	214.84
954.06	214.81
954.36	214.79
954.66	214.80
954.95	214.89
955.25	214.91
955.55	214.94
955.84	214.87
956.14	214.88
956.44	214.87
956.73	214.83
957.03	214.85
957.32	214.85
957.62	214.86
957.92	214.88
958.21	214.85
958.51	215.16
958.81	215.19
959.10	215.19
959.40	215.25
959.69	215.25
959.99	215.26
960.29	215.30
960.58	215.32
960.88	215.37
961.17	215.31
961.47	215.29
961.76	215.27
962.06	215.32
962.36	215.30
962.65	215.32
962.95	215.33
963.24	215.30
963.54	215.31
963.83	215.31
964.13	215.29
964.42	215.22
964.72	215.03
965.01	215.00
965.31	214.99
965.60	214.95
965.90	215.07
966.19	215.02
966.49	215.02
966.78	214.98
967.08	214.97
967.37	215.00
967.67	214.97
967.96	215.02
968.26	215.01
968.55	215.04
968.85	215.02
969.14	215.02
969.43	215.05
969.73	215.01
970.02	215.02
970.32	215.03
970.61	215.03
970.91	214.94
971.20	214.95
971.49	214.95
971.79	214.94
972.08	214.81
972.38	214.84
972.67	214.83
972.96	214.88
973.26	214.85
973.55	214.91
973.85	214.92
974.14	214.88
974.43	214.91
974.73	214.90
975.02	214.92
975.31	214.94
975.61	214.92
975.90	214.94
976.19	214.92
976.49	214.93
976.78	214.94
977.07	214.97
977.37	214.96
977.66	214.99
977.95	214.95
978.24	214.93
978.54	214.96
978.83	214.96
979.12	214.92
979.42	214.91
979.71	214.86
980.00	214.87
980.29	214.91
980.59	214.86
980.88	214.88
981.17	214.87
981.46	214.86
981.76	214.86
982.05	214.90
982.34	214.89
982.63	214.87
982.93	214.87
983.22	214.94
983.51	214.93
983.80	214.93
984.09	214.98
984.39	214.99
984.68	214.95
984.97	214.95
985.26	214.94
985.55	214.96
985.85	214.93
986.14	214.94
986.43	214.93
986.72	214.91
987.01	214.86
987.30	214.83
987.59	214.80
987.89	214.81
988.18	214.75
988.47	214.75
988.76	214.74
989.05	214.73
989.34	214.67
989.63	214.73
989.92	214.72
990.22	214.67
990.51	214.65
990.80	214.68
991.09	214.71
991.38	214.74
991.67	214.71
991.96	214.68
992.25	214.69
992.54	214.63
992.83	214.65
993.12	214.63
993.41	214.69
993.70	214.83
993.99	214.85
994.28	214.89
994.58	214.95
994.87	214.91
995.16	214.94
995.45	214.92
995.74	214.85
996.03	214.85
996.32	214.90
996.61	214.97
996.90	214.96
997.19	214.92
997.48	214.92
997.77	214.92
998.06	214.96
998.34	214.95
998.63	214.95
998.92	214.96
999.21	215.01
999.50	214.95
999.79	214.84
1000.08	214.85
1000.37	214.84
1000.66	214.79
1000.95	214.86
1001.24	214.85
1001.53	214.85
1001.82	214.85
1002.11	214.83
1002.40	214.81
1002.68	214.84
1002.97	214.99
1003.26	214.99
1003.55	214.97
1003.84	214.98
1004.13	215.03
1004.42	215.05
1004.71	215.06
1004.99	215.05
1005.28	215.12
1005.57	215.15
1005.86	215.13
1006.15	215.10
1006.44	215.09
1006.72	215.09
1007.01	215.06
1007.30	215.08
1007.59	215.10
1007.88	215.11
1008.17	215.13
1008.45	215.11
1008.74	215.04
1009.03	214.93
1009.32	214.96
1009.60	214.96
1009.89	214.96
1010.18	214.85
1010.47	214.83
1010.76	214.84
1011.04	214.85
1011.33	214.82
1011.62	214.86
1011.91	214.88
1012.19	214.90
1012.48	214.88
1012.77	214.89
1013.05	214.99
1013.34	215.00
1013.63	214.94
1013.92	214.96
1014.20	214.94
1014.49	214.93
1014.78	214.96
1015.06	214.89
1015.35	214.85
1015.64	214.88
1015.92	214.90
1016.21	214.95
1016.50	214.93
1016.78	214.97
1017.07	214.96
1017.36	214.93
1017.64	214.87
1017.93	214.90
1018.22	214.87
1018.50	214.85
1018.79	214.84
1019.08	214.72
1019.36	214.72
1019.65	214.71
1019.93	214.76
1020.22	214.78
1020.51	214.90
1020.79	214.85
1021.08	214.23
1021.36	214.07
1021.65	214.79
1021.94	214.37
1022.22	214.98
1022.51	213.71
1022.79	215.98
1023.08	215.30
1023.36	217.07
1023.65	214.06
>>>>>End Processed Spectral Data<<<<<
