SpectraSuite Data File
++++++++++++++++++++++++++++++++++++
Date: Tue Jan 29 16:07:42 EST 2013
User: group
Dark Spectrum Present: No
Reference Spectrum Present: No
Number of Sampled Component Spectra: 1
Spectrometers: USB2E7196
Integration Time (usec): 65000 (USB2E7196)
Spectra Averaged: 100 (USB2E7196)
Boxcar Smoothing: 10 (USB2E7196)
Correct for Electrical Dark: No (USB2E7196)
Strobe/Lamp Enabled: No (USB2E7196)
Correct for Detector Non-linearity: No (USB2E7196)
Correct for Stray Light: No (USB2E7196)
Number of Pixels in Processed Spectrum: 2048
>>>>>Begin Processed Spectral Data<<<<<
339.09	0.00
339.48	202.32
339.86	203.51
340.24	205.41
340.63	206.33
341.01	211.15
341.39	209.21
341.78	211.23
342.16	212.13
342.54	212.87
342.93	201.65
343.31	211.82
343.69	212.37
344.07	212.87
344.46	213.33
344.84	213.77
345.22	213.97
345.60	214.26
345.99	214.45
346.37	214.61
346.75	214.70
347.13	214.76
347.52	214.83
347.90	214.99
348.28	215.07
348.66	215.21
349.05	215.20
349.43	215.24
349.81	215.29
350.19	215.39
350.57	215.47
350.96	215.55
351.34	215.70
351.72	215.82
352.10	215.93
352.48	216.01
352.87	216.06
353.25	216.12
353.63	216.20
354.01	216.28
354.39	216.35
354.77	216.44
355.15	216.60
355.54	216.66
355.92	216.68
356.30	216.74
356.68	216.91
357.06	217.05
357.44	217.11
357.82	217.15
358.20	217.23
358.58	217.30
358.97	217.38
359.35	217.47
359.73	217.56
360.11	217.61
360.49	217.64
360.87	217.69
361.25	217.75
361.63	217.87
362.01	217.89
362.39	217.91
362.77	217.98
363.15	217.96
363.53	217.97
363.91	218.00
364.29	218.04
364.67	217.84
365.05	217.83
365.43	217.83
365.81	217.87
366.19	217.94
366.57	218.00
366.95	218.01
367.33	217.96
367.71	217.99
368.09	218.01
368.47	218.04
368.85	218.03
369.23	218.06
369.61	217.97
369.99	218.03
370.37	218.04
370.75	218.12
371.13	218.09
371.51	218.07
371.89	218.04
372.27	218.02
372.65	218.01
373.03	217.97
373.41	217.96
373.78	217.92
374.16	217.78
374.54	217.68
374.92	217.61
375.30	217.55
375.68	217.43
376.06	217.39
376.44	217.31
376.82	217.29
377.19	217.21
377.57	217.15
377.95	217.06
378.33	217.00
378.71	216.78
379.09	216.77
379.47	216.75
379.84	216.69
380.22	216.62
380.60	216.54
380.98	216.48
381.36	216.42
381.73	216.36
382.11	216.38
382.49	216.35
382.87	216.30
383.25	216.28
383.62	216.50
384.00	216.43
384.38	216.40
384.76	216.43
385.13	216.49
385.51	216.45
385.89	216.36
386.27	216.34
386.64	216.33
387.02	216.27
387.40	216.23
387.78	216.21
388.15	216.20
388.53	216.20
388.91	216.20
389.29	216.17
389.66	216.20
390.04	216.15
390.42	216.12
390.79	216.12
391.17	216.12
391.55	215.84
391.92	215.83
392.30	215.85
392.68	215.76
393.05	215.73
393.43	215.74
393.81	215.79
394.18	215.77
394.56	215.79
394.94	215.85
395.31	215.82
395.69	215.88
396.06	215.94
396.44	215.95
396.82	215.95
397.19	216.08
397.57	216.06
397.95	216.11
398.32	216.13
398.70	216.19
399.07	216.25
399.45	216.31
399.82	216.35
400.20	216.37
400.58	216.43
400.95	216.40
401.33	216.48
401.70	216.68
402.08	216.77
402.45	216.84
402.83	216.95
403.20	217.11
403.58	217.18
403.95	217.34
404.33	217.48
404.71	217.60
405.08	217.83
405.46	217.99
405.83	218.16
406.21	218.35
406.58	218.57
406.96	218.80
407.33	219.07
407.70	219.40
408.08	219.85
408.45	220.20
408.83	220.59
409.20	220.93
409.58	221.18
409.95	221.61
410.33	222.08
410.70	222.49
411.08	223.04
411.45	223.61
411.82	224.10
412.20	224.81
412.57	225.62
412.95	226.14
413.32	226.97
413.69	227.79
414.07	228.68
414.44	229.65
414.82	230.60
415.19	231.71
415.56	232.83
415.94	233.99
416.31	235.36
416.68	236.73
417.06	238.28
417.43	239.75
417.81	241.46
418.18	243.17
418.55	245.01
418.93	246.94
419.30	249.01
419.67	251.18
420.04	253.34
420.42	255.67
420.79	258.44
421.16	261.09
421.54	263.91
421.91	266.76
422.28	269.74
422.66	272.94
423.03	276.07
423.40	279.29
423.77	282.70
424.15	286.27
424.52	289.97
424.89	293.99
425.26	297.96
425.64	301.70
426.01	305.85
426.38	310.21
426.75	314.59
427.13	319.12
427.50	323.90
427.87	328.95
428.24	333.97
428.61	338.78
428.99	344.14
429.36	349.94
429.73	355.61
430.10	361.28
430.47	367.17
430.85	373.28
431.22	379.76
431.59	386.69
431.96	393.26
432.33	400.50
432.70	407.49
433.08	415.74
433.45	423.59
433.82	431.34
434.19	439.90
434.56	448.35
434.93	456.45
435.30	464.49
435.68	473.28
436.05	481.93
436.42	490.52
436.79	498.40
437.16	506.83
437.53	515.81
437.90	524.65
438.27	533.25
438.64	542.14
439.01	550.42
439.38	557.68
439.75	564.78
440.13	572.87
440.50	580.56
440.87	586.77
441.24	593.12
441.61	600.20
441.98	605.38
442.35	611.39
442.72	617.49
443.09	623.31
443.46	626.94
443.83	629.34
444.20	631.43
444.57	634.48
444.94	635.89
445.31	637.28
445.68	638.62
446.05	639.18
446.42	638.42
446.79	637.36
447.16	636.29
447.53	635.47
447.90	632.30
448.27	629.12
448.64	624.51
449.01	621.24
449.37	615.49
449.74	610.00
450.11	603.35
450.48	596.22
450.85	588.99
451.22	582.70
451.59	576.80
451.96	571.21
452.33	563.56
452.70	556.68
453.07	548.51
453.43	540.13
453.80	532.17
454.17	524.43
454.54	517.24
454.91	509.44
455.28	501.86
455.65	494.67
456.02	487.45
456.38	481.44
456.75	473.92
457.12	467.63
457.49	461.43
457.86	455.51
458.23	450.33
458.59	444.67
458.96	438.91
459.33	433.81
459.70	428.62
460.07	424.52
460.43	419.88
460.80	415.47
461.17	411.66
461.54	407.58
461.91	403.74
462.27	399.80
462.64	396.45
463.01	392.71
463.38	389.18
463.74	385.60
464.11	382.45
464.48	379.74
464.85	376.78
465.21	374.40
465.58	371.88
465.95	368.81
466.32	366.30
466.68	363.84
467.05	361.34
467.42	358.87
467.78	356.28
468.15	353.81
468.52	351.99
468.88	349.62
469.25	347.54
469.62	345.82
469.98	343.95
470.35	342.26
470.72	340.69
471.08	338.95
471.45	337.57
471.82	336.15
472.18	334.61
472.55	333.46
472.92	332.12
473.28	330.97
473.65	329.89
474.02	328.85
474.38	327.98
474.75	327.26
475.11	326.53
475.48	326.01
475.85	325.59
476.21	325.07
476.58	324.78
476.94	324.57
477.31	324.26
477.67	324.01
478.04	323.86
478.41	323.86
478.77	324.07
479.14	324.03
479.50	324.17
479.87	324.43
480.23	324.78
480.60	325.07
480.96	325.34
481.33	325.98
481.69	326.51
482.06	327.03
482.42	327.55
482.79	328.20
483.15	329.00
483.52	329.98
483.88	330.95
484.25	331.87
484.61	332.89
484.98	333.98
485.34	335.35
485.71	336.73
486.07	338.12
486.44	339.44
486.80	341.06
487.17	342.66
487.53	344.50
487.90	346.31
488.26	348.30
488.62	350.48
488.99	352.48
489.35	354.66
489.72	357.05
490.08	359.54
490.44	362.05
490.81	364.74
491.17	367.37
491.54	370.36
491.90	373.42
492.26	376.69
492.63	380.08
492.99	383.51
493.36	387.09
493.72	391.00
494.08	394.98
494.45	399.12
494.81	403.52
495.17	407.89
495.54	412.64
495.90	417.47
496.26	422.37
496.63	427.59
496.99	432.94
497.35	438.46
497.72	444.27
498.08	450.19
498.44	456.32
498.80	462.79
499.17	469.25
499.53	475.85
499.89	482.72
500.26	489.66
500.62	496.67
500.98	504.12
501.34	511.52
501.71	519.25
502.07	527.09
502.43	535.07
502.79	543.21
503.16	551.59
503.52	560.20
503.88	568.87
504.24	577.77
504.60	586.82
504.97	596.03
505.33	605.29
505.69	615.12
506.05	624.90
506.41	634.66
506.78	644.65
507.14	654.89
507.50	665.34
507.86	676.09
508.22	686.88
508.59	697.45
508.95	708.48
509.31	719.69
509.67	731.05
510.03	742.45
510.39	754.12
510.75	765.85
511.12	777.68
511.48	789.62
511.84	801.76
512.20	813.93
512.56	826.44
512.92	839.15
513.28	851.68
513.64	864.30
514.00	877.00
514.37	889.83
514.73	902.88
515.09	915.64
515.45	928.34
515.81	941.22
516.17	954.46
516.53	967.53
516.89	980.49
517.25	993.55
517.61	1006.88
517.97	1020.11
518.33	1033.07
518.69	1046.40
519.05	1060.02
519.41	1073.51
519.77	1087.27
520.13	1100.49
520.49	1113.46
520.85	1126.67
521.21	1139.86
521.57	1153.45
521.93	1166.42
522.29	1180.01
522.65	1193.48
523.01	1206.72
523.37	1219.73
523.73	1232.84
524.09	1245.78
524.45	1258.91
524.81	1272.10
525.17	1285.22
525.53	1298.14
525.89	1311.19
526.25	1324.10
526.61	1336.61
526.97	1349.40
527.33	1362.00
527.68	1375.07
528.04	1388.33
528.40	1401.12
528.76	1414.20
529.12	1426.66
529.48	1439.81
529.84	1451.70
530.20	1464.17
530.56	1476.63
530.91	1489.66
531.27	1502.24
531.63	1514.74
531.99	1527.19
532.35	1539.14
532.71	1551.19
533.07	1563.79
533.42	1575.70
533.78	1587.56
534.14	1599.35
534.50	1610.33
534.86	1621.62
535.21	1632.24
535.57	1643.27
535.93	1654.34
536.29	1665.15
536.65	1676.27
537.00	1686.81
537.36	1697.89
537.72	1708.54
538.08	1719.59
538.44	1730.16
538.79	1740.81
539.15	1751.28
539.51	1761.69
539.87	1772.77
540.22	1783.25
540.58	1793.81
540.94	1804.45
541.29	1814.32
541.65	1823.89
542.01	1834.23
542.37	1844.08
542.72	1853.97
543.08	1863.56
543.44	1873.63
543.79	1882.63
544.15	1891.79
544.51	1901.51
544.87	1911.07
545.22	1919.92
545.58	1928.55
545.94	1937.16
546.29	1945.50
546.65	1953.64
547.01	1961.72
547.36	1969.22
547.72	1976.80
548.07	1984.26
548.43	1991.79
548.79	1999.47
549.14	2007.38
549.50	2015.40
549.86	2022.93
550.21	2030.10
550.57	2037.54
550.92	2044.17
551.28	2051.46
551.64	2058.70
551.99	2065.94
552.35	2072.96
552.70	2079.58
553.06	2085.91
553.41	2091.99
553.77	2098.30
554.13	2104.58
554.48	2111.40
554.84	2118.12
555.19	2124.40
555.55	2130.77
555.90	2136.88
556.26	2143.54
556.61	2149.31
556.97	2154.24
557.32	2159.96
557.68	2166.37
558.03	2171.99
558.39	2177.13
558.74	2183.03
559.10	2188.45
559.45	2193.91
559.81	2199.37
560.16	2205.08
560.52	2211.02
560.87	2217.36
561.23	2223.39
561.58	2229.98
561.94	2235.06
562.29	2239.86
562.64	2246.05
563.00	2251.56
563.35	2257.12
563.71	2263.00
564.06	2268.60
564.42	2274.40
564.77	2279.56
565.12	2284.64
565.48	2289.79
565.83	2295.42
566.19	2301.02
566.54	2306.42
566.89	2311.12
567.25	2315.72
567.60	2321.29
567.96	2326.55
568.31	2331.22
568.66	2335.42
569.02	2339.33
569.37	2343.33
569.72	2347.83
570.08	2351.37
570.43	2354.61
570.78	2357.80
571.14	2360.36
571.49	2363.67
571.84	2367.47
572.20	2370.46
572.55	2373.67
572.90	2376.05
573.26	2379.03
573.61	2381.50
573.96	2383.88
574.31	2386.01
574.67	2387.92
575.02	2389.00
575.37	2390.59
575.72	2391.44
576.08	2392.99
576.43	2393.39
576.78	2394.16
577.13	2395.95
577.49	2397.22
577.84	2398.47
578.19	2400.04
578.54	2400.84
578.90	2401.91
579.25	2401.85
579.60	2402.00
579.95	2401.45
580.30	2401.86
580.66	2401.27
581.01	2399.73
581.36	2397.68
581.71	2396.56
582.06	2395.75
582.42	2395.08
582.77	2393.10
583.12	2391.86
583.47	2390.90
583.82	2390.46
584.17	2389.29
584.53	2387.26
584.88	2385.46
585.23	2383.76
585.58	2381.71
585.93	2379.66
586.28	2377.79
586.63	2375.67
586.98	2373.74
587.34	2372.05
587.69	2369.84
588.04	2368.08
588.39	2366.86
588.74	2364.56
589.09	2362.16
589.44	2359.33
589.79	2357.08
590.14	2355.45
590.49	2352.62
590.84	2349.01
591.19	2346.28
591.54	2343.23
591.89	2339.32
592.25	2336.24
592.60	2332.14
592.95	2328.15
593.30	2324.30
593.65	2319.95
594.00	2315.63
594.35	2312.59
594.70	2308.01
595.05	2303.37
595.40	2298.13
595.75	2292.69
596.10	2289.14
596.45	2284.12
596.80	2279.71
597.15	2274.38
597.50	2268.45
597.85	2263.68
598.19	2258.57
598.54	2252.90
598.89	2247.92
599.24	2243.65
599.59	2237.65
599.94	2232.26
600.29	2226.43
600.64	2220.67
600.99	2214.14
601.34	2209.02
601.69	2202.17
602.04	2195.99
602.39	2189.75
602.74	2183.76
603.08	2178.29
603.43	2171.71
603.78	2165.18
604.13	2158.00
604.48	2151.03
604.83	2145.03
605.18	2138.89
605.53	2131.94
605.87	2124.76
606.22	2117.88
606.57	2110.09
606.92	2102.29
607.27	2095.21
607.62	2088.68
607.96	2081.75
608.31	2075.21
608.66	2067.33
609.01	2059.83
609.36	2052.71
609.70	2044.94
610.05	2037.09
610.40	2028.89
610.75	2020.86
611.10	2013.19
611.44	2004.64
611.79	1995.94
612.14	1985.96
612.49	1975.43
612.83	1966.27
613.18	1957.34
613.53	1948.07
613.88	1938.47
614.22	1929.90
614.57	1919.90
614.92	1909.44
615.27	1899.29
615.61	1889.33
615.96	1879.61
616.31	1869.87
616.65	1860.52
617.00	1850.72
617.35	1841.30
617.70	1831.55
618.04	1821.39
618.39	1811.03
618.74	1801.29
619.08	1791.72
619.43	1783.12
619.78	1775.03
620.12	1766.26
620.47	1756.32
620.82	1746.17
621.16	1736.49
621.51	1726.57
621.85	1716.91
622.20	1706.38
622.55	1695.81
622.89	1685.96
623.24	1676.28
623.59	1666.65
623.93	1656.56
624.28	1646.95
624.62	1636.65
624.97	1626.31
625.32	1616.65
625.66	1608.00
626.01	1599.10
626.35	1589.66
626.70	1579.51
627.04	1569.13
627.39	1559.12
627.73	1549.87
628.08	1540.76
628.43	1531.12
628.77	1521.85
629.12	1512.96
629.46	1505.11
629.81	1496.71
630.15	1487.03
630.50	1477.26
630.84	1466.82
631.19	1456.83
631.53	1447.44
631.88	1437.35
632.22	1427.31
632.57	1417.91
632.91	1407.60
633.26	1397.82
633.60	1388.29
633.95	1379.03
634.29	1369.70
634.64	1360.32
634.98	1350.62
635.32	1341.28
635.67	1332.77
636.01	1323.45
636.36	1313.63
636.70	1304.24
637.05	1294.89
637.39	1285.92
637.73	1277.24
638.08	1269.72
638.42	1261.50
638.77	1252.61
639.11	1244.46
639.45	1236.65
639.80	1228.01
640.14	1219.36
640.49	1210.47
640.83	1201.66
641.17	1193.51
641.52	1185.29
641.86	1176.75
642.20	1168.70
642.55	1160.21
642.89	1151.30
643.23	1142.54
643.58	1134.46
643.92	1125.30
644.26	1116.64
644.61	1108.19
644.95	1099.38
645.29	1090.08
645.64	1080.97
645.98	1072.73
646.32	1064.71
646.66	1056.22
647.01	1047.87
647.35	1039.75
647.69	1031.33
648.04	1023.01
648.38	1014.04
648.72	1005.32
649.06	996.89
649.41	988.75
649.75	980.64
650.09	972.78
650.43	964.85
650.78	956.62
651.12	948.98
651.46	941.56
651.80	934.41
652.14	927.05
652.49	919.64
652.83	912.24
653.17	904.48
653.51	896.84
653.85	889.51
654.20	882.26
654.54	874.76
654.88	867.72
655.22	860.65
655.56	853.71
655.90	846.93
656.25	840.26
656.59	833.29
656.93	826.34
657.27	819.28
657.61	812.46
657.95	806.46
658.29	800.54
658.64	794.39
658.98	787.95
659.32	781.49
659.66	775.27
660.00	769.01
660.34	763.02
660.68	757.06
661.02	750.91
661.36	745.11
661.70	739.40
662.05	733.75
662.39	728.27
662.73	723.01
663.07	717.72
663.41	712.13
663.75	706.60
664.09	701.09
664.43	695.78
664.77	690.41
665.11	684.52
665.45	678.66
665.79	673.02
666.13	667.34
666.47	661.94
666.81	656.57
667.15	651.33
667.49	646.18
667.83	640.90
668.17	635.69
668.51	630.58
668.85	625.71
669.19	620.90
669.53	615.97
669.87	610.90
670.21	606.21
670.55	601.63
670.89	597.28
671.23	593.03
671.57	588.63
671.91	584.40
672.25	580.35
672.58	576.36
672.92	572.32
673.26	568.45
673.60	564.64
673.94	560.87
674.28	557.22
674.62	553.49
674.96	549.81
675.30	546.39
675.64	542.83
675.97	539.32
676.31	535.72
676.65	532.13
676.99	528.75
677.33	524.94
677.67	521.29
678.01	517.45
678.34	513.87
678.68	510.43
679.02	506.88
679.36	503.22
679.70	499.62
680.04	496.17
680.37	492.82
680.71	489.58
681.05	486.45
681.39	483.31
681.73	480.22
682.06	477.26
682.40	474.21
682.74	471.05
683.08	467.88
683.42	464.71
683.75	461.76
684.09	458.78
684.43	456.00
684.77	453.15
685.10	450.36
685.44	447.46
685.78	444.59
686.12	441.91
686.45	439.26
686.79	436.66
687.13	434.12
687.46	431.51
687.80	428.87
688.14	426.07
688.48	423.44
688.81	420.77
689.15	418.25
689.49	415.60
689.82	413.15
690.16	410.61
690.50	408.26
690.83	405.87
691.17	403.38
691.51	401.00
691.84	398.83
692.18	396.66
692.52	394.51
692.85	392.39
693.19	390.25
693.52	388.07
693.86	385.88
694.20	383.79
694.53	381.75
694.87	379.58
695.21	377.55
695.54	375.42
695.88	373.35
696.21	371.23
696.55	369.20
696.88	367.17
697.22	365.24
697.56	363.38
697.89	361.51
698.23	359.81
698.56	358.04
698.90	356.25
699.23	354.38
699.57	352.58
699.90	350.75
700.24	349.00
700.58	347.32
700.91	345.73
701.25	344.15
701.58	342.55
701.92	341.01
702.25	339.40
702.59	337.86
702.92	336.33
703.26	334.80
703.59	333.39
703.93	332.16
704.26	330.75
704.60	329.30
704.93	327.82
705.26	326.35
705.60	324.90
705.93	323.41
706.27	322.15
706.60	320.92
706.94	319.74
707.27	318.36
707.61	317.04
707.94	315.72
708.27	314.22
708.61	312.80
708.94	311.46
709.28	310.26
709.61	309.05
709.94	307.91
710.28	306.71
710.61	305.52
710.95	304.10
711.28	303.06
711.61	301.88
711.95	300.79
712.28	299.61
712.61	298.46
712.95	297.42
713.28	296.37
713.61	295.23
713.95	294.12
714.28	293.13
714.61	292.14
714.95	291.16
715.28	290.20
715.61	289.24
715.95	288.33
716.28	287.38
716.61	286.47
716.95	285.50
717.28	284.63
717.61	283.70
717.94	282.84
718.28	281.83
718.61	280.96
718.94	280.10
719.27	279.27
719.61	278.49
719.94	277.66
720.27	276.73
720.60	275.91
720.94	275.10
721.27	274.40
721.60	273.71
721.93	272.99
722.27	272.34
722.60	271.70
722.93	271.03
723.26	270.37
723.59	269.69
723.93	269.09
724.26	268.45
724.59	267.84
724.92	267.28
725.25	266.77
725.59	266.24
725.92	265.72
726.25	265.19
726.58	264.63
726.91	264.06
727.24	263.56
727.57	263.01
727.91	262.45
728.24	261.91
728.57	261.32
728.90	260.77
729.23	260.19
729.56	259.73
729.89	259.17
730.22	258.65
730.55	258.11
730.89	257.56
731.22	257.05
731.55	256.57
731.88	256.04
732.21	255.50
732.54	254.98
732.87	254.47
733.20	253.99
733.53	253.55
733.86	253.11
734.19	252.65
734.52	252.27
734.85	251.97
735.18	251.53
735.51	251.17
735.84	250.74
736.17	250.39
736.50	249.88
736.83	249.75
737.16	249.35
737.49	249.01
737.82	248.62
738.15	248.28
738.48	247.90
738.81	247.50
739.14	247.11
739.47	246.71
739.80	246.36
740.13	246.00
740.46	245.61
740.79	245.26
741.12	244.89
741.45	244.52
741.78	244.09
742.11	243.79
742.44	243.44
742.77	243.16
743.10	242.86
743.43	242.53
743.75	241.94
744.08	241.90
744.41	241.53
744.74	241.22
745.07	240.87
745.40	240.57
745.73	240.36
746.06	240.03
746.39	239.78
746.71	239.42
747.04	239.10
747.37	238.80
747.70	238.50
748.03	238.22
748.36	237.97
748.68	237.69
749.01	237.35
749.34	237.07
749.67	236.80
750.00	236.51
750.33	236.39
750.65	236.17
750.98	235.64
751.31	235.41
751.64	235.19
751.97	235.04
752.29	234.80
752.62	234.43
752.95	234.21
753.28	233.93
753.60	233.71
753.93	233.57
754.26	233.35
754.59	233.09
754.91	232.84
755.24	232.59
755.57	232.39
755.90	232.18
756.22	231.95
756.55	231.71
756.88	231.45
757.20	231.15
757.53	230.89
757.86	230.67
758.19	230.49
758.51	230.28
758.84	229.96
759.17	229.77
759.49	229.63
759.82	229.55
760.15	229.39
760.47	229.21
760.80	228.97
761.13	228.83
761.45	228.63
761.78	228.46
762.11	228.29
762.43	228.10
762.76	227.93
763.08	227.76
763.41	227.61
763.74	227.48
764.06	227.30
764.39	227.14
764.71	227.00
765.04	226.84
765.37	226.67
765.69	226.56
766.02	226.41
766.34	226.29
766.67	226.08
767.00	225.99
767.32	226.03
767.65	226.02
767.97	225.86
768.30	225.76
768.62	225.64
768.95	225.51
769.27	225.37
769.60	225.27
769.92	225.14
770.25	224.98
770.57	224.81
770.90	224.71
771.22	224.58
771.55	224.50
771.87	224.39
772.20	224.28
772.52	224.36
772.85	224.50
773.17	224.40
773.50	224.30
773.82	224.17
774.15	223.91
774.47	223.67
774.80	223.55
775.12	223.44
775.45	223.37
775.77	223.27
776.09	223.23
776.42	223.17
776.74	223.14
777.07	223.05
777.39	222.99
777.72	222.89
778.04	222.86
778.36	222.75
778.69	222.65
779.01	222.57
779.33	222.28
779.66	221.97
779.98	221.86
780.31	221.76
780.63	221.78
780.95	221.77
781.28	221.70
781.60	221.62
781.92	221.56
782.25	221.46
782.57	221.41
782.89	221.28
783.22	221.18
783.54	221.08
783.86	221.04
784.19	220.97
784.51	220.97
784.83	220.87
785.16	220.83
785.48	220.79
785.80	220.75
786.12	220.70
786.45	220.65
786.77	220.61
787.09	220.57
787.42	220.42
787.74	220.30
788.06	220.27
788.38	220.23
788.71	220.18
789.03	220.15
789.35	220.15
789.67	220.11
789.99	220.09
790.32	220.01
790.64	220.00
790.96	220.11
791.28	220.00
791.61	219.93
791.93	219.89
792.25	219.84
792.57	219.96
792.89	219.87
793.21	219.83
793.54	219.76
793.86	219.68
794.18	219.65
794.50	219.61
794.82	219.58
795.14	219.57
795.47	219.58
795.79	219.52
796.11	219.42
796.43	219.35
796.75	219.32
797.07	219.28
797.39	219.24
797.71	219.02
798.04	218.99
798.36	218.99
798.68	218.94
799.00	218.91
799.32	218.76
799.64	218.79
799.96	218.76
800.28	218.78
800.60	218.73
800.92	218.71
801.24	218.64
801.56	218.62
801.89	218.57
802.21	218.52
802.53	218.45
802.85	218.45
803.17	218.52
803.49	218.39
803.81	218.34
804.13	218.27
804.45	218.24
804.77	218.21
805.09	218.13
805.41	218.07
805.73	218.00
806.05	217.89
806.37	217.84
806.69	217.80
807.01	217.76
807.33	217.77
807.65	217.68
807.97	217.80
808.28	217.75
808.60	217.70
808.92	217.65
809.24	217.80
809.56	217.73
809.88	217.63
810.20	217.66
810.52	217.68
810.84	217.63
811.16	217.59
811.48	217.55
811.80	217.61
812.12	217.63
812.43	217.65
812.75	217.63
813.07	217.60
813.39	217.60
813.71	217.55
814.03	217.49
814.35	217.48
814.67	217.34
814.98	217.30
815.30	217.28
815.62	217.22
815.94	217.05
816.26	217.06
816.58	217.02
816.89	216.99
817.21	216.93
817.53	216.93
817.85	216.93
818.17	216.93
818.48	216.84
818.80	216.86
819.12	216.81
819.44	216.76
819.76	216.71
820.07	216.70
820.39	216.67
820.71	216.68
821.03	216.66
821.34	216.65
821.66	216.65
821.98	216.64
822.30	216.63
822.61	216.76
822.93	216.72
823.25	216.68
823.57	216.63
823.88	216.67
824.20	216.65
824.52	216.66
824.83	216.62
825.15	216.58
825.47	216.52
825.79	216.53
826.10	216.54
826.42	216.54
826.74	216.50
827.05	216.46
827.37	216.46
827.69	216.45
828.00	216.45
828.32	216.45
828.64	216.42
828.95	216.51
829.27	216.42
829.58	216.39
829.90	216.39
830.22	216.38
830.53	216.30
830.85	216.25
831.17	216.19
831.48	216.21
831.80	216.22
832.11	216.21
832.43	216.17
832.75	216.15
833.06	216.26
833.38	216.20
833.69	216.19
834.01	216.18
834.32	216.13
834.64	216.09
834.96	216.07
835.27	216.06
835.59	215.95
835.90	215.90
836.22	215.91
836.53	215.88
836.85	215.86
837.16	216.07
837.48	216.08
837.79	216.11
838.11	216.11
838.42	216.09
838.74	216.07
839.05	216.05
839.37	216.05
839.68	215.91
840.00	215.89
840.31	215.90
840.63	215.89
840.94	215.88
841.26	215.85
841.57	215.83
841.88	215.86
842.20	215.86
842.51	215.82
842.83	215.80
843.14	215.98
843.46	216.00
843.77	215.89
844.08	215.91
844.40	215.83
844.71	215.79
845.03	215.78
845.34	215.76
845.65	215.72
845.97	215.69
846.28	215.72
846.60	215.76
846.91	215.72
847.22	215.68
847.54	215.73
847.85	215.74
848.16	215.72
848.48	215.68
848.79	215.73
849.10	215.76
849.42	215.79
849.73	215.60
850.04	215.57
850.36	215.49
850.67	215.53
850.98	215.55
851.30	215.53
851.61	215.51
851.92	215.52
852.23	215.63
852.55	215.63
852.86	215.62
853.17	215.59
853.49	215.63
853.80	215.66
854.11	215.65
854.42	215.68
854.74	215.65
855.05	215.67
855.36	215.57
855.67	215.54
855.99	215.54
856.30	215.76
856.61	215.79
856.92	215.76
857.23	215.73
857.55	215.71
857.86	215.72
858.17	215.76
858.48	215.73
858.79	215.67
859.11	215.68
859.42	215.67
859.73	215.67
860.04	215.68
860.35	215.60
860.66	215.55
860.98	215.53
861.29	215.55
861.60	215.49
861.91	215.53
862.22	215.52
862.53	215.47
862.84	215.26
863.16	215.31
863.47	215.29
863.78	215.30
864.09	215.30
864.40	215.32
864.71	215.30
865.02	215.37
865.33	215.35
865.64	215.33
865.95	215.30
866.27	215.45
866.58	215.41
866.89	215.47
867.20	215.46
867.51	215.46
867.82	215.47
868.13	215.56
868.44	215.53
868.75	215.55
869.06	215.56
869.37	215.56
869.68	215.48
869.99	215.54
870.30	215.54
870.61	215.55
870.92	215.51
871.23	215.54
871.54	215.53
871.85	215.59
872.16	215.60
872.47	215.59
872.78	215.45
873.09	215.48
873.40	215.45
873.71	215.45
874.02	215.44
874.33	215.42
874.64	215.36
874.95	215.41
875.26	215.38
875.56	215.37
875.87	215.40
876.18	215.40
876.49	215.58
876.80	215.56
877.11	215.52
877.42	215.55
877.73	215.53
878.04	215.49
878.35	215.46
878.66	215.48
878.96	215.53
879.27	215.50
879.58	215.49
879.89	215.46
880.20	215.56
880.51	215.56
880.82	215.55
881.12	215.56
881.43	215.51
881.74	215.51
882.05	215.52
882.36	215.51
882.67	215.56
882.97	215.31
883.28	215.28
883.59	215.29
883.90	215.29
884.21	215.30
884.51	215.28
884.82	215.26
885.13	215.28
885.44	215.25
885.74	215.27
886.05	215.27
886.36	215.29
886.67	215.20
886.98	215.31
887.28	215.33
887.59	215.36
887.90	215.38
888.20	215.36
888.51	215.38
888.82	215.34
889.13	215.34
889.43	215.54
889.74	215.55
890.05	215.55
890.35	215.54
890.66	215.50
890.97	215.51
891.28	215.52
891.58	215.49
891.89	215.49
892.20	215.46
892.50	215.43
892.81	215.44
893.12	215.42
893.42	215.30
893.73	215.28
894.04	215.27
894.34	215.23
894.65	215.20
894.95	215.14
895.26	215.15
895.57	215.27
895.87	215.07
896.18	215.11
896.48	215.12
896.79	215.13
897.10	215.15
897.40	215.17
897.71	215.15
898.01	215.11
898.32	215.15
898.63	215.15
898.93	215.19
899.24	215.15
899.54	215.15
899.85	215.16
900.15	215.15
900.46	215.11
900.76	215.16
901.07	215.20
901.38	215.21
901.68	215.22
901.99	215.07
902.29	215.08
902.60	215.04
902.90	214.99
903.21	214.97
903.51	214.97
903.82	214.99
904.12	215.00
904.43	215.04
904.73	215.02
905.03	215.03
905.34	215.19
905.64	215.19
905.95	215.19
906.25	215.22
906.56	215.19
906.86	215.22
907.17	215.22
907.47	215.22
907.77	215.20
908.08	215.16
908.38	215.18
908.69	215.18
908.99	215.26
909.30	215.28
909.60	215.27
909.90	215.28
910.21	215.24
910.51	215.18
910.81	215.18
911.12	215.17
911.42	215.20
911.73	214.98
912.03	215.02
912.33	215.04
912.64	215.03
912.94	215.06
913.24	215.01
913.55	214.99
913.85	214.97
914.15	215.02
914.46	215.05
914.76	215.03
915.06	215.01
915.37	214.95
915.67	214.93
915.97	214.92
916.27	214.89
916.58	214.89
916.88	214.90
917.18	214.87
917.49	215.03
917.79	215.01
918.09	215.06
918.39	215.10
918.70	215.07
919.00	215.04
919.30	215.13
919.60	215.13
919.91	215.12
920.21	215.14
920.51	215.09
920.81	215.09
921.12	215.13
921.42	215.15
921.72	215.16
922.02	215.20
922.32	215.20
922.63	215.22
922.93	215.34
923.23	215.36
923.53	215.36
923.83	215.20
924.13	215.21
924.44	215.19
924.74	215.20
925.04	215.24
925.34	215.26
925.64	215.15
925.94	215.16
926.24	215.27
926.55	215.24
926.85	215.27
927.15	215.25
927.45	215.25
927.75	215.23
928.05	215.20
928.35	215.20
928.65	215.28
928.95	215.31
929.26	215.18
929.56	215.21
929.86	215.22
930.16	215.22
930.46	215.22
930.76	215.27
931.06	215.18
931.36	215.14
931.66	215.16
931.96	215.19
932.26	215.19
932.56	215.08
932.86	215.12
933.16	215.12
933.46	215.11
933.76	215.09
934.06	215.18
934.36	215.25
934.66	215.23
934.96	215.18
935.26	215.16
935.56	215.22
935.86	215.16
936.16	215.14
936.46	215.14
936.76	215.11
937.06	215.07
937.36	215.06
937.66	215.08
937.96	215.09
938.26	215.04
938.56	215.02
938.86	215.06
939.16	215.07
939.46	215.07
939.76	215.08
940.06	215.03
940.35	214.96
940.65	214.87
940.95	214.88
941.25	214.81
941.55	214.80
941.85	214.76
942.15	214.82
942.45	214.86
942.75	214.86
943.04	214.87
943.34	214.91
943.64	214.91
943.94	214.87
944.24	214.86
944.54	214.87
944.84	214.88
945.13	214.84
945.43	214.79
945.73	214.81
946.03	214.78
946.33	214.77
946.62	214.76
946.92	214.71
947.22	214.75
947.52	214.77
947.82	214.78
948.11	214.76
948.41	214.73
948.71	214.67
949.01	214.68
949.31	214.68
949.60	214.64
949.90	214.67
950.20	214.69
950.50	214.67
950.79	214.66
951.09	214.71
951.39	214.72
951.69	214.70
951.98	214.74
952.28	214.74
952.58	214.76
952.87	214.75
953.17	214.81
953.47	214.74
953.76	214.76
954.06	214.72
954.36	214.71
954.66	214.66
954.95	214.74
955.25	214.74
955.55	214.76
955.84	214.74
956.14	214.79
956.44	214.79
956.73	214.76
957.03	214.77
957.32	214.76
957.62	214.76
957.92	214.82
958.21	214.79
958.51	215.05
958.81	215.09
959.10	215.11
959.40	215.15
959.69	215.20
959.99	215.24
960.29	215.25
960.58	215.22
960.88	215.35
961.17	215.30
961.47	215.33
961.76	215.28
962.06	215.33
962.36	215.25
962.65	215.26
962.95	215.27
963.24	215.28
963.54	215.26
963.83	215.25
964.13	215.24
964.42	215.18
964.72	215.00
965.01	215.00
965.31	214.99
965.60	214.95
965.90	215.08
966.19	215.00
966.49	215.02
966.78	215.03
967.08	215.01
967.37	214.99
967.67	214.92
967.96	214.96
968.26	214.96
968.55	215.02
968.85	215.00
969.14	214.97
969.43	214.98
969.73	214.97
970.02	214.96
970.32	214.97
970.61	214.96
970.91	214.90
971.20	214.86
971.49	214.88
971.79	214.91
972.08	214.77
972.38	214.79
972.67	214.79
972.96	214.83
973.26	214.77
973.55	214.84
973.85	214.83
974.14	214.81
974.43	214.80
974.73	214.76
975.02	214.76
975.31	214.79
975.61	214.74
975.90	214.75
976.19	214.72
976.49	214.73
976.78	214.78
977.07	214.77
977.37	214.77
977.66	214.76
977.95	214.72
978.24	214.70
978.54	214.75
978.83	214.71
979.12	214.68
979.42	214.68
979.71	214.64
980.00	214.68
980.29	214.69
980.59	214.67
980.88	214.72
981.17	214.70
981.46	214.68
981.76	214.68
982.05	214.72
982.34	214.76
982.63	214.78
982.93	214.79
983.22	214.87
983.51	214.90
983.80	214.90
984.09	214.96
984.39	214.96
984.68	214.94
984.97	214.97
985.26	214.96
985.55	214.97
985.85	214.98
986.14	214.98
986.43	214.96
986.72	214.93
987.01	214.86
987.30	214.87
987.59	214.86
987.89	214.88
988.18	214.81
988.47	214.79
988.76	214.73
989.05	214.67
989.34	214.59
989.63	214.61
989.92	214.59
990.22	214.54
990.51	214.51
990.80	214.52
991.09	214.51
991.38	214.54
991.67	214.53
991.96	214.48
992.25	214.47
992.54	214.48
992.83	214.48
993.12	214.47
993.41	214.50
993.70	214.60
993.99	214.64
994.28	214.67
994.58	214.69
994.87	214.69
995.16	214.70
995.45	214.69
995.74	214.64
996.03	214.72
996.32	214.75
996.61	214.83
996.90	214.81
997.19	214.81
997.48	214.81
997.77	214.78
998.06	214.82
998.34	214.82
998.63	214.78
998.92	214.80
999.21	214.85
999.50	214.86
999.79	214.76
1000.08	214.76
1000.37	214.78
1000.66	214.75
1000.95	214.81
1001.24	214.83
1001.53	214.87
1001.82	214.86
1002.11	214.80
1002.40	214.83
1002.68	214.83
1002.97	214.98
1003.26	214.96
1003.55	214.93
1003.84	214.98
1004.13	215.01
1004.42	215.02
1004.71	215.05
1004.99	215.03
1005.28	215.06
1005.57	215.05
1005.86	215.04
1006.15	215.02
1006.44	214.98
1006.72	214.98
1007.01	214.95
1007.30	214.94
1007.59	214.92
1007.88	214.89
1008.17	214.89
1008.45	214.82
1008.74	214.74
1009.03	214.63
1009.32	214.65
1009.60	214.64
1009.89	214.63
1010.18	214.53
1010.47	214.53
1010.76	214.51
1011.04	214.51
1011.33	214.53
1011.62	214.51
1011.91	214.57
1012.19	214.57
1012.48	214.55
1012.77	214.56
1013.05	214.63
1013.34	214.66
1013.63	214.64
1013.92	214.68
1014.20	214.70
1014.49	214.72
1014.78	214.74
1015.06	214.68
1015.35	214.64
1015.64	214.68
1015.92	214.70
1016.21	214.72
1016.50	214.72
1016.78	214.78
1017.07	214.80
1017.36	214.75
1017.64	214.74
1017.93	214.74
1018.22	214.71
1018.50	214.74
1018.79	214.74
1019.08	214.66
1019.36	214.63
1019.65	214.65
1019.93	214.68
1020.22	214.70
1020.51	214.78
1020.79	214.76
1021.08	214.25
1021.36	214.34
1021.65	214.58
1021.94	214.75
1022.22	214.47
1022.51	214.65
1022.79	215.29
1023.08	215.21
1023.36	216.77
1023.65	214.16
>>>>>End Processed Spectral Data<<<<<
