SpectraSuite Data File
++++++++++++++++++++++++++++++++++++
Date: Tue Jan 29 16:33:08 EST 2013
User: group
Dark Spectrum Present: No
Reference Spectrum Present: No
Number of Sampled Component Spectra: 1
Spectrometers: USB2E7196
Integration Time (usec): 65000 (USB2E7196)
Spectra Averaged: 100 (USB2E7196)
Boxcar Smoothing: 10 (USB2E7196)
Correct for Electrical Dark: No (USB2E7196)
Strobe/Lamp Enabled: No (USB2E7196)
Correct for Detector Non-linearity: No (USB2E7196)
Correct for Stray Light: No (USB2E7196)
Number of Pixels in Processed Spectrum: 2048
>>>>>Begin Processed Spectral Data<<<<<
339.09	0.00
339.48	201.67
339.86	203.15
340.24	204.79
340.63	206.12
341.01	210.54
341.39	209.00
341.78	209.93
342.16	211.66
342.54	212.20
342.93	201.07
343.31	211.25
343.69	211.77
344.07	212.26
344.46	212.73
344.84	213.11
345.22	213.31
345.60	213.56
345.99	213.79
346.37	213.94
346.75	214.02
347.13	214.10
347.52	214.14
347.90	214.25
348.28	214.26
348.66	214.32
349.05	214.30
349.43	214.36
349.81	214.43
350.19	214.52
350.57	214.61
350.96	214.71
351.34	214.79
351.72	214.91
352.10	215.00
352.48	215.04
352.87	215.09
353.25	215.13
353.63	215.17
354.01	215.23
354.39	215.27
354.77	215.37
355.15	215.49
355.54	215.55
355.92	215.55
356.30	215.60
356.68	215.79
357.06	215.88
357.44	215.93
357.82	215.95
358.20	216.04
358.58	216.09
358.97	216.17
359.35	216.28
359.73	216.39
360.11	216.45
360.49	216.52
360.87	216.60
361.25	216.69
361.63	216.84
362.01	216.90
362.39	216.91
362.77	216.97
363.15	216.98
363.53	217.04
363.91	217.06
364.29	217.10
364.67	216.93
365.05	216.94
365.43	216.98
365.81	217.03
366.19	217.13
366.57	217.23
366.95	217.23
367.33	217.15
367.71	217.13
368.09	217.14
368.47	217.15
368.85	217.15
369.23	217.17
369.61	217.08
369.99	217.15
370.37	217.22
370.75	217.28
371.13	217.23
371.51	217.17
371.89	217.18
372.27	217.17
372.65	217.18
373.03	217.18
373.41	217.10
373.78	217.05
374.16	216.92
374.54	216.81
374.92	216.75
375.30	216.77
375.68	216.71
376.06	216.68
376.44	216.60
376.82	216.53
377.19	216.48
377.57	216.44
377.95	216.31
378.33	216.22
378.71	216.05
379.09	216.04
379.47	216.07
379.84	216.01
380.22	215.96
380.60	215.88
380.98	215.83
381.36	215.82
381.73	215.75
382.11	215.75
382.49	215.73
382.87	215.71
383.25	215.66
383.62	215.85
384.00	215.79
384.38	215.80
384.76	215.86
385.13	215.91
385.51	215.87
385.89	215.84
386.27	215.83
386.64	215.86
387.02	215.78
387.40	215.73
387.78	215.71
388.15	215.65
388.53	215.62
388.91	215.59
389.29	215.58
389.66	215.61
390.04	215.55
390.42	215.50
390.79	215.47
391.17	215.41
391.55	215.20
391.92	215.19
392.30	215.18
392.68	215.11
393.05	215.06
393.43	215.04
393.81	215.03
394.18	215.00
394.56	215.01
394.94	215.06
395.31	215.02
395.69	215.08
396.06	215.13
396.44	215.15
396.82	215.16
397.19	215.25
397.57	215.26
397.95	215.32
398.32	215.36
398.70	215.44
399.07	215.55
399.45	215.57
399.82	215.62
400.20	215.67
400.58	215.71
400.95	215.74
401.33	215.83
401.70	216.06
402.08	216.11
402.45	216.20
402.83	216.33
403.20	216.47
403.58	216.56
403.95	216.72
404.33	216.90
404.71	217.07
405.08	217.36
405.46	217.54
405.83	217.75
406.21	217.93
406.58	218.12
406.96	218.33
407.33	218.60
407.70	218.88
408.08	219.34
408.45	219.71
408.83	220.08
409.20	220.45
409.58	220.72
409.95	221.22
410.33	221.67
410.70	222.11
411.08	222.64
411.45	223.23
411.82	223.83
412.20	224.51
412.57	225.32
412.95	225.85
413.32	226.63
413.69	227.45
414.07	228.37
414.44	229.40
414.82	230.42
415.19	231.60
415.56	232.87
415.94	234.04
416.31	235.44
416.68	236.85
417.06	238.45
417.43	240.01
417.81	241.77
418.18	243.57
418.55	245.52
418.93	247.58
419.30	249.68
419.67	251.87
420.04	254.14
420.42	256.53
420.79	259.36
421.16	262.19
421.54	265.07
421.91	268.05
422.28	271.16
422.66	274.46
423.03	277.71
423.40	281.06
423.77	284.67
424.15	288.30
424.52	292.12
424.89	296.34
425.26	300.40
425.64	304.23
426.01	308.50
426.38	312.99
426.75	317.55
427.13	322.31
427.50	327.29
427.87	332.55
428.24	337.72
428.61	342.70
428.99	348.22
429.36	354.32
429.73	360.24
430.10	366.08
430.47	372.13
430.85	378.42
431.22	385.11
431.59	392.23
431.96	399.07
432.33	406.60
432.70	413.85
433.08	422.38
433.45	430.46
433.82	438.45
434.19	447.30
434.56	455.99
434.93	464.32
435.30	472.62
435.68	481.65
436.05	490.69
436.42	499.65
436.79	507.88
437.16	516.59
437.53	525.86
437.90	535.02
438.27	544.01
438.64	553.23
439.01	561.82
439.38	569.39
439.75	576.73
440.13	585.13
440.50	593.01
440.87	599.48
441.24	606.14
441.61	613.57
441.98	618.94
442.35	625.33
442.72	631.61
443.09	637.59
443.46	641.34
443.83	643.82
444.20	646.01
444.57	649.13
444.94	650.62
445.31	652.10
445.68	653.51
446.05	654.15
446.42	653.39
446.79	652.45
447.16	651.36
447.53	650.60
447.90	647.25
448.27	643.99
448.64	639.33
449.01	635.99
449.37	630.05
449.74	624.43
450.11	617.44
450.48	610.07
450.85	602.69
451.22	596.25
451.59	590.14
451.96	584.26
452.33	576.35
452.70	569.22
453.07	560.70
453.43	552.07
453.80	543.75
454.17	535.71
454.54	528.10
454.91	519.89
455.28	511.88
455.65	504.51
456.02	497.02
456.38	490.67
456.75	482.82
457.12	476.21
457.49	469.66
457.86	463.48
458.23	458.10
458.59	452.14
458.96	446.14
459.33	440.77
459.70	435.41
460.07	431.16
460.43	426.23
460.80	421.64
461.17	417.61
461.54	413.39
461.91	409.42
462.27	405.30
462.64	401.86
463.01	398.09
463.38	394.38
463.74	390.67
464.11	387.41
464.48	384.55
464.85	381.49
465.21	379.08
465.58	376.48
465.95	373.34
466.32	370.75
466.68	368.15
467.05	365.59
467.42	363.01
467.78	360.33
468.15	357.80
468.52	355.86
468.88	353.40
469.25	351.19
469.62	349.34
469.98	347.39
470.35	345.59
470.72	343.88
471.08	342.06
471.45	340.57
471.82	339.03
472.18	337.36
472.55	336.16
472.92	334.76
473.28	333.50
473.65	332.39
474.02	331.23
474.38	330.32
474.75	329.60
475.11	328.80
475.48	328.21
475.85	327.74
476.21	327.22
476.58	326.89
476.94	326.66
477.31	326.36
477.67	326.11
478.04	325.96
478.41	325.94
478.77	326.11
479.14	326.03
479.50	326.17
479.87	326.43
480.23	326.75
480.60	326.98
480.96	327.28
481.33	327.82
481.69	328.41
482.06	328.93
482.42	329.37
482.79	329.94
483.15	330.72
483.52	331.67
483.88	332.63
484.25	333.52
484.61	334.54
484.98	335.62
485.34	336.94
485.71	338.32
486.07	339.79
486.44	341.08
486.80	342.71
487.17	344.35
487.53	346.18
487.90	348.00
488.26	350.09
488.62	352.21
488.99	354.27
489.35	356.44
489.72	358.86
490.08	361.42
490.44	364.06
490.81	366.75
491.17	369.44
491.54	372.41
491.90	375.47
492.26	378.74
492.63	382.13
492.99	385.61
493.36	389.32
493.72	393.18
494.08	397.22
494.45	401.48
494.81	405.88
495.17	410.34
495.54	415.12
495.90	419.92
496.26	424.87
496.63	430.12
496.99	435.53
497.35	441.10
497.72	446.90
498.08	452.88
498.44	458.99
498.80	465.51
499.17	472.01
499.53	478.72
499.89	485.56
500.26	492.62
500.62	499.73
500.98	507.10
501.34	514.61
501.71	522.41
502.07	530.23
502.43	538.25
502.79	546.49
503.16	554.85
503.52	563.47
503.88	572.23
504.24	581.14
504.60	590.31
504.97	599.59
505.33	608.91
505.69	618.75
506.05	628.65
506.41	638.57
506.78	648.65
507.14	658.93
507.50	669.43
507.86	680.17
508.22	691.06
508.59	701.79
508.95	712.94
509.31	724.20
509.67	735.72
510.03	747.18
510.39	758.95
510.75	770.80
511.12	782.81
511.48	795.00
511.84	807.34
512.20	819.71
512.56	832.48
512.92	845.36
513.28	858.08
513.64	870.99
514.00	883.84
514.37	896.84
514.73	910.02
515.09	923.08
515.45	936.05
515.81	949.17
516.17	962.72
516.53	976.00
516.89	989.19
517.25	1002.43
517.61	1016.01
517.97	1029.51
518.33	1042.78
518.69	1056.48
519.05	1070.24
519.41	1084.08
519.77	1098.06
520.13	1111.36
520.49	1124.61
520.85	1138.13
521.21	1151.55
521.57	1165.31
521.93	1178.57
522.29	1192.49
522.65	1206.26
523.01	1219.98
523.37	1233.28
523.73	1246.62
524.09	1259.96
524.45	1273.53
524.81	1287.13
525.17	1300.69
525.53	1313.99
525.89	1327.51
526.25	1340.59
526.61	1353.63
526.97	1366.81
527.33	1379.90
527.68	1393.47
528.04	1407.19
528.40	1420.38
528.76	1433.83
529.12	1446.96
529.48	1460.42
529.84	1472.71
530.20	1485.62
530.56	1498.32
530.91	1511.69
531.27	1524.68
531.63	1537.44
531.99	1550.41
532.35	1562.84
532.71	1575.31
533.07	1588.38
533.42	1600.76
533.78	1613.08
534.14	1625.23
534.50	1636.65
534.86	1648.34
535.21	1659.38
535.57	1670.95
535.93	1682.32
536.29	1693.53
536.65	1705.06
537.00	1716.10
537.36	1727.68
537.72	1738.78
538.08	1750.29
538.44	1761.41
538.79	1772.64
539.15	1783.75
539.51	1794.66
539.87	1806.06
540.22	1817.06
540.58	1827.95
540.94	1838.97
541.29	1849.30
541.65	1859.18
542.01	1869.69
542.37	1879.86
542.72	1890.20
543.08	1899.99
543.44	1910.64
543.79	1920.03
544.15	1929.54
544.51	1939.53
544.87	1949.53
545.22	1958.83
545.58	1967.95
545.94	1976.91
546.29	1985.44
546.65	1993.82
547.01	2002.12
547.36	2009.91
547.72	2017.74
548.07	2025.39
548.43	2033.12
548.79	2041.27
549.14	2049.55
549.50	2058.21
549.86	2066.17
550.21	2073.63
550.57	2081.47
550.92	2088.29
551.28	2095.93
551.64	2103.36
551.99	2111.01
552.35	2118.19
552.70	2125.15
553.06	2131.85
553.41	2138.06
553.77	2144.75
554.13	2151.18
554.48	2158.18
554.84	2165.38
555.19	2171.93
555.55	2178.57
555.90	2184.93
556.26	2191.66
556.61	2197.76
556.97	2202.43
557.32	2208.34
557.68	2214.94
558.03	2220.73
558.39	2226.08
558.74	2232.00
559.10	2237.48
559.45	2243.09
559.81	2248.70
560.16	2254.28
560.52	2260.15
560.87	2266.73
561.23	2272.65
561.58	2279.44
561.94	2284.68
562.29	2289.38
562.64	2295.30
563.00	2301.02
563.35	2306.62
563.71	2312.44
564.06	2318.27
564.42	2324.34
564.77	2329.35
565.12	2334.29
565.48	2339.35
565.83	2344.87
566.19	2350.44
566.54	2355.90
566.89	2360.42
567.25	2365.09
567.60	2370.80
567.96	2375.91
568.31	2380.43
568.66	2384.62
569.02	2388.43
569.37	2392.15
569.72	2396.66
570.08	2400.44
570.43	2403.49
570.78	2406.64
571.14	2409.09
571.49	2412.02
571.84	2415.62
572.20	2418.46
572.55	2421.52
572.90	2423.90
573.26	2426.68
573.61	2429.06
573.96	2431.18
574.31	2433.25
574.67	2435.07
575.02	2435.77
575.37	2437.23
575.72	2437.82
576.08	2439.30
576.43	2439.49
576.78	2440.02
577.13	2441.55
577.49	2442.66
577.84	2443.60
578.19	2444.81
578.54	2445.30
578.90	2445.96
579.25	2445.72
579.60	2445.65
579.95	2444.93
580.30	2444.85
580.66	2444.20
581.01	2442.47
581.36	2439.98
581.71	2438.60
582.06	2437.52
582.42	2436.65
582.77	2434.24
583.12	2432.71
583.47	2431.19
583.82	2430.52
584.17	2429.10
584.53	2426.89
584.88	2424.66
585.23	2422.66
585.58	2420.35
585.93	2418.36
586.28	2416.02
586.63	2413.50
586.98	2411.24
587.34	2409.15
587.69	2406.69
588.04	2404.51
588.39	2403.04
588.74	2400.52
589.09	2397.64
589.44	2394.17
589.79	2391.53
590.14	2389.69
590.49	2386.67
590.84	2382.70
591.19	2379.38
591.54	2376.12
591.89	2371.89
592.25	2368.47
592.60	2364.24
592.95	2359.97
593.30	2355.77
593.65	2351.48
594.00	2346.97
594.35	2343.93
594.70	2339.26
595.05	2334.75
595.40	2329.15
595.75	2323.29
596.10	2319.70
596.45	2314.84
596.80	2310.30
597.15	2305.03
597.50	2298.95
597.85	2293.95
598.19	2288.75
598.54	2282.95
598.89	2277.64
599.24	2273.01
599.59	2266.89
599.94	2261.01
600.29	2255.05
600.64	2248.93
600.99	2242.03
601.34	2236.47
601.69	2229.41
602.04	2222.94
602.39	2216.19
602.74	2210.15
603.08	2204.59
603.43	2197.86
603.78	2190.94
604.13	2183.85
604.48	2176.49
604.83	2170.27
605.18	2163.98
605.53	2157.04
605.87	2150.05
606.22	2143.30
606.57	2135.40
606.92	2127.37
607.27	2120.42
607.62	2113.75
607.96	2106.72
608.31	2100.29
608.66	2092.57
609.01	2084.84
609.36	2077.69
609.70	2069.85
610.05	2061.96
610.40	2053.60
610.75	2045.13
611.10	2037.47
611.44	2028.48
611.79	2019.73
612.14	2009.74
612.49	1999.16
612.83	1989.74
613.18	1980.38
613.53	1970.90
613.88	1961.33
614.22	1952.68
614.57	1942.77
614.92	1932.08
615.27	1921.78
615.61	1911.49
615.96	1901.68
616.31	1892.00
616.65	1882.59
617.00	1872.69
617.35	1863.03
617.70	1853.19
618.04	1843.23
618.39	1832.89
618.74	1823.17
619.08	1813.60
619.43	1804.83
619.78	1796.49
620.12	1787.87
620.47	1778.25
620.82	1767.81
621.16	1757.88
621.51	1747.93
621.85	1737.96
622.20	1727.54
622.55	1717.04
622.89	1707.08
623.24	1697.44
623.59	1687.63
623.93	1677.44
624.28	1667.73
624.62	1657.60
624.97	1647.36
625.32	1637.60
625.66	1628.78
626.01	1620.05
626.35	1610.58
626.70	1600.48
627.04	1590.37
627.39	1580.22
627.73	1570.93
628.08	1562.10
628.43	1552.51
628.77	1543.23
629.12	1534.47
629.46	1526.69
629.81	1518.34
630.15	1508.88
630.50	1499.05
630.84	1488.62
631.19	1478.78
631.53	1469.44
631.88	1459.16
632.22	1449.05
632.57	1439.60
632.91	1429.37
633.26	1419.39
633.60	1409.85
633.95	1400.55
634.29	1390.99
634.64	1381.63
634.98	1371.61
635.32	1362.32
635.67	1353.87
636.01	1344.58
636.36	1334.73
636.70	1325.08
637.05	1315.66
637.39	1306.66
637.73	1297.87
638.08	1290.36
638.42	1281.97
638.77	1273.23
639.11	1265.02
639.45	1257.20
639.80	1248.68
640.14	1239.97
640.49	1231.16
640.83	1222.33
641.17	1214.23
641.52	1206.07
641.86	1197.41
642.20	1189.56
642.55	1180.87
642.89	1171.88
643.23	1163.28
643.58	1155.10
643.92	1146.07
644.26	1137.25
644.61	1128.77
644.95	1119.93
645.29	1110.58
645.64	1101.44
645.98	1092.90
646.32	1084.97
646.66	1076.38
647.01	1067.98
647.35	1059.76
647.69	1051.34
648.04	1042.94
648.38	1033.94
648.72	1025.19
649.06	1016.77
649.41	1008.49
649.75	1000.42
650.09	992.47
650.43	984.40
650.78	976.07
651.12	968.33
651.46	960.98
651.80	953.65
652.14	946.39
652.49	938.81
652.83	931.42
653.17	923.68
653.51	915.96
653.85	908.75
654.20	901.44
654.54	893.95
654.88	886.67
655.22	879.34
655.56	872.28
655.90	865.33
656.25	858.62
656.59	851.64
656.93	844.58
657.27	837.44
657.61	830.31
657.95	824.15
658.29	818.16
658.64	811.91
658.98	805.40
659.32	798.72
659.66	792.42
660.00	786.03
660.34	779.93
660.68	773.78
661.02	767.42
661.36	761.37
661.70	755.52
662.05	749.85
662.39	744.34
662.73	738.95
663.07	733.53
663.41	727.82
663.75	722.08
664.09	716.34
664.43	710.82
664.77	705.45
665.11	699.63
665.45	693.65
665.79	687.82
666.13	682.14
666.47	676.70
666.81	671.17
667.15	665.74
667.49	660.48
667.83	655.13
668.17	649.80
668.51	644.64
668.85	639.66
669.19	634.73
669.53	629.75
669.87	624.56
670.21	619.72
670.55	614.99
670.89	610.48
671.23	606.18
671.57	601.82
671.91	597.50
672.25	593.31
672.58	589.14
672.92	585.00
673.26	581.01
673.60	577.04
673.94	573.22
674.28	569.56
674.62	565.74
674.96	561.96
675.30	558.42
675.64	554.73
675.97	551.06
676.31	547.39
676.65	543.67
676.99	540.20
677.33	536.37
677.67	532.71
678.01	528.74
678.34	524.99
678.68	521.45
679.02	517.76
679.36	513.98
679.70	510.26
680.04	506.70
680.37	503.18
680.71	499.78
681.05	496.55
681.39	493.26
681.73	490.09
682.06	487.02
682.40	483.90
682.74	480.72
683.08	477.48
683.42	474.28
683.75	471.25
684.09	468.15
684.43	465.32
684.77	462.30
685.10	459.54
685.44	456.62
685.78	453.60
686.12	450.85
686.45	448.09
686.79	445.46
687.13	442.88
687.46	440.22
687.80	437.53
688.14	434.61
688.48	431.94
688.81	429.21
689.15	426.60
689.49	423.95
689.82	421.38
690.16	418.76
690.50	416.21
690.83	413.68
691.17	411.11
691.51	408.61
691.84	406.37
692.18	404.07
692.52	401.81
692.85	399.66
693.19	397.49
693.52	395.30
693.86	393.00
694.20	390.82
694.53	388.68
694.87	386.45
695.21	384.30
695.54	382.07
695.88	379.87
696.21	377.66
696.55	375.54
696.88	373.40
697.22	371.38
697.56	369.45
697.89	367.52
698.23	365.75
698.56	363.89
698.90	362.03
699.23	360.09
699.57	358.23
699.90	356.34
700.24	354.43
700.58	352.62
700.91	350.97
701.25	349.33
701.58	347.62
701.92	345.99
702.25	344.42
702.59	342.76
702.92	341.19
703.26	339.59
703.59	338.04
703.93	336.78
704.26	335.36
704.60	333.85
704.93	332.37
705.26	330.87
705.60	329.38
705.93	327.86
706.27	326.55
706.60	325.26
706.94	324.00
707.27	322.61
707.61	321.27
707.94	319.95
708.27	318.43
708.61	316.99
708.94	315.63
709.28	314.29
709.61	313.06
709.94	311.81
710.28	310.61
710.61	309.41
710.95	307.95
711.28	306.82
711.61	305.60
711.95	304.41
712.28	303.17
712.61	302.00
712.95	300.95
713.28	299.87
713.61	298.69
713.95	297.52
714.28	296.45
714.61	295.39
714.95	294.29
715.28	293.25
715.61	292.24
715.95	291.23
716.28	290.26
716.61	289.31
716.95	288.33
717.28	287.33
717.61	286.35
717.94	285.46
718.28	284.40
718.61	283.49
718.94	282.58
719.27	281.71
719.61	280.82
719.94	279.92
720.27	278.93
720.60	278.08
720.94	277.26
721.27	276.51
721.60	275.78
721.93	275.05
722.27	274.41
722.60	273.72
722.93	273.01
723.26	272.36
723.59	271.60
723.93	270.98
724.26	270.33
724.59	269.68
724.92	269.05
725.25	268.57
725.59	268.01
725.92	267.49
726.25	266.90
726.58	266.34
726.91	265.73
727.24	265.20
727.57	264.61
727.91	263.99
728.24	263.43
728.57	262.84
728.90	262.30
729.23	261.64
729.56	261.21
729.89	260.66
730.22	260.07
730.55	259.56
730.89	259.00
731.22	258.45
731.55	257.89
731.88	257.37
732.21	256.76
732.54	256.23
732.87	255.71
733.20	255.21
733.53	254.71
733.86	254.27
734.19	253.78
734.52	253.38
734.85	253.10
735.18	252.62
735.51	252.22
735.84	251.79
736.17	251.40
736.50	250.86
736.83	250.74
737.16	250.35
737.49	249.97
737.82	249.55
738.15	249.21
738.48	248.87
738.81	248.49
739.14	248.07
739.47	247.66
739.80	247.29
740.13	246.99
740.46	246.59
740.79	246.18
741.12	245.80
741.45	245.40
741.78	244.94
742.11	244.69
742.44	244.30
742.77	243.96
743.10	243.62
743.43	243.28
743.75	242.67
744.08	242.57
744.41	242.18
744.74	241.83
745.07	241.45
745.40	241.17
745.73	240.87
746.06	240.54
746.39	240.23
746.71	239.88
747.04	239.48
747.37	239.15
747.70	238.89
748.03	238.54
748.36	238.22
748.68	237.91
749.01	237.51
749.34	237.26
749.67	236.96
750.00	236.68
750.33	236.51
750.65	236.24
750.98	235.74
751.31	235.54
751.64	235.29
751.97	235.14
752.29	234.83
752.62	234.50
752.95	234.24
753.28	233.98
753.60	233.75
753.93	233.57
754.26	233.38
754.59	233.08
754.91	232.85
755.24	232.65
755.57	232.41
755.90	232.19
756.22	231.90
756.55	231.67
756.88	231.42
757.20	231.09
757.53	230.86
757.86	230.63
758.19	230.35
758.51	230.16
758.84	229.86
759.17	229.67
759.49	229.48
759.82	229.41
760.15	229.23
760.47	229.02
760.80	228.78
761.13	228.60
761.45	228.38
761.78	228.26
762.11	228.10
762.43	227.90
762.76	227.73
763.08	227.62
763.41	227.48
763.74	227.32
764.06	227.16
764.39	226.98
764.71	226.83
765.04	226.71
765.37	226.57
765.69	226.45
766.02	226.28
766.34	226.14
766.67	225.93
767.00	225.81
767.32	225.78
767.65	225.77
767.97	225.64
768.30	225.56
768.62	225.38
768.95	225.20
769.27	225.07
769.60	224.95
769.92	224.76
770.25	224.54
770.57	224.43
770.90	224.31
771.22	224.19
771.55	224.04
771.87	223.95
772.20	223.79
772.52	223.82
772.85	223.98
773.17	223.85
773.50	223.73
773.82	223.61
774.15	223.40
774.47	223.16
774.80	223.05
775.12	222.94
775.45	222.86
775.77	222.75
776.09	222.67
776.42	222.60
776.74	222.59
777.07	222.51
777.39	222.41
777.72	222.31
778.04	222.25
778.36	222.18
778.69	222.07
779.01	222.00
779.33	221.75
779.66	221.42
779.98	221.34
780.31	221.28
780.63	221.28
780.95	221.24
781.28	221.20
781.60	221.11
781.92	221.04
782.25	220.98
782.57	220.92
782.89	220.84
783.22	220.75
783.54	220.65
783.86	220.62
784.19	220.54
784.51	220.56
784.83	220.46
785.16	220.38
785.48	220.30
785.80	220.23
786.12	220.17
786.45	220.09
786.77	220.05
787.09	219.93
787.42	219.84
787.74	219.79
788.06	219.71
788.38	219.66
788.71	219.58
789.03	219.53
789.35	219.51
789.67	219.45
789.99	219.43
790.32	219.32
790.64	219.29
790.96	219.39
791.28	219.26
791.61	219.20
791.93	219.18
792.25	219.16
792.57	219.24
792.89	219.14
793.21	219.12
793.54	219.07
793.86	219.00
794.18	218.94
794.50	218.81
794.82	218.76
795.14	218.73
795.47	218.75
795.79	218.69
796.11	218.61
796.43	218.58
796.75	218.50
797.07	218.48
797.39	218.39
797.71	218.20
798.04	218.17
798.36	218.15
798.68	218.10
799.00	218.10
799.32	217.96
799.64	218.02
799.96	217.97
800.28	217.93
800.60	217.93
800.92	217.94
801.24	217.97
801.56	217.94
801.89	217.87
802.21	217.81
802.53	217.74
802.85	217.75
803.17	217.78
803.49	217.73
803.81	217.67
804.13	217.64
804.45	217.58
804.77	217.56
805.09	217.54
805.41	217.48
805.73	217.37
806.05	217.31
806.37	217.24
806.69	217.22
807.01	217.19
807.33	217.19
807.65	217.05
807.97	217.07
808.28	217.05
808.60	217.04
808.92	217.01
809.24	217.11
809.56	217.08
809.88	216.99
810.20	216.99
810.52	217.03
810.84	216.96
811.16	216.94
811.48	216.90
811.80	216.93
812.12	216.91
812.43	216.94
812.75	216.89
813.07	216.83
813.39	216.81
813.71	216.79
814.03	216.72
814.35	216.73
814.67	216.66
814.98	216.62
815.30	216.61
815.62	216.58
815.94	216.40
816.26	216.35
816.58	216.32
816.89	216.32
817.21	216.25
817.53	216.29
817.85	216.29
818.17	216.26
818.48	216.15
818.80	216.16
819.12	216.10
819.44	216.10
819.76	216.07
820.07	216.03
820.39	215.97
820.71	215.95
821.03	215.92
821.34	215.89
821.66	215.89
821.98	215.88
822.30	215.85
822.61	215.98
822.93	215.98
823.25	215.95
823.57	215.91
823.88	215.94
824.20	215.90
824.52	215.91
824.83	215.90
825.15	215.88
825.47	215.87
825.79	215.88
826.10	215.84
826.42	215.83
826.74	215.86
827.05	215.85
827.37	215.86
827.69	215.85
828.00	215.82
828.32	215.80
828.64	215.75
828.95	215.83
829.27	215.76
829.58	215.73
829.90	215.73
830.22	215.72
830.53	215.65
830.85	215.63
831.17	215.61
831.48	215.59
831.80	215.64
832.11	215.59
832.43	215.59
832.75	215.56
833.06	215.67
833.38	215.61
833.69	215.59
834.01	215.58
834.32	215.55
834.64	215.52
834.96	215.48
835.27	215.47
835.59	215.42
835.90	215.35
836.22	215.33
836.53	215.29
836.85	215.27
837.16	215.45
837.48	215.44
837.79	215.46
838.11	215.50
838.42	215.44
838.74	215.46
839.05	215.43
839.37	215.45
839.68	215.34
840.00	215.32
840.31	215.36
840.63	215.33
840.94	215.35
841.26	215.31
841.57	215.31
841.88	215.34
842.20	215.29
842.51	215.25
842.83	215.27
843.14	215.43
843.46	215.41
843.77	215.30
844.08	215.31
844.40	215.25
844.71	215.18
845.03	215.18
845.34	215.15
845.65	215.12
845.97	215.15
846.28	215.14
846.60	215.16
846.91	215.13
847.22	215.13
847.54	215.15
847.85	215.19
848.16	215.18
848.48	215.12
848.79	215.20
849.10	215.23
849.42	215.22
849.73	215.06
850.04	215.05
850.36	214.99
850.67	215.00
850.98	214.98
851.30	215.00
851.61	214.98
851.92	214.96
852.23	215.05
852.55	215.01
852.86	215.02
853.17	215.00
853.49	215.05
853.80	215.06
854.11	215.03
854.42	215.05
854.74	215.06
855.05	215.09
855.36	214.97
855.67	214.94
855.99	214.92
856.30	215.18
856.61	215.17
856.92	215.13
857.23	215.11
857.55	215.07
857.86	215.04
858.17	215.08
858.48	215.07
858.79	215.03
859.11	215.05
859.42	215.03
859.73	215.00
860.04	214.96
860.35	214.87
860.66	214.84
860.98	214.83
861.29	214.80
861.60	214.79
861.91	214.85
862.22	214.87
862.53	214.84
862.84	214.59
863.16	214.64
863.47	214.64
863.78	214.64
864.09	214.65
864.40	214.67
864.71	214.67
865.02	214.65
865.33	214.60
865.64	214.55
865.95	214.53
866.27	214.68
866.58	214.67
866.89	214.76
867.20	214.72
867.51	214.68
867.82	214.66
868.13	214.69
868.44	214.63
868.75	214.63
869.06	214.65
869.37	214.65
869.68	214.56
869.99	214.59
870.30	214.56
870.61	214.57
870.92	214.56
871.23	214.52
871.54	214.58
871.85	214.65
872.16	214.66
872.47	214.61
872.78	214.50
873.09	214.50
873.40	214.49
873.71	214.56
874.02	214.57
874.33	214.59
874.64	214.51
874.95	214.56
875.26	214.52
875.56	214.50
875.87	214.49
876.18	214.49
876.49	214.66
876.80	214.69
877.11	214.68
877.42	214.64
877.73	214.66
878.04	214.61
878.35	214.59
878.66	214.59
878.96	214.62
879.27	214.58
879.58	214.58
879.89	214.55
880.20	214.57
880.51	214.53
880.82	214.52
881.12	214.55
881.43	214.50
881.74	214.48
882.05	214.47
882.36	214.48
882.67	214.50
882.97	214.29
883.28	214.25
883.59	214.25
883.90	214.28
884.21	214.29
884.51	214.28
884.82	214.25
885.13	214.26
885.44	214.26
885.74	214.29
886.05	214.27
886.36	214.25
886.67	214.19
886.98	214.32
887.28	214.34
887.59	214.35
887.90	214.35
888.20	214.38
888.51	214.43
888.82	214.40
889.13	214.43
889.43	214.60
889.74	214.59
890.05	214.59
890.35	214.58
890.66	214.55
890.97	214.54
891.28	214.52
891.58	214.53
891.89	214.54
892.20	214.51
892.50	214.51
892.81	214.52
893.12	214.53
893.42	214.43
893.73	214.44
894.04	214.43
894.34	214.45
894.65	214.44
894.95	214.41
895.26	214.39
895.57	214.42
895.87	214.25
896.18	214.33
896.48	214.34
896.79	214.31
897.10	214.35
897.40	214.35
897.71	214.36
898.01	214.34
898.32	214.36
898.63	214.35
898.93	214.35
899.24	214.36
899.54	214.31
899.85	214.29
900.15	214.27
900.46	214.27
900.76	214.29
901.07	214.29
901.38	214.32
901.68	214.35
901.99	214.28
902.29	214.30
902.60	214.26
902.90	214.23
903.21	214.24
903.51	214.23
903.82	214.27
904.12	214.30
904.43	214.27
904.73	214.25
905.03	214.28
905.34	214.46
905.64	214.45
905.95	214.45
906.25	214.44
906.56	214.46
906.86	214.46
907.17	214.42
907.47	214.45
907.77	214.41
908.08	214.36
908.38	214.38
908.69	214.40
908.99	214.42
909.30	214.43
909.60	214.42
909.90	214.44
910.21	214.38
910.51	214.36
910.81	214.37
911.12	214.40
911.42	214.42
911.73	214.22
912.03	214.23
912.33	214.29
912.64	214.27
912.94	214.23
913.24	214.20
913.55	214.21
913.85	214.15
914.15	214.21
914.46	214.27
914.76	214.25
915.06	214.21
915.37	214.19
915.67	214.17
915.97	214.22
916.27	214.16
916.58	214.18
916.88	214.16
917.18	214.14
917.49	214.25
917.79	214.22
918.09	214.25
918.39	214.30
918.70	214.30
919.00	214.33
919.30	214.44
919.60	214.42
919.91	214.38
920.21	214.38
920.51	214.32
920.81	214.31
921.12	214.36
921.42	214.37
921.72	214.39
922.02	214.39
922.32	214.39
922.63	214.43
922.93	214.52
923.23	214.49
923.53	214.46
923.83	214.31
924.13	214.32
924.44	214.32
924.74	214.34
925.04	214.40
925.34	214.41
925.64	214.29
925.94	214.31
926.24	214.44
926.55	214.46
926.85	214.49
927.15	214.51
927.45	214.50
927.75	214.50
928.05	214.51
928.35	214.52
928.65	214.57
928.95	214.57
929.26	214.51
929.56	214.57
929.86	214.61
930.16	214.59
930.46	214.59
930.76	214.60
931.06	214.48
931.36	214.41
931.66	214.43
931.96	214.48
932.26	214.49
932.56	214.40
932.86	214.45
933.16	214.44
933.46	214.40
933.76	214.35
934.06	214.39
934.36	214.45
934.66	214.46
934.96	214.45
935.26	214.48
935.56	214.47
935.86	214.43
936.16	214.42
936.46	214.45
936.76	214.43
937.06	214.39
937.36	214.49
937.66	214.50
937.96	214.47
938.26	214.44
938.56	214.42
938.86	214.42
939.16	214.45
939.46	214.44
939.76	214.41
940.06	214.41
940.35	214.34
940.65	214.25
940.95	214.25
941.25	214.17
941.55	214.11
941.85	214.12
942.15	214.16
942.45	214.22
942.75	214.22
943.04	214.21
943.34	214.27
943.64	214.21
943.94	214.18
944.24	214.20
944.54	214.20
944.84	214.22
945.13	214.19
945.43	214.13
945.73	214.11
946.03	214.11
946.33	214.10
946.62	214.11
946.92	214.09
947.22	214.10
947.52	214.10
947.82	214.12
948.11	214.09
948.41	214.05
948.71	213.99
949.01	214.01
949.31	213.99
949.60	213.95
949.90	213.95
950.20	213.95
950.50	213.95
950.79	213.95
951.09	213.97
951.39	213.96
951.69	213.94
951.98	214.00
952.28	214.02
952.58	214.02
952.87	214.00
953.17	214.03
953.47	214.01
953.76	214.02
954.06	214.01
954.36	213.99
954.66	213.99
954.95	214.03
955.25	214.02
955.55	214.07
955.84	214.05
956.14	214.08
956.44	214.08
956.73	214.04
957.03	214.05
957.32	214.04
957.62	214.03
957.92	214.07
958.21	214.03
958.51	214.31
958.81	214.34
959.10	214.39
959.40	214.45
959.69	214.46
959.99	214.50
960.29	214.47
960.58	214.46
960.88	214.51
961.17	214.48
961.47	214.49
961.76	214.46
962.06	214.51
962.36	214.48
962.65	214.51
962.95	214.54
963.24	214.50
963.54	214.51
963.83	214.54
964.13	214.55
964.42	214.49
964.72	214.30
965.01	214.29
965.31	214.24
965.60	214.17
965.90	214.31
966.19	214.22
966.49	214.25
966.78	214.25
967.08	214.24
967.37	214.23
967.67	214.19
967.96	214.22
968.26	214.18
968.55	214.17
968.85	214.14
969.14	214.11
969.43	214.12
969.73	214.11
970.02	214.09
970.32	214.07
970.61	214.05
970.91	214.00
971.20	213.97
971.49	213.99
971.79	214.02
972.08	213.87
972.38	213.91
972.67	213.89
972.96	213.91
973.26	213.85
973.55	213.94
973.85	213.94
974.14	213.92
974.43	213.95
974.73	213.94
975.02	213.91
975.31	213.93
975.61	213.92
975.90	213.90
976.19	213.89
976.49	213.90
976.78	213.97
977.07	213.93
977.37	213.95
977.66	213.94
977.95	213.92
978.24	213.94
978.54	213.97
978.83	213.95
979.12	213.97
979.42	213.96
979.71	213.89
980.00	213.87
980.29	213.89
980.59	213.85
980.88	213.94
981.17	213.93
981.46	213.89
981.76	213.87
982.05	213.92
982.34	213.92
982.63	213.94
982.93	213.94
983.22	214.00
983.51	214.03
983.80	214.05
984.09	214.05
984.39	214.00
984.68	213.99
984.97	214.03
985.26	213.97
985.55	214.02
985.85	213.99
986.14	214.05
986.43	214.06
986.72	214.05
987.01	213.96
987.30	214.00
987.59	214.01
987.89	214.01
988.18	213.95
988.47	213.95
988.76	213.94
989.05	213.91
989.34	213.89
989.63	213.90
989.92	213.83
990.22	213.82
990.51	213.87
990.80	213.83
991.09	213.84
991.38	213.89
991.67	213.89
991.96	213.86
992.25	213.85
992.54	213.82
992.83	213.79
993.12	213.75
993.41	213.78
993.70	213.86
993.99	213.92
994.28	213.95
994.58	213.97
994.87	213.91
995.16	213.94
995.45	213.93
995.74	213.90
996.03	213.99
996.32	214.04
996.61	214.06
996.90	214.07
997.19	214.04
997.48	214.04
997.77	214.00
998.06	214.01
998.34	214.00
998.63	214.01
998.92	214.07
999.21	214.11
999.50	214.13
999.79	214.07
1000.08	214.06
1000.37	214.06
1000.66	214.03
1000.95	214.08
1001.24	214.05
1001.53	214.07
1001.82	214.03
1002.11	213.96
1002.40	213.96
1002.68	214.01
1002.97	214.16
1003.26	214.15
1003.55	214.12
1003.84	214.16
1004.13	214.22
1004.42	214.20
1004.71	214.19
1004.99	214.13
1005.28	214.20
1005.57	214.17
1005.86	214.15
1006.15	214.15
1006.44	214.14
1006.72	214.20
1007.01	214.16
1007.30	214.17
1007.59	214.13
1007.88	214.14
1008.17	214.13
1008.45	214.06
1008.74	213.98
1009.03	213.91
1009.32	213.92
1009.60	213.92
1009.89	213.87
1010.18	213.79
1010.47	213.80
1010.76	213.80
1011.04	213.84
1011.33	213.84
1011.62	213.85
1011.91	213.87
1012.19	213.86
1012.48	213.84
1012.77	213.83
1013.05	213.95
1013.34	213.94
1013.63	213.94
1013.92	213.95
1014.20	213.98
1014.49	214.01
1014.78	214.01
1015.06	213.93
1015.35	213.91
1015.64	213.95
1015.92	213.98
1016.21	214.00
1016.50	214.01
1016.78	214.04
1017.07	214.08
1017.36	214.03
1017.64	213.99
1017.93	214.01
1018.22	213.98
1018.50	213.99
1018.79	213.95
1019.08	213.86
1019.36	213.88
1019.65	213.89
1019.93	213.94
1020.22	213.97
1020.51	214.10
1020.79	214.07
1021.08	213.41
1021.36	213.77
1021.65	213.34
1021.94	214.17
1022.22	213.94
1022.51	214.13
1022.79	214.67
1023.08	214.55
1023.36	216.71
1023.65	213.22
>>>>>End Processed Spectral Data<<<<<
