SpectraSuite Data File
++++++++++++++++++++++++++++++++++++
Date: Tue Jan 29 16:32:48 EST 2013
User: group
Dark Spectrum Present: No
Reference Spectrum Present: No
Number of Sampled Component Spectra: 1
Spectrometers: USB2E7196
Integration Time (usec): 65000 (USB2E7196)
Spectra Averaged: 100 (USB2E7196)
Boxcar Smoothing: 10 (USB2E7196)
Correct for Electrical Dark: No (USB2E7196)
Strobe/Lamp Enabled: No (USB2E7196)
Correct for Detector Non-linearity: No (USB2E7196)
Correct for Stray Light: No (USB2E7196)
Number of Pixels in Processed Spectrum: 2048
>>>>>Begin Processed Spectral Data<<<<<
339.09	0.00
339.48	201.76
339.86	203.77
340.24	205.11
340.63	206.44
341.01	211.13
341.39	208.91
341.78	210.71
342.16	212.09
342.54	211.84
342.93	201.18
343.31	211.36
343.69	211.92
344.07	212.40
344.46	212.83
344.84	213.22
345.22	213.37
345.60	213.65
345.99	213.87
346.37	214.00
346.75	214.12
347.13	214.21
347.52	214.23
347.90	214.37
348.28	214.37
348.66	214.45
349.05	214.44
349.43	214.51
349.81	214.59
350.19	214.64
350.57	214.72
350.96	214.81
351.34	214.87
351.72	214.94
352.10	215.00
352.48	215.06
352.87	215.10
353.25	215.16
353.63	215.20
354.01	215.23
354.39	215.27
354.77	215.34
355.15	215.44
355.54	215.45
355.92	215.42
356.30	215.50
356.68	215.70
357.06	215.73
357.44	215.77
357.82	215.82
358.20	215.90
358.58	215.97
358.97	216.04
359.35	216.15
359.73	216.25
360.11	216.31
360.49	216.35
360.87	216.38
361.25	216.46
361.63	216.58
362.01	216.61
362.39	216.66
362.77	216.70
363.15	216.72
363.53	216.78
363.91	216.84
364.29	216.89
364.67	216.69
365.05	216.74
365.43	216.74
365.81	216.77
366.19	216.91
366.57	216.98
366.95	217.01
367.33	216.95
367.71	216.95
368.09	217.01
368.47	217.02
368.85	217.03
369.23	217.03
369.61	216.92
369.99	216.98
370.37	216.99
370.75	217.08
371.13	217.01
371.51	216.96
371.89	216.98
372.27	216.96
372.65	216.94
373.03	216.88
373.41	216.87
373.78	216.83
374.16	216.66
374.54	216.57
374.92	216.49
375.30	216.49
375.68	216.42
376.06	216.38
376.44	216.32
376.82	216.30
377.19	216.28
377.57	216.23
377.95	216.12
378.33	216.07
378.71	215.95
379.09	215.97
379.47	215.96
379.84	215.86
380.22	215.79
380.60	215.72
380.98	215.69
381.36	215.67
381.73	215.62
382.11	215.64
382.49	215.61
382.87	215.55
383.25	215.50
383.62	215.68
384.00	215.63
384.38	215.63
384.76	215.65
385.13	215.66
385.51	215.64
385.89	215.63
386.27	215.61
386.64	215.59
387.02	215.56
387.40	215.53
387.78	215.53
388.15	215.50
388.53	215.50
388.91	215.49
389.29	215.45
389.66	215.44
390.04	215.42
390.42	215.43
390.79	215.43
391.17	215.39
391.55	215.19
391.92	215.17
392.30	215.17
392.68	215.11
393.05	215.12
393.43	215.13
393.81	215.14
394.18	215.09
394.56	215.09
394.94	215.17
395.31	215.17
395.69	215.24
396.06	215.30
396.44	215.33
396.82	215.38
397.19	215.50
397.57	215.52
397.95	215.56
398.32	215.50
398.70	215.57
399.07	215.65
399.45	215.67
399.82	215.73
400.20	215.74
400.58	215.81
400.95	215.76
401.33	215.87
401.70	216.05
402.08	216.16
402.45	216.24
402.83	216.31
403.20	216.45
403.58	216.53
403.95	216.70
404.33	216.88
404.71	216.99
405.08	217.24
405.46	217.41
405.83	217.58
406.21	217.82
406.58	218.03
406.96	218.28
407.33	218.54
407.70	218.83
408.08	219.28
408.45	219.62
408.83	220.02
409.20	220.36
409.58	220.66
409.95	221.10
410.33	221.60
410.70	222.08
411.08	222.61
411.45	223.17
411.82	223.71
412.20	224.38
412.57	225.22
412.95	225.78
413.32	226.61
413.69	227.47
414.07	228.39
414.44	229.37
414.82	230.39
415.19	231.55
415.56	232.72
415.94	233.95
416.31	235.36
416.68	236.76
417.06	238.37
417.43	239.90
417.81	241.62
418.18	243.38
418.55	245.30
418.93	247.32
419.30	249.43
419.67	251.70
420.04	253.96
420.42	256.37
420.79	259.19
421.16	261.92
421.54	264.82
421.91	267.77
422.28	270.87
422.66	274.19
423.03	277.52
423.40	280.91
423.77	284.46
424.15	288.13
424.52	291.97
424.89	296.17
425.26	300.25
425.64	304.21
426.01	308.51
426.38	312.98
426.75	317.56
427.13	322.27
427.50	327.26
427.87	332.49
428.24	337.70
428.61	342.68
428.99	348.26
429.36	354.24
429.73	360.18
430.10	366.10
430.47	372.13
430.85	378.42
431.22	385.12
431.59	392.27
431.96	399.04
432.33	406.55
432.70	413.76
433.08	422.30
433.45	430.37
433.82	438.42
434.19	447.35
434.56	456.04
434.93	464.44
435.30	472.70
435.68	481.86
436.05	490.76
436.42	499.68
436.79	507.85
437.16	516.64
437.53	525.96
437.90	535.14
438.27	544.13
438.64	553.36
439.01	561.92
439.38	569.50
439.75	576.87
440.13	585.29
440.50	593.24
440.87	599.69
441.24	606.34
441.61	613.68
441.98	619.07
442.35	625.36
442.72	631.67
443.09	637.74
443.46	641.41
443.83	643.98
444.20	646.19
444.57	649.33
444.94	650.81
445.31	652.20
445.68	653.54
446.05	654.20
446.42	653.38
446.79	652.43
447.16	651.36
447.53	650.65
447.90	647.31
448.27	644.04
448.64	639.43
449.01	636.14
449.37	630.24
449.74	624.51
450.11	617.66
450.48	610.25
450.85	602.80
451.22	596.36
451.59	590.26
451.96	584.48
452.33	576.63
452.70	569.51
453.07	561.02
453.43	552.34
453.80	544.01
454.17	536.01
454.54	528.41
454.91	520.22
455.28	512.20
455.65	504.78
456.02	497.27
456.38	490.87
456.75	482.93
457.12	476.30
457.49	469.82
457.86	463.56
458.23	458.15
458.59	452.26
458.96	446.27
459.33	440.91
459.70	435.49
460.07	431.22
460.43	426.32
460.80	421.75
461.17	417.82
461.54	413.60
461.91	409.62
462.27	405.54
462.64	402.11
463.01	398.34
463.38	394.72
463.74	391.00
464.11	387.81
464.48	384.95
464.85	381.88
465.21	379.41
465.58	376.88
465.95	373.75
466.32	371.09
466.68	368.47
467.05	365.93
467.42	363.38
467.78	360.67
468.15	358.12
468.52	356.22
468.88	353.74
469.25	351.56
469.62	349.75
469.98	347.80
470.35	345.97
470.72	344.22
471.08	342.38
471.45	340.92
471.82	339.34
472.18	337.67
472.55	336.44
472.92	335.03
473.28	333.79
473.65	332.67
474.02	331.51
474.38	330.60
474.75	329.78
475.11	328.97
475.48	328.38
475.85	327.92
476.21	327.42
476.58	327.06
476.94	326.80
477.31	326.45
477.67	326.13
478.04	325.98
478.41	325.98
478.77	326.15
479.14	326.09
479.50	326.18
479.87	326.51
480.23	326.85
480.60	327.10
480.96	327.34
481.33	327.94
481.69	328.50
482.06	329.00
482.42	329.51
482.79	330.10
483.15	330.91
483.52	331.82
483.88	332.69
484.25	333.62
484.61	334.64
484.98	335.67
485.34	337.02
485.71	338.38
486.07	339.79
486.44	341.06
486.80	342.68
487.17	344.36
487.53	346.14
487.90	347.99
488.26	350.08
488.62	352.21
488.99	354.25
489.35	356.40
489.72	358.82
490.08	361.32
490.44	363.89
490.81	366.57
491.17	369.28
491.54	372.28
491.90	375.28
492.26	378.52
492.63	382.00
492.99	385.44
493.36	389.15
493.72	393.04
494.08	397.08
494.45	401.30
494.81	405.70
495.17	410.17
495.54	414.93
495.90	419.69
496.26	424.66
496.63	429.83
496.99	435.25
497.35	440.88
497.72	446.75
498.08	452.65
498.44	458.77
498.80	465.23
499.17	471.74
499.53	478.45
499.89	485.39
500.26	492.37
500.62	499.56
500.98	507.02
501.34	514.47
501.71	522.27
502.07	530.10
502.43	538.14
502.79	546.31
503.16	554.79
503.52	563.48
503.88	572.21
504.24	581.18
504.60	590.26
504.97	599.48
505.33	608.78
505.69	618.76
506.05	628.73
506.41	638.64
506.78	648.83
507.14	659.11
507.50	669.68
507.86	680.44
508.22	691.26
508.59	701.95
508.95	713.09
509.31	724.35
509.67	735.88
510.03	747.37
510.39	759.15
510.75	770.99
511.12	782.89
511.48	795.03
511.84	807.39
512.20	819.84
512.56	832.55
512.92	845.43
513.28	858.08
513.64	870.94
514.00	883.93
514.37	897.05
514.73	910.23
515.09	923.26
515.45	936.23
515.81	949.37
516.17	962.87
516.53	976.24
516.89	989.51
517.25	1002.83
517.61	1016.40
517.97	1029.92
518.33	1043.13
518.69	1056.81
519.05	1070.70
519.41	1084.47
519.77	1098.40
520.13	1111.84
520.49	1125.17
520.85	1138.73
521.21	1152.11
521.57	1165.86
521.93	1178.88
522.29	1192.75
522.65	1206.36
523.01	1220.08
523.37	1233.37
523.73	1246.68
524.09	1259.94
524.45	1273.39
524.81	1287.08
525.17	1300.61
525.53	1313.88
525.89	1327.35
526.25	1340.54
526.61	1353.48
526.97	1366.56
527.33	1379.75
527.68	1393.28
528.04	1406.82
528.40	1420.09
528.76	1433.51
529.12	1446.53
529.48	1460.02
529.84	1472.46
530.20	1485.38
530.56	1498.12
530.91	1511.58
531.27	1524.60
531.63	1537.46
531.99	1550.45
532.35	1562.66
532.71	1575.25
533.07	1588.38
533.42	1600.64
533.78	1612.84
534.14	1625.15
534.50	1636.66
534.86	1648.24
535.21	1659.23
535.57	1670.98
535.93	1682.23
536.29	1693.54
536.65	1705.01
537.00	1716.02
537.36	1727.51
537.72	1738.67
538.08	1750.22
538.44	1761.19
538.79	1772.50
539.15	1783.59
539.51	1794.42
539.87	1805.74
540.22	1816.62
540.58	1827.55
540.94	1838.51
541.29	1848.94
541.65	1858.79
542.01	1869.37
542.37	1879.53
542.72	1889.82
543.08	1899.52
543.44	1910.19
543.79	1919.54
544.15	1929.19
544.51	1939.37
544.87	1949.29
545.22	1958.57
545.58	1967.51
545.94	1976.44
546.29	1984.99
546.65	1993.27
547.01	2001.67
547.36	2009.47
547.72	2017.36
548.07	2025.06
548.43	2032.94
548.79	2040.94
549.14	2049.07
549.50	2057.78
549.86	2065.84
550.21	2073.39
550.57	2081.27
550.92	2088.11
551.28	2095.64
551.64	2102.97
551.99	2110.52
552.35	2117.88
552.70	2124.89
553.06	2131.60
553.41	2137.96
553.77	2144.51
554.13	2151.06
554.48	2158.17
554.84	2165.51
555.19	2171.94
555.55	2178.47
555.90	2184.92
556.26	2191.85
556.61	2198.07
556.97	2202.78
557.32	2208.51
557.68	2214.95
558.03	2220.68
558.39	2225.96
558.74	2232.10
559.10	2237.68
559.45	2243.16
559.81	2248.69
560.16	2254.22
560.52	2260.09
560.87	2266.54
561.23	2272.54
561.58	2279.16
561.94	2284.34
562.29	2288.96
562.64	2295.16
563.00	2300.80
563.35	2306.37
563.71	2312.14
564.06	2317.80
564.42	2323.82
564.77	2329.01
565.12	2334.33
565.48	2339.55
565.83	2345.23
566.19	2350.51
566.54	2355.95
566.89	2360.69
567.25	2365.28
567.60	2371.02
567.96	2376.22
568.31	2380.76
568.66	2385.09
569.02	2389.01
569.37	2392.76
569.72	2397.22
570.08	2400.64
570.43	2403.75
570.78	2406.91
571.14	2409.29
571.49	2412.39
571.84	2415.85
572.20	2418.78
572.55	2421.80
572.90	2423.94
573.26	2426.70
573.61	2429.31
573.96	2431.35
574.31	2433.32
574.67	2435.16
575.02	2435.89
575.37	2437.21
575.72	2437.86
576.08	2439.20
576.43	2439.41
576.78	2439.82
577.13	2441.27
577.49	2442.45
577.84	2443.47
578.19	2444.63
578.54	2445.16
578.90	2445.74
579.25	2445.66
579.60	2445.44
579.95	2444.43
580.30	2444.56
580.66	2443.75
581.01	2441.97
581.36	2439.53
581.71	2438.06
582.06	2436.72
582.42	2435.86
582.77	2433.61
583.12	2431.98
583.47	2430.44
583.82	2429.82
584.17	2428.56
584.53	2426.40
584.88	2424.21
585.23	2422.21
585.58	2420.00
585.93	2418.10
586.28	2415.93
586.63	2413.42
586.98	2411.15
587.34	2409.21
587.69	2406.68
588.04	2404.66
588.39	2403.18
588.74	2400.74
589.09	2397.86
589.44	2394.69
589.79	2391.99
590.14	2389.92
590.49	2387.10
590.84	2383.22
591.19	2379.86
591.54	2376.50
591.89	2372.43
592.25	2369.12
592.60	2364.93
592.95	2360.64
593.30	2356.21
593.65	2351.69
594.00	2347.15
594.35	2344.15
594.70	2339.39
595.05	2334.83
595.40	2329.07
595.75	2323.32
596.10	2319.65
596.45	2314.73
596.80	2310.09
597.15	2304.94
597.50	2299.08
597.85	2294.07
598.19	2288.80
598.54	2283.07
598.89	2277.82
599.24	2273.18
599.59	2267.00
599.94	2261.04
600.29	2254.96
600.64	2249.03
600.99	2242.19
601.34	2236.64
601.69	2229.43
602.04	2223.04
602.39	2216.35
602.74	2210.37
603.08	2204.73
603.43	2198.12
603.78	2191.48
604.13	2184.47
604.48	2177.06
604.83	2170.68
605.18	2164.35
605.53	2157.39
605.87	2150.33
606.22	2143.46
606.57	2135.43
606.92	2127.46
607.27	2120.43
607.62	2113.84
607.96	2106.88
608.31	2100.48
608.66	2092.64
609.01	2085.10
609.36	2077.97
609.70	2070.19
610.05	2062.27
610.40	2053.89
610.75	2045.54
611.10	2037.67
611.44	2028.64
611.79	2019.85
612.14	2009.92
612.49	1999.22
612.83	1989.92
613.18	1980.55
613.53	1971.21
613.88	1961.66
614.22	1952.82
614.57	1942.94
614.92	1932.25
615.27	1921.91
615.61	1911.67
615.96	1902.00
616.31	1892.34
616.65	1882.85
617.00	1872.97
617.35	1863.38
617.70	1853.55
618.04	1843.43
618.39	1833.11
618.74	1823.46
619.08	1813.84
619.43	1805.11
619.78	1796.89
620.12	1788.20
620.47	1778.60
620.82	1768.28
621.16	1758.43
621.51	1748.52
621.85	1738.66
622.20	1728.26
622.55	1717.67
622.89	1707.78
623.24	1698.05
623.59	1688.28
623.93	1678.08
624.28	1668.37
624.62	1658.16
624.97	1647.85
625.32	1638.08
625.66	1629.25
626.01	1620.53
626.35	1611.10
626.70	1601.09
627.04	1590.96
627.39	1580.80
627.73	1571.50
628.08	1562.48
628.43	1552.88
628.77	1543.73
629.12	1534.97
629.46	1527.05
629.81	1518.78
630.15	1509.15
630.50	1499.24
630.84	1488.60
631.19	1478.72
631.53	1469.33
631.88	1459.21
632.22	1449.21
632.57	1439.82
632.91	1429.61
633.26	1419.65
633.60	1410.07
633.95	1400.64
634.29	1391.12
634.64	1381.68
634.98	1371.65
635.32	1362.25
635.67	1353.70
636.01	1344.43
636.36	1334.42
636.70	1325.03
637.05	1315.59
637.39	1306.72
637.73	1298.12
638.08	1290.61
638.42	1282.42
638.77	1273.66
639.11	1265.37
639.45	1257.49
639.80	1248.87
640.14	1240.25
640.49	1231.36
640.83	1222.49
641.17	1214.37
641.52	1206.22
641.86	1197.67
642.20	1189.82
642.55	1181.18
642.89	1172.25
643.23	1163.58
643.58	1155.45
643.92	1146.25
644.26	1137.41
644.61	1128.90
644.95	1120.05
645.29	1110.75
645.64	1101.46
645.98	1092.92
646.32	1084.96
646.66	1076.41
647.01	1068.05
647.35	1059.74
647.69	1051.44
648.04	1043.14
648.38	1034.17
648.72	1025.34
649.06	1016.86
649.41	1008.52
649.75	1000.59
650.09	992.76
650.43	984.52
650.78	976.22
651.12	968.44
651.46	961.03
651.80	953.77
652.14	946.36
652.49	938.87
652.83	931.47
653.17	923.68
653.51	916.02
653.85	908.80
654.20	901.50
654.54	894.01
654.88	886.69
655.22	879.34
655.56	872.35
655.90	865.46
656.25	858.76
656.59	851.83
656.93	844.78
657.27	837.56
657.61	830.64
657.95	824.44
658.29	818.56
658.64	812.36
658.98	805.80
659.32	799.22
659.66	792.88
660.00	786.49
660.34	780.37
660.68	774.23
661.02	767.78
661.36	761.76
661.70	755.92
662.05	750.18
662.39	744.73
662.73	739.22
663.07	733.74
663.41	728.06
663.75	722.34
664.09	716.62
664.43	711.13
664.77	705.77
665.11	699.97
665.45	693.93
665.79	688.09
666.13	682.32
666.47	676.81
666.81	671.24
667.15	665.82
667.49	660.63
667.83	655.21
668.17	649.92
668.51	644.73
668.85	639.78
669.19	634.90
669.53	629.80
669.87	624.66
670.21	619.90
670.55	615.07
670.89	610.61
671.23	606.20
671.57	601.80
671.91	597.46
672.25	593.23
672.58	589.17
672.92	585.07
673.26	581.10
673.60	577.18
673.94	573.38
674.28	569.73
674.62	565.87
674.96	562.17
675.30	558.58
675.64	554.90
675.97	551.27
676.31	547.59
676.65	543.96
676.99	540.51
677.33	536.61
677.67	532.94
678.01	528.95
678.34	525.20
678.68	521.64
679.02	517.96
679.36	514.24
679.70	510.45
680.04	506.85
680.37	503.35
680.71	499.94
681.05	496.74
681.39	493.43
681.73	490.25
682.06	487.19
682.40	484.10
682.74	480.84
683.08	477.56
683.42	474.33
683.75	471.25
684.09	468.15
684.43	465.32
684.77	462.35
685.10	459.53
685.44	456.63
685.78	453.66
686.12	450.84
686.45	448.12
686.79	445.43
687.13	442.86
687.46	440.21
687.80	437.57
688.14	434.68
688.48	432.00
688.81	429.29
689.15	426.58
689.49	423.99
689.82	421.41
690.16	418.79
690.50	416.27
690.83	413.78
691.17	411.18
691.51	408.69
691.84	406.42
692.18	404.14
692.52	401.88
692.85	399.72
693.19	397.53
693.52	395.32
693.86	393.06
694.20	390.84
694.53	388.67
694.87	386.39
695.21	384.20
695.54	382.04
695.88	379.83
696.21	377.63
696.55	375.41
696.88	373.34
697.22	371.35
697.56	369.44
697.89	367.55
698.23	365.80
698.56	363.95
698.90	362.17
699.23	360.26
699.57	358.33
699.90	356.40
700.24	354.57
700.58	352.75
700.91	351.06
701.25	349.48
701.58	347.82
701.92	346.26
702.25	344.68
702.59	343.02
702.92	341.46
703.26	339.87
703.59	338.38
703.93	337.08
704.26	335.57
704.60	334.02
704.93	332.50
705.26	330.97
705.60	329.47
705.93	327.92
706.27	326.55
706.60	325.30
706.94	324.05
707.27	322.61
707.61	321.28
707.94	319.91
708.27	318.35
708.61	316.89
708.94	315.43
709.28	314.14
709.61	312.85
709.94	311.65
710.28	310.43
710.61	309.22
710.95	307.76
711.28	306.68
711.61	305.47
711.95	304.31
712.28	303.12
712.61	301.94
712.95	300.84
713.28	299.82
713.61	298.66
713.95	297.51
714.28	296.49
714.61	295.39
714.95	294.35
715.28	293.31
715.61	292.33
715.95	291.37
716.28	290.35
716.61	289.39
716.95	288.38
717.28	287.47
717.61	286.47
717.94	285.58
718.28	284.54
718.61	283.66
718.94	282.73
719.27	281.85
719.61	281.01
719.94	280.15
720.27	279.14
720.60	278.26
720.94	277.44
721.27	276.69
721.60	276.00
721.93	275.32
722.27	274.68
722.60	273.98
722.93	273.29
723.26	272.61
723.59	271.91
723.93	271.25
724.26	270.55
724.59	269.91
724.92	269.26
725.25	268.75
725.59	268.16
725.92	267.62
726.25	267.05
726.58	266.46
726.91	265.85
727.24	265.31
727.57	264.76
727.91	264.18
728.24	263.61
728.57	263.00
728.90	262.42
729.23	261.77
729.56	261.27
729.89	260.72
730.22	260.16
730.55	259.59
730.89	259.04
731.22	258.51
731.55	257.98
731.88	257.47
732.21	256.89
732.54	256.35
732.87	255.81
733.20	255.29
733.53	254.81
733.86	254.33
734.19	253.84
734.52	253.39
734.85	253.08
735.18	252.61
735.51	252.22
735.84	251.77
736.17	251.41
736.50	250.88
736.83	250.70
737.16	250.33
737.49	249.94
737.82	249.52
738.15	249.14
738.48	248.76
738.81	248.36
739.14	247.91
739.47	247.51
739.80	247.12
740.13	246.79
740.46	246.39
740.79	246.01
741.12	245.61
741.45	245.24
741.78	244.77
742.11	244.47
742.44	244.08
742.77	243.79
743.10	243.42
743.43	243.07
743.75	242.49
744.08	242.41
744.41	242.03
744.74	241.69
745.07	241.31
745.40	241.03
745.73	240.78
746.06	240.46
746.39	240.16
746.71	239.82
747.04	239.49
747.37	239.17
747.70	238.89
748.03	238.61
748.36	238.33
748.68	237.99
749.01	237.66
749.34	237.35
749.67	237.01
750.00	236.76
750.33	236.66
750.65	236.37
750.98	235.82
751.31	235.59
751.64	235.35
751.97	235.20
752.29	234.91
752.62	234.56
752.95	234.33
753.28	234.03
753.60	233.79
753.93	233.58
754.26	233.32
754.59	233.05
754.91	232.79
755.24	232.52
755.57	232.28
755.90	232.04
756.22	231.79
756.55	231.54
756.88	231.24
757.20	230.88
757.53	230.63
757.86	230.42
758.19	230.22
758.51	230.01
758.84	229.70
759.17	229.49
759.49	229.31
759.82	229.24
760.15	229.08
760.47	228.90
760.80	228.65
761.13	228.53
761.45	228.32
761.78	228.18
762.11	228.01
762.43	227.84
762.76	227.63
763.08	227.48
763.41	227.32
763.74	227.18
764.06	227.02
764.39	226.87
764.71	226.71
765.04	226.56
765.37	226.40
765.69	226.25
766.02	226.07
766.34	225.94
766.67	225.70
767.00	225.61
767.32	225.58
767.65	225.57
767.97	225.40
768.30	225.30
768.62	225.15
768.95	225.00
769.27	224.89
769.60	224.83
769.92	224.70
770.25	224.56
770.57	224.42
770.90	224.30
771.22	224.15
771.55	224.03
771.87	223.93
772.20	223.80
772.52	223.88
772.85	224.03
773.17	223.93
773.50	223.80
773.82	223.66
774.15	223.44
774.47	223.18
774.80	223.05
775.12	222.92
775.45	222.82
775.77	222.74
776.09	222.64
776.42	222.52
776.74	222.47
777.07	222.38
777.39	222.30
777.72	222.20
778.04	222.16
778.36	222.04
778.69	221.94
779.01	221.88
779.33	221.62
779.66	221.32
779.98	221.21
780.31	221.14
780.63	221.15
780.95	221.10
781.28	221.05
781.60	220.96
781.92	220.92
782.25	220.86
782.57	220.79
782.89	220.71
783.22	220.64
783.54	220.54
783.86	220.49
784.19	220.45
784.51	220.44
784.83	220.36
785.16	220.31
785.48	220.25
785.80	220.18
786.12	220.15
786.45	220.11
786.77	220.10
787.09	220.03
787.42	219.89
787.74	219.84
788.06	219.80
788.38	219.73
788.71	219.66
789.03	219.61
789.35	219.57
789.67	219.53
789.99	219.50
790.32	219.42
790.64	219.38
790.96	219.49
791.28	219.35
791.61	219.29
791.93	219.26
792.25	219.20
792.57	219.33
792.89	219.22
793.21	219.17
793.54	219.08
793.86	219.03
794.18	218.99
794.50	218.91
794.82	218.87
795.14	218.86
795.47	218.84
795.79	218.79
796.11	218.72
796.43	218.65
796.75	218.57
797.07	218.54
797.39	218.51
797.71	218.31
798.04	218.31
798.36	218.25
798.68	218.20
799.00	218.19
799.32	218.03
799.64	218.06
799.96	218.01
800.28	218.00
800.60	217.95
800.92	217.93
801.24	217.89
801.56	217.87
801.89	217.82
802.21	217.77
802.53	217.68
802.85	217.70
803.17	217.76
803.49	217.73
803.81	217.70
804.13	217.64
804.45	217.61
804.77	217.61
805.09	217.64
805.41	217.60
805.73	217.51
806.05	217.39
806.37	217.33
806.69	217.28
807.01	217.23
807.33	217.21
807.65	217.11
807.97	217.20
808.28	217.14
808.60	217.13
808.92	217.10
809.24	217.22
809.56	217.15
809.88	217.06
810.20	217.00
810.52	217.01
810.84	216.97
811.16	216.91
811.48	216.84
811.80	216.85
812.12	216.81
812.43	216.85
812.75	216.86
813.07	216.83
813.39	216.82
813.71	216.77
814.03	216.74
814.35	216.76
814.67	216.61
814.98	216.58
815.30	216.54
815.62	216.49
815.94	216.36
816.26	216.36
816.58	216.27
816.89	216.29
817.21	216.21
817.53	216.19
817.85	216.19
818.17	216.19
818.48	216.10
818.80	216.15
819.12	216.09
819.44	216.04
819.76	216.00
820.07	215.98
820.39	215.97
820.71	216.00
821.03	215.95
821.34	215.94
821.66	215.96
821.98	215.97
822.30	215.95
822.61	216.03
822.93	215.99
823.25	216.00
823.57	215.97
823.88	216.01
824.20	216.00
824.52	216.00
824.83	215.96
825.15	215.91
825.47	215.83
825.79	215.83
826.10	215.79
826.42	215.76
826.74	215.79
827.05	215.75
827.37	215.71
827.69	215.69
828.00	215.66
828.32	215.64
828.64	215.60
828.95	215.71
829.27	215.66
829.58	215.65
829.90	215.68
830.22	215.67
830.53	215.62
830.85	215.60
831.17	215.55
831.48	215.54
831.80	215.57
832.11	215.57
832.43	215.50
832.75	215.51
833.06	215.63
833.38	215.56
833.69	215.56
834.01	215.59
834.32	215.57
834.64	215.56
834.96	215.55
835.27	215.58
835.59	215.50
835.90	215.42
836.22	215.41
836.53	215.33
836.85	215.29
837.16	215.48
837.48	215.46
837.79	215.55
838.11	215.54
838.42	215.52
838.74	215.53
839.05	215.55
839.37	215.55
839.68	215.42
840.00	215.44
840.31	215.45
840.63	215.40
840.94	215.37
841.26	215.34
841.57	215.31
841.88	215.32
842.20	215.28
842.51	215.26
842.83	215.22
843.14	215.43
843.46	215.46
843.77	215.34
844.08	215.30
844.40	215.23
844.71	215.21
845.03	215.21
845.34	215.19
845.65	215.17
845.97	215.17
846.28	215.20
846.60	215.17
846.91	215.14
847.22	215.13
847.54	215.18
847.85	215.21
848.16	215.17
848.48	215.13
848.79	215.18
849.10	215.20
849.42	215.23
849.73	214.98
850.04	214.95
850.36	214.88
850.67	214.95
850.98	214.90
851.30	214.90
851.61	214.90
851.92	214.88
852.23	214.93
852.55	214.91
852.86	214.88
853.17	214.92
853.49	214.96
853.80	214.99
854.11	215.03
854.42	215.07
854.74	215.08
855.05	215.08
855.36	214.99
855.67	214.98
855.99	214.99
856.30	215.29
856.61	215.26
856.92	215.25
857.23	215.26
857.55	215.27
857.86	215.25
858.17	215.25
858.48	215.24
858.79	215.22
859.11	215.23
859.42	215.25
859.73	215.20
860.04	215.17
860.35	215.11
860.66	215.04
860.98	215.02
861.29	215.03
861.60	215.01
861.91	215.06
862.22	215.04
862.53	215.03
862.84	214.77
863.16	214.84
863.47	214.81
863.78	214.78
864.09	214.81
864.40	214.83
864.71	214.84
865.02	214.83
865.33	214.79
865.64	214.78
865.95	214.75
866.27	214.87
866.58	214.86
866.89	214.91
867.20	214.86
867.51	214.81
867.82	214.81
868.13	214.85
868.44	214.79
868.75	214.83
869.06	214.83
869.37	214.85
869.68	214.78
869.99	214.80
870.30	214.77
870.61	214.77
870.92	214.74
871.23	214.73
871.54	214.76
871.85	214.81
872.16	214.80
872.47	214.80
872.78	214.71
873.09	214.74
873.40	214.67
873.71	214.71
874.02	214.70
874.33	214.67
874.64	214.64
874.95	214.70
875.26	214.65
875.56	214.65
875.87	214.61
876.18	214.63
876.49	214.82
876.80	214.80
877.11	214.75
877.42	214.75
877.73	214.73
878.04	214.68
878.35	214.68
878.66	214.68
878.96	214.65
879.27	214.60
879.58	214.58
879.89	214.59
880.20	214.66
880.51	214.68
880.82	214.69
881.12	214.68
881.43	214.63
881.74	214.58
882.05	214.55
882.36	214.56
882.67	214.58
882.97	214.36
883.28	214.36
883.59	214.38
883.90	214.42
884.21	214.43
884.51	214.42
884.82	214.39
885.13	214.39
885.44	214.40
885.74	214.42
886.05	214.42
886.36	214.40
886.67	214.34
886.98	214.42
887.28	214.43
887.59	214.44
887.90	214.43
888.20	214.48
888.51	214.54
888.82	214.54
889.13	214.52
889.43	214.70
889.74	214.69
890.05	214.65
890.35	214.59
890.66	214.55
890.97	214.56
891.28	214.55
891.58	214.57
891.89	214.56
892.20	214.52
892.50	214.48
892.81	214.48
893.12	214.48
893.42	214.40
893.73	214.40
894.04	214.43
894.34	214.43
894.65	214.40
894.95	214.36
895.26	214.34
895.57	214.46
895.87	214.25
896.18	214.29
896.48	214.33
896.79	214.35
897.10	214.38
897.40	214.37
897.71	214.39
898.01	214.34
898.32	214.37
898.63	214.39
898.93	214.40
899.24	214.38
899.54	214.36
899.85	214.33
900.15	214.35
900.46	214.32
900.76	214.35
901.07	214.36
901.38	214.35
901.68	214.37
901.99	214.26
902.29	214.26
902.60	214.24
902.90	214.24
903.21	214.23
903.51	214.20
903.82	214.24
904.12	214.24
904.43	214.30
904.73	214.28
905.03	214.29
905.34	214.50
905.64	214.51
905.95	214.50
906.25	214.50
906.56	214.48
906.86	214.47
907.17	214.40
907.47	214.41
907.77	214.40
908.08	214.36
908.38	214.37
908.69	214.42
908.99	214.46
909.30	214.47
909.60	214.47
909.90	214.51
910.21	214.45
910.51	214.43
910.81	214.43
911.12	214.45
911.42	214.48
911.73	214.25
912.03	214.26
912.33	214.32
912.64	214.33
912.94	214.31
913.24	214.29
913.55	214.29
913.85	214.27
914.15	214.31
914.46	214.33
914.76	214.29
915.06	214.27
915.37	214.25
915.67	214.23
915.97	214.26
916.27	214.20
916.58	214.22
916.88	214.21
917.18	214.17
917.49	214.30
917.79	214.30
918.09	214.35
918.39	214.40
918.70	214.39
919.00	214.37
919.30	214.44
919.60	214.44
919.91	214.42
920.21	214.43
920.51	214.38
920.81	214.38
921.12	214.43
921.42	214.37
921.72	214.36
922.02	214.36
922.32	214.36
922.63	214.39
922.93	214.49
923.23	214.48
923.53	214.44
923.83	214.30
924.13	214.29
924.44	214.30
924.74	214.34
925.04	214.39
925.34	214.39
925.64	214.32
925.94	214.31
926.24	214.45
926.55	214.43
926.85	214.48
927.15	214.48
927.45	214.47
927.75	214.51
928.05	214.52
928.35	214.49
928.65	214.50
928.95	214.49
929.26	214.41
929.56	214.43
929.86	214.50
930.16	214.51
930.46	214.51
930.76	214.50
931.06	214.38
931.36	214.27
931.66	214.32
931.96	214.35
932.26	214.38
932.56	214.33
932.86	214.35
933.16	214.34
933.46	214.31
933.76	214.27
934.06	214.33
934.36	214.44
934.66	214.45
934.96	214.45
935.26	214.48
935.56	214.50
935.86	214.46
936.16	214.42
936.46	214.37
936.76	214.37
937.06	214.33
937.36	214.38
937.66	214.41
937.96	214.39
938.26	214.33
938.56	214.31
938.86	214.28
939.16	214.32
939.46	214.34
939.76	214.35
940.06	214.37
940.35	214.35
940.65	214.20
940.95	214.20
941.25	214.14
941.55	214.10
941.85	214.09
942.15	214.13
942.45	214.18
942.75	214.17
943.04	214.18
943.34	214.23
943.64	214.20
943.94	214.16
944.24	214.13
944.54	214.16
944.84	214.13
945.13	214.12
945.43	214.09
945.73	214.08
946.03	214.07
946.33	214.02
946.62	213.97
946.92	213.97
947.22	213.99
947.52	214.00
947.82	214.03
948.11	214.02
948.41	213.97
948.71	213.92
949.01	213.94
949.31	213.91
949.60	213.89
949.90	213.93
950.20	213.91
950.50	213.94
950.79	213.93
951.09	214.00
951.39	213.97
951.69	213.92
951.98	213.94
952.28	213.95
952.58	213.98
952.87	213.99
953.17	214.02
953.47	214.00
953.76	214.03
954.06	213.97
954.36	213.95
954.66	213.97
954.95	214.02
955.25	214.02
955.55	214.04
955.84	213.99
956.14	213.98
956.44	214.01
956.73	213.99
957.03	214.02
957.32	214.02
957.62	214.05
957.92	214.11
958.21	214.11
958.51	214.33
958.81	214.33
959.10	214.34
959.40	214.37
959.69	214.37
959.99	214.40
960.29	214.43
960.58	214.40
960.88	214.47
961.17	214.43
961.47	214.44
961.76	214.42
962.06	214.48
962.36	214.47
962.65	214.50
962.95	214.51
963.24	214.45
963.54	214.43
963.83	214.41
964.13	214.43
964.42	214.37
964.72	214.24
965.01	214.26
965.31	214.30
965.60	214.22
965.90	214.36
966.19	214.31
966.49	214.30
966.78	214.31
967.08	214.30
967.37	214.30
967.67	214.25
967.96	214.29
968.26	214.27
968.55	214.32
968.85	214.27
969.14	214.28
969.43	214.29
969.73	214.25
970.02	214.25
970.32	214.22
970.61	214.21
970.91	214.14
971.20	214.09
971.49	214.05
971.79	214.12
972.08	213.96
972.38	213.97
972.67	213.99
972.96	214.03
973.26	213.96
973.55	214.06
973.85	214.07
974.14	214.09
974.43	214.13
974.73	214.08
975.02	214.08
975.31	214.07
975.61	214.07
975.90	214.08
976.19	214.05
976.49	214.06
976.78	214.05
977.07	214.04
977.37	214.05
977.66	214.06
977.95	213.99
978.24	214.02
978.54	214.05
978.83	214.01
979.12	213.98
979.42	214.00
979.71	213.95
980.00	213.95
980.29	213.94
980.59	213.87
980.88	213.93
981.17	213.93
981.46	213.91
981.76	213.92
982.05	213.97
982.34	213.98
982.63	213.97
982.93	213.97
983.22	214.04
983.51	214.08
983.80	214.08
984.09	214.15
984.39	214.14
984.68	214.13
984.97	214.15
985.26	214.14
985.55	214.13
985.85	214.10
986.14	214.12
986.43	214.11
986.72	214.13
987.01	214.05
987.30	214.04
987.59	214.07
987.89	214.05
988.18	214.02
988.47	214.00
988.76	213.98
989.05	213.98
989.34	213.93
989.63	213.98
989.92	213.96
990.22	213.94
990.51	213.92
990.80	213.88
991.09	213.90
991.38	213.93
991.67	213.94
991.96	213.95
992.25	213.97
992.54	213.95
992.83	213.92
993.12	213.93
993.41	213.97
993.70	214.03
993.99	214.08
994.28	214.06
994.58	214.11
994.87	214.10
995.16	214.11
995.45	214.12
995.74	214.00
996.03	214.04
996.32	214.07
996.61	214.12
996.90	214.13
997.19	214.11
997.48	214.12
997.77	214.06
998.06	214.04
998.34	214.02
998.63	214.03
998.92	214.04
999.21	214.08
999.50	214.08
999.79	214.02
1000.08	214.03
1000.37	214.08
1000.66	214.06
1000.95	214.11
1001.24	214.11
1001.53	214.13
1001.82	214.13
1002.11	214.09
1002.40	214.07
1002.68	214.10
1002.97	214.27
1003.26	214.25
1003.55	214.22
1003.84	214.28
1004.13	214.35
1004.42	214.32
1004.71	214.32
1004.99	214.31
1005.28	214.34
1005.57	214.31
1005.86	214.27
1006.15	214.23
1006.44	214.17
1006.72	214.21
1007.01	214.16
1007.30	214.17
1007.59	214.15
1007.88	214.15
1008.17	214.15
1008.45	214.16
1008.74	214.09
1009.03	213.95
1009.32	213.96
1009.60	213.93
1009.89	213.90
1010.18	213.80
1010.47	213.79
1010.76	213.79
1011.04	213.79
1011.33	213.79
1011.62	213.82
1011.91	213.84
1012.19	213.83
1012.48	213.87
1012.77	213.87
1013.05	213.96
1013.34	213.95
1013.63	213.91
1013.92	213.95
1014.20	213.96
1014.49	213.93
1014.78	213.94
1015.06	213.89
1015.35	213.90
1015.64	213.93
1015.92	213.96
1016.21	214.02
1016.50	214.00
1016.78	214.01
1017.07	214.04
1017.36	213.99
1017.64	213.95
1017.93	213.96
1018.22	213.98
1018.50	213.94
1018.79	213.93
1019.08	213.84
1019.36	213.84
1019.65	213.83
1019.93	213.86
1020.22	213.86
1020.51	213.96
1020.79	213.95
1021.08	213.94
1021.36	213.04
1021.65	214.11
1021.94	213.87
1022.22	213.71
1022.51	213.63
1022.79	214.55
1023.08	213.93
1023.36	215.89
1023.65	213.77
>>>>>End Processed Spectral Data<<<<<
