SpectraSuite Data File
++++++++++++++++++++++++++++++++++++
Date: Tue Jan 29 16:21:46 EST 2013
User: group
Dark Spectrum Present: No
Reference Spectrum Present: No
Number of Sampled Component Spectra: 1
Spectrometers: USB2E7196
Integration Time (usec): 65000 (USB2E7196)
Spectra Averaged: 100 (USB2E7196)
Boxcar Smoothing: 10 (USB2E7196)
Correct for Electrical Dark: No (USB2E7196)
Strobe/Lamp Enabled: No (USB2E7196)
Correct for Detector Non-linearity: No (USB2E7196)
Correct for Stray Light: No (USB2E7196)
Number of Pixels in Processed Spectrum: 2048
>>>>>Begin Processed Spectral Data<<<<<
339.09	0.00
339.48	202.09
339.86	203.81
340.24	204.92
340.63	205.94
341.01	211.42
341.39	208.41
341.78	211.10
342.16	212.03
342.54	212.30
342.93	201.33
343.31	211.53
343.69	212.06
344.07	212.51
344.46	212.95
344.84	213.37
345.22	213.53
345.60	213.82
345.99	214.01
346.37	214.13
346.75	214.24
347.13	214.30
347.52	214.36
347.90	214.49
348.28	214.53
348.66	214.64
349.05	214.61
349.43	214.67
349.81	214.74
350.19	214.77
350.57	214.88
350.96	214.98
351.34	215.07
351.72	215.16
352.10	215.25
352.48	215.31
352.87	215.35
353.25	215.43
353.63	215.47
354.01	215.54
354.39	215.66
354.77	215.75
355.15	215.89
355.54	215.97
355.92	215.99
356.30	216.10
356.68	216.30
357.06	216.38
357.44	216.44
357.82	216.54
358.20	216.68
358.58	216.73
358.97	216.82
359.35	216.91
359.73	217.03
360.11	217.14
360.49	217.22
360.87	217.31
361.25	217.36
361.63	217.51
362.01	217.55
362.39	217.53
362.77	217.58
363.15	217.61
363.53	217.68
363.91	217.68
364.29	217.70
364.67	217.52
365.05	217.55
365.43	217.61
365.81	217.63
366.19	217.72
366.57	217.81
366.95	217.80
367.33	217.77
367.71	217.79
368.09	217.82
368.47	217.85
368.85	217.83
369.23	217.88
369.61	217.80
369.99	217.87
370.37	217.93
370.75	218.01
371.13	217.93
371.51	217.83
371.89	217.85
372.27	217.84
372.65	217.85
373.03	217.79
373.41	217.73
373.78	217.67
374.16	217.54
374.54	217.42
374.92	217.36
375.30	217.34
375.68	217.25
376.06	217.20
376.44	217.16
376.82	217.11
377.19	217.06
377.57	217.04
377.95	216.89
378.33	216.81
378.71	216.63
379.09	216.65
379.47	216.62
379.84	216.54
380.22	216.46
380.60	216.37
380.98	216.32
381.36	216.29
381.73	216.24
382.11	216.22
382.49	216.20
382.87	216.13
383.25	216.07
383.62	216.25
384.00	216.17
384.38	216.12
384.76	216.13
385.13	216.17
385.51	216.12
385.89	216.10
386.27	216.07
386.64	216.07
387.02	216.01
387.40	216.00
387.78	216.02
388.15	215.98
388.53	215.95
388.91	215.93
389.29	215.88
389.66	215.88
390.04	215.83
390.42	215.85
390.79	215.84
391.17	215.82
391.55	215.59
391.92	215.59
392.30	215.59
392.68	215.56
393.05	215.53
393.43	215.52
393.81	215.53
394.18	215.51
394.56	215.54
394.94	215.56
395.31	215.52
395.69	215.57
396.06	215.65
396.44	215.67
396.82	215.68
397.19	215.82
397.57	215.84
397.95	215.87
398.32	215.85
398.70	215.94
399.07	216.01
399.45	216.07
399.82	216.11
400.20	216.13
400.58	216.19
400.95	216.16
401.33	216.23
401.70	216.45
402.08	216.53
402.45	216.63
402.83	216.76
403.20	216.88
403.58	216.97
403.95	217.10
404.33	217.27
404.71	217.43
405.08	217.65
405.46	217.81
405.83	218.01
406.21	218.19
406.58	218.40
406.96	218.63
407.33	218.89
407.70	219.21
408.08	219.67
408.45	219.98
408.83	220.38
409.20	220.72
409.58	220.98
409.95	221.44
410.33	221.91
410.70	222.35
411.08	222.90
411.45	223.45
411.82	224.02
412.20	224.68
412.57	225.51
412.95	226.07
413.32	226.90
413.69	227.74
414.07	228.65
414.44	229.63
414.82	230.64
415.19	231.83
415.56	232.98
415.94	234.14
416.31	235.53
416.68	236.93
417.06	238.54
417.43	240.05
417.81	241.76
418.18	243.54
418.55	245.46
418.93	247.47
419.30	249.55
419.67	251.78
420.04	254.02
420.42	256.37
420.79	259.19
421.16	261.96
421.54	264.87
421.91	267.85
422.28	270.92
422.66	274.16
423.03	277.38
423.40	280.72
423.77	284.30
424.15	287.96
424.52	291.73
424.89	295.88
425.26	299.94
425.64	303.79
426.01	308.00
426.38	312.39
426.75	316.89
427.13	321.57
427.50	326.48
427.87	331.64
428.24	336.81
428.61	341.72
428.99	347.16
429.36	353.07
429.73	358.89
430.10	364.73
430.47	370.74
430.85	376.96
431.22	383.57
431.59	390.61
431.96	397.32
432.33	404.76
432.70	411.89
433.08	420.37
433.45	428.34
433.82	436.31
434.19	445.14
434.56	453.75
434.93	462.00
435.30	470.19
435.68	479.21
436.05	488.09
436.42	496.86
436.79	504.94
437.16	513.64
437.53	522.84
437.90	531.82
438.27	540.66
438.64	549.76
439.01	558.19
439.38	565.70
439.75	572.99
440.13	581.33
440.50	589.21
440.87	595.51
441.24	602.10
441.61	609.29
441.98	614.61
442.35	620.90
442.72	627.18
443.09	633.13
443.46	636.85
443.83	639.35
444.20	641.61
444.57	644.69
444.94	646.07
445.31	647.45
445.68	648.88
446.05	649.54
446.42	648.76
446.79	647.87
447.16	646.72
447.53	645.97
447.90	642.61
448.27	639.30
448.64	634.72
449.01	631.41
449.37	625.62
449.74	619.95
450.11	613.06
450.48	605.73
450.85	598.37
451.22	591.92
451.59	585.85
451.96	580.06
452.33	572.28
452.70	565.30
453.07	556.90
453.43	548.29
453.80	540.04
454.17	532.12
454.54	524.62
454.91	516.56
455.28	508.64
455.65	501.35
456.02	494.00
456.38	487.75
456.75	479.98
457.12	473.46
457.49	467.07
457.86	460.99
458.23	455.71
458.59	449.81
458.96	443.97
459.33	438.71
459.70	433.39
460.07	429.26
460.43	424.41
460.80	419.90
461.17	416.03
461.54	411.93
461.91	408.03
462.27	403.92
462.64	400.52
463.01	396.77
463.38	393.10
463.74	389.43
464.11	386.23
464.48	383.42
464.85	380.33
465.21	377.88
465.58	375.26
465.95	372.12
466.32	369.57
466.68	366.92
467.05	364.32
467.42	361.79
467.78	359.11
468.15	356.58
468.52	354.71
468.88	352.21
469.25	350.00
469.62	348.15
469.98	346.30
470.35	344.51
470.72	342.82
471.08	341.08
471.45	339.61
471.82	338.08
472.18	336.43
472.55	335.30
472.92	333.97
473.28	332.81
473.65	331.66
474.02	330.57
474.38	329.73
474.75	328.99
475.11	328.16
475.48	327.56
475.85	327.06
476.21	326.57
476.58	326.27
476.94	326.05
477.31	325.77
477.67	325.51
478.04	325.44
478.41	325.46
478.77	325.66
479.14	325.63
479.50	325.79
479.87	326.13
480.23	326.41
480.60	326.62
480.96	326.92
481.33	327.57
481.69	328.15
482.06	328.72
482.42	329.27
482.79	329.89
483.15	330.75
483.52	331.74
483.88	332.65
484.25	333.58
484.61	334.64
484.98	335.74
485.34	337.03
485.71	338.38
486.07	339.80
486.44	341.07
486.80	342.67
487.17	344.33
487.53	346.14
487.90	348.06
488.26	350.15
488.62	352.30
488.99	354.33
489.35	356.53
489.72	358.89
490.08	361.40
490.44	364.00
490.81	366.70
491.17	369.41
491.54	372.41
491.90	375.46
492.26	378.67
492.63	382.07
492.99	385.58
493.36	389.24
493.72	393.13
494.08	397.18
494.45	401.38
494.81	405.78
495.17	410.21
495.54	414.97
495.90	419.82
496.26	424.71
496.63	429.94
496.99	435.34
497.35	440.87
497.72	446.65
498.08	452.62
498.44	458.75
498.80	465.15
499.17	471.67
499.53	478.39
499.89	485.35
500.26	492.36
500.62	499.52
500.98	506.95
501.34	514.48
501.71	522.34
502.07	530.18
502.43	538.23
502.79	546.45
503.16	554.82
503.52	563.37
503.88	572.15
504.24	581.15
504.60	590.28
504.97	599.58
505.33	608.96
505.69	618.91
506.05	628.83
506.41	638.76
506.78	648.90
507.14	659.21
507.50	669.75
507.86	680.50
508.22	691.32
508.59	702.10
508.95	713.23
509.31	724.53
509.67	736.06
510.03	747.50
510.39	759.30
510.75	771.27
511.12	783.29
511.48	795.61
511.84	807.98
512.20	820.38
512.56	833.19
512.92	846.07
513.28	858.75
513.64	871.60
514.00	884.59
514.37	897.66
514.73	910.82
515.09	923.85
515.45	936.91
515.81	949.99
516.17	963.49
516.53	976.78
516.89	989.93
517.25	1003.25
517.61	1016.91
517.97	1030.32
518.33	1043.58
518.69	1057.27
519.05	1071.06
519.41	1084.81
519.77	1098.77
520.13	1112.12
520.49	1125.38
520.85	1138.86
521.21	1152.22
521.57	1165.92
521.93	1179.09
522.29	1192.97
522.65	1206.67
523.01	1220.25
523.37	1233.49
523.73	1246.87
524.09	1260.12
524.45	1273.64
524.81	1287.25
525.17	1300.76
525.53	1314.05
525.89	1327.47
526.25	1340.60
526.61	1353.39
526.97	1366.51
527.33	1379.48
527.68	1392.93
528.04	1406.48
528.40	1419.61
528.76	1433.02
529.12	1445.99
529.48	1459.30
529.84	1471.60
530.20	1484.45
530.56	1497.14
530.91	1510.51
531.27	1523.35
531.63	1536.19
531.99	1548.94
532.35	1561.12
532.71	1573.46
533.07	1586.34
533.42	1598.51
533.78	1610.68
534.14	1622.86
534.50	1634.24
534.86	1645.83
535.21	1656.84
535.57	1668.30
535.93	1679.68
536.29	1690.90
536.65	1702.36
537.00	1713.37
537.36	1724.73
537.72	1735.76
538.08	1747.21
538.44	1758.28
538.79	1769.43
539.15	1780.29
539.51	1791.10
539.87	1802.44
540.22	1813.39
540.58	1824.37
540.94	1835.27
541.29	1845.63
541.65	1855.48
542.01	1865.77
542.37	1875.85
542.72	1886.05
543.08	1895.93
543.44	1906.59
543.79	1915.89
544.15	1925.43
544.51	1935.42
544.87	1945.37
545.22	1954.51
545.58	1963.36
545.94	1972.19
546.29	1980.61
546.65	1989.01
547.01	1997.38
547.36	2005.08
547.72	2012.85
548.07	2020.47
548.43	2028.30
548.79	2036.09
549.14	2044.21
549.50	2052.78
549.86	2060.66
550.21	2068.09
550.57	2075.74
550.92	2082.33
551.28	2089.87
551.64	2097.14
551.99	2104.64
552.35	2111.76
552.70	2118.72
553.06	2125.40
553.41	2131.64
553.77	2138.30
554.13	2144.72
554.48	2151.68
554.84	2158.74
555.19	2165.30
555.55	2171.80
555.90	2178.14
556.26	2185.01
556.61	2191.09
556.97	2196.01
557.32	2201.85
557.68	2208.31
558.03	2214.23
558.39	2219.59
558.74	2225.54
559.10	2231.17
559.45	2236.97
559.81	2242.62
560.16	2248.20
560.52	2254.23
560.87	2260.81
561.23	2266.83
561.58	2273.68
561.94	2279.08
562.29	2283.86
562.64	2290.07
563.00	2295.78
563.35	2301.49
563.71	2307.27
564.06	2312.86
564.42	2318.92
564.77	2324.17
565.12	2329.42
565.48	2334.60
565.83	2340.21
566.19	2345.83
566.54	2351.12
566.89	2355.66
567.25	2360.47
567.60	2366.27
567.96	2371.51
568.31	2376.04
568.66	2380.39
569.02	2384.32
569.37	2388.07
569.72	2392.74
570.08	2396.21
570.43	2399.46
570.78	2402.62
571.14	2405.26
571.49	2408.61
571.84	2412.13
572.20	2415.19
572.55	2418.20
572.90	2420.51
573.26	2423.47
573.61	2426.01
573.96	2428.26
574.31	2430.39
574.67	2432.20
575.02	2433.04
575.37	2434.47
575.72	2435.28
576.08	2436.73
576.43	2436.91
576.78	2437.43
577.13	2439.08
577.49	2440.30
577.84	2441.47
578.19	2442.91
578.54	2443.84
578.90	2444.94
579.25	2444.93
579.60	2444.94
579.95	2444.34
580.30	2444.56
580.66	2444.02
581.01	2442.31
581.36	2440.31
581.71	2438.87
582.06	2437.92
582.42	2437.18
582.77	2435.17
583.12	2433.69
583.47	2432.60
583.82	2432.06
584.17	2431.00
584.53	2428.90
584.88	2426.94
585.23	2425.04
585.58	2422.73
585.93	2420.58
586.28	2418.18
586.63	2415.90
586.98	2413.68
587.34	2411.81
587.69	2409.57
588.04	2407.49
588.39	2406.28
588.74	2403.73
589.09	2401.34
589.44	2398.21
589.79	2395.86
590.14	2393.94
590.49	2391.12
590.84	2387.27
591.19	2384.23
591.54	2381.02
591.89	2376.99
592.25	2373.84
592.60	2369.67
592.95	2365.48
593.30	2361.24
593.65	2356.82
594.00	2352.33
594.35	2349.26
594.70	2344.72
595.05	2340.09
595.40	2334.72
595.75	2328.92
596.10	2325.45
596.45	2320.50
596.80	2316.06
597.15	2310.78
597.50	2304.82
597.85	2300.00
598.19	2294.77
598.54	2288.98
598.89	2283.79
599.24	2279.23
599.59	2272.86
599.94	2267.14
600.29	2261.32
600.64	2255.59
600.99	2248.95
601.34	2243.42
601.69	2236.65
602.04	2230.07
602.39	2223.42
602.74	2217.27
603.08	2211.77
603.43	2205.11
603.78	2198.12
604.13	2190.96
604.48	2183.56
604.83	2177.40
605.18	2171.13
605.53	2164.06
605.87	2157.18
606.22	2150.37
606.57	2142.38
606.92	2134.55
607.27	2127.60
607.62	2121.01
607.96	2113.74
608.31	2107.33
608.66	2099.67
609.01	2091.99
609.36	2084.88
609.70	2077.15
610.05	2069.26
610.40	2060.81
610.75	2052.47
611.10	2044.82
611.44	2035.95
611.79	2027.30
612.14	2017.32
612.49	2006.56
612.83	1997.33
613.18	1987.83
613.53	1978.48
613.88	1968.97
614.22	1960.39
614.57	1950.43
614.92	1939.67
615.27	1929.54
615.61	1919.33
615.96	1909.52
616.31	1899.80
616.65	1890.34
617.00	1880.43
617.35	1870.82
617.70	1861.08
618.04	1850.87
618.39	1840.56
618.74	1830.59
619.08	1820.87
619.43	1812.04
619.78	1803.83
620.12	1794.97
620.47	1785.20
620.82	1774.72
621.16	1764.73
621.51	1754.67
621.85	1744.70
622.20	1734.26
622.55	1723.60
622.89	1713.42
623.24	1703.62
623.59	1693.66
623.93	1683.45
624.28	1673.66
624.62	1663.38
624.97	1652.96
625.32	1643.09
625.66	1634.17
626.01	1625.47
626.35	1615.97
626.70	1605.79
627.04	1595.41
627.39	1585.30
627.73	1575.96
628.08	1566.91
628.43	1557.16
628.77	1547.81
629.12	1538.82
629.46	1530.90
629.81	1522.41
630.15	1512.87
630.50	1503.00
630.84	1492.37
631.19	1482.37
631.53	1472.79
631.88	1462.48
632.22	1452.36
632.57	1442.97
632.91	1432.72
633.26	1422.76
633.60	1413.13
633.95	1403.70
634.29	1394.26
634.64	1384.69
634.98	1374.66
635.32	1365.23
635.67	1356.77
636.01	1347.41
636.36	1337.57
636.70	1327.84
637.05	1318.34
637.39	1309.24
637.73	1300.46
638.08	1292.94
638.42	1284.71
638.77	1275.84
639.11	1267.56
639.45	1259.57
639.80	1250.93
640.14	1242.07
640.49	1233.03
640.83	1224.05
641.17	1215.82
641.52	1207.50
641.86	1198.93
642.20	1190.93
642.55	1182.23
642.89	1173.18
643.23	1164.33
643.58	1156.02
643.92	1146.94
644.26	1138.18
644.61	1129.71
644.95	1120.79
645.29	1111.41
645.64	1102.05
645.98	1093.53
646.32	1085.49
646.66	1076.87
647.01	1068.38
647.35	1060.10
647.69	1051.70
648.04	1043.35
648.38	1034.41
648.72	1025.41
649.06	1016.79
649.41	1008.53
649.75	1000.44
650.09	992.51
650.43	984.42
650.78	976.01
651.12	968.26
651.46	960.69
651.80	953.29
652.14	945.91
652.49	938.34
652.83	930.95
653.17	923.20
653.51	915.41
653.85	908.12
654.20	900.66
654.54	893.11
654.88	885.71
655.22	878.37
655.56	871.24
655.90	864.37
656.25	857.63
656.59	850.58
656.93	843.41
657.27	836.22
657.61	829.16
657.95	823.04
658.29	816.99
658.64	810.77
658.98	804.24
659.32	797.62
659.66	791.20
660.00	784.73
660.34	778.57
660.68	772.46
661.02	766.02
661.36	760.03
661.70	754.08
662.05	748.42
662.39	742.91
662.73	737.42
663.07	732.06
663.41	726.39
663.75	720.57
664.09	714.84
664.43	709.30
664.77	703.89
665.11	697.98
665.45	692.01
665.79	686.13
666.13	680.38
666.47	674.78
666.81	669.31
667.15	663.88
667.49	658.55
667.83	653.17
668.17	647.97
668.51	642.83
668.85	637.97
669.19	632.94
669.53	627.88
669.87	622.68
670.21	617.81
670.55	613.01
670.89	608.56
671.23	604.26
671.57	599.85
671.91	595.52
672.25	591.40
672.58	587.21
672.92	583.19
673.26	579.20
673.60	575.32
673.94	571.47
674.28	567.77
674.62	564.03
674.96	560.23
675.30	556.63
675.64	552.96
675.97	549.28
676.31	545.63
676.65	541.98
676.99	538.50
677.33	534.60
677.67	530.87
678.01	526.98
678.34	523.28
678.68	519.72
679.02	516.08
679.36	512.28
679.70	508.63
680.04	505.03
680.37	501.52
680.71	498.13
681.05	494.88
681.39	491.63
681.73	488.40
682.06	485.38
682.40	482.27
682.74	479.03
683.08	475.77
683.42	472.57
683.75	469.54
684.09	466.56
684.43	463.77
684.77	460.85
685.10	458.03
685.44	455.13
685.78	452.15
686.12	449.34
686.45	446.59
686.79	443.82
687.13	441.24
687.46	438.63
687.80	435.96
688.14	433.12
688.48	430.50
688.81	427.86
689.15	425.22
689.49	422.56
689.82	419.99
690.16	417.39
690.50	414.91
690.83	412.38
691.17	409.81
691.51	407.32
691.84	405.05
692.18	402.83
692.52	400.54
692.85	398.35
693.19	396.19
693.52	394.05
693.86	391.86
694.20	389.61
694.53	387.47
694.87	385.23
695.21	383.06
695.54	380.83
695.88	378.63
696.21	376.41
696.55	374.25
696.88	372.16
697.22	370.20
697.56	368.31
697.89	366.43
698.23	364.66
698.56	362.85
698.90	361.03
699.23	359.06
699.57	357.18
699.90	355.39
700.24	353.56
700.58	351.74
700.91	350.04
701.25	348.49
701.58	346.85
701.92	345.24
702.25	343.64
702.59	342.00
702.92	340.46
703.26	338.87
703.59	337.43
703.93	336.16
704.26	334.68
704.60	333.16
704.93	331.59
705.26	330.09
705.60	328.63
705.93	327.09
706.27	325.77
706.60	324.51
706.94	323.26
707.27	321.83
707.61	320.49
707.94	319.15
708.27	317.66
708.61	316.20
708.94	314.84
709.28	313.56
709.61	312.30
709.94	311.06
710.28	309.86
710.61	308.66
710.95	307.18
711.28	306.08
711.61	304.88
711.95	303.77
712.28	302.56
712.61	301.37
712.95	300.35
713.28	299.29
713.61	298.11
713.95	296.94
714.28	295.94
714.61	294.88
714.95	293.87
715.28	292.81
715.61	291.76
715.95	290.81
716.28	289.82
716.61	288.84
716.95	287.85
717.28	286.91
717.61	285.96
717.94	285.11
718.28	284.10
718.61	283.21
718.94	282.30
719.27	281.46
719.61	280.63
719.94	279.74
720.27	278.77
720.60	277.89
720.94	277.06
721.27	276.31
721.60	275.62
721.93	274.89
722.27	274.27
722.60	273.62
722.93	272.90
723.26	272.24
723.59	271.59
723.93	270.96
724.26	270.34
724.59	269.66
724.92	269.07
725.25	268.52
725.59	267.97
725.92	267.43
726.25	266.86
726.58	266.28
726.91	265.68
727.24	265.17
727.57	264.61
727.91	264.01
728.24	263.42
728.57	262.79
728.90	262.21
729.23	261.58
729.56	261.15
729.89	260.63
730.22	260.08
730.55	259.52
730.89	258.95
731.22	258.42
731.55	257.92
731.88	257.37
732.21	256.82
732.54	256.25
732.87	255.73
733.20	255.22
733.53	254.75
733.86	254.32
734.19	253.79
734.52	253.42
734.85	253.17
735.18	252.70
735.51	252.34
735.84	251.91
736.17	251.50
736.50	250.95
736.83	250.76
737.16	250.38
737.49	249.98
737.82	249.58
738.15	249.24
738.48	248.84
738.81	248.44
739.14	248.02
739.47	247.68
739.80	247.29
740.13	246.94
740.46	246.52
740.79	246.13
741.12	245.79
741.45	245.39
741.78	244.90
742.11	244.62
742.44	244.24
742.77	243.95
743.10	243.61
743.43	243.27
743.75	242.69
744.08	242.59
744.41	242.24
744.74	241.89
745.07	241.47
745.40	241.20
745.73	240.96
746.06	240.64
746.39	240.34
746.71	240.02
747.04	239.68
747.37	239.35
747.70	239.06
748.03	238.75
748.36	238.50
748.68	238.18
749.01	237.79
749.34	237.53
749.67	237.19
750.00	236.91
750.33	236.76
750.65	236.54
750.98	236.01
751.31	235.74
751.64	235.50
751.97	235.39
752.29	235.11
752.62	234.76
752.95	234.51
753.28	234.23
753.60	233.97
753.93	233.77
754.26	233.55
754.59	233.26
754.91	233.02
755.24	232.75
755.57	232.54
755.90	232.35
756.22	232.12
756.55	231.86
756.88	231.60
757.20	231.28
757.53	231.02
757.86	230.81
758.19	230.63
758.51	230.42
758.84	230.12
759.17	229.93
759.49	229.75
759.82	229.66
760.15	229.48
760.47	229.32
760.80	229.06
761.13	228.92
761.45	228.72
761.78	228.53
762.11	228.38
762.43	228.20
762.76	228.01
763.08	227.80
763.41	227.68
763.74	227.55
764.06	227.38
764.39	227.16
764.71	227.00
765.04	226.85
765.37	226.70
765.69	226.55
766.02	226.39
766.34	226.26
766.67	226.03
767.00	225.95
767.32	225.95
767.65	225.94
767.97	225.80
768.30	225.69
768.62	225.57
768.95	225.40
769.27	225.26
769.60	225.18
769.92	225.06
770.25	224.87
770.57	224.74
770.90	224.64
771.22	224.54
771.55	224.43
771.87	224.33
772.20	224.23
772.52	224.32
772.85	224.47
773.17	224.34
773.50	224.21
773.82	224.07
774.15	223.85
774.47	223.65
774.80	223.51
775.12	223.43
775.45	223.32
775.77	223.24
776.09	223.18
776.42	223.09
776.74	223.04
777.07	222.97
777.39	222.90
777.72	222.80
778.04	222.78
778.36	222.73
778.69	222.64
779.01	222.54
779.33	222.25
779.66	221.93
779.98	221.86
780.31	221.79
780.63	221.80
780.95	221.74
781.28	221.66
781.60	221.59
781.92	221.52
782.25	221.46
782.57	221.41
782.89	221.34
783.22	221.26
783.54	221.17
783.86	221.13
784.19	221.04
784.51	221.02
784.83	220.91
785.16	220.81
785.48	220.74
785.80	220.71
786.12	220.65
786.45	220.61
786.77	220.54
787.09	220.50
787.42	220.36
787.74	220.32
788.06	220.28
788.38	220.23
788.71	220.14
789.03	220.09
789.35	220.06
789.67	219.98
789.99	219.93
790.32	219.87
790.64	219.85
790.96	219.99
791.28	219.90
791.61	219.85
791.93	219.82
792.25	219.78
792.57	219.84
792.89	219.77
793.21	219.74
793.54	219.70
793.86	219.63
794.18	219.60
794.50	219.51
794.82	219.46
795.14	219.43
795.47	219.41
795.79	219.38
796.11	219.28
796.43	219.19
796.75	219.16
797.07	219.13
797.39	219.06
797.71	218.87
798.04	218.83
798.36	218.80
798.68	218.78
799.00	218.81
799.32	218.67
799.64	218.67
799.96	218.61
800.28	218.63
800.60	218.57
800.92	218.55
801.24	218.48
801.56	218.44
801.89	218.39
802.21	218.39
802.53	218.30
802.85	218.32
803.17	218.39
803.49	218.32
803.81	218.26
804.13	218.20
804.45	218.14
804.77	218.10
805.09	218.07
805.41	217.98
805.73	217.87
806.05	217.78
806.37	217.75
806.69	217.71
807.01	217.61
807.33	217.61
807.65	217.49
807.97	217.55
808.28	217.51
808.60	217.48
808.92	217.45
809.24	217.57
809.56	217.49
809.88	217.40
810.20	217.39
810.52	217.41
810.84	217.38
811.16	217.36
811.48	217.28
811.80	217.29
812.12	217.29
812.43	217.30
812.75	217.29
813.07	217.22
813.39	217.18
813.71	217.16
814.03	217.11
814.35	217.12
814.67	217.02
814.98	217.00
815.30	216.95
815.62	216.88
815.94	216.71
816.26	216.71
816.58	216.65
816.89	216.66
817.21	216.57
817.53	216.55
817.85	216.52
818.17	216.54
818.48	216.46
818.80	216.43
819.12	216.37
819.44	216.32
819.76	216.27
820.07	216.31
820.39	216.28
820.71	216.28
821.03	216.26
821.34	216.20
821.66	216.22
821.98	216.27
822.30	216.26
822.61	216.37
822.93	216.32
823.25	216.32
823.57	216.27
823.88	216.32
824.20	216.31
824.52	216.31
824.83	216.26
825.15	216.24
825.47	216.25
825.79	216.27
826.10	216.27
826.42	216.27
826.74	216.24
827.05	216.25
827.37	216.24
827.69	216.23
828.00	216.24
828.32	216.19
828.64	216.13
828.95	216.21
829.27	216.16
829.58	216.18
829.90	216.20
830.22	216.19
830.53	216.11
830.85	216.09
831.17	216.05
831.48	216.07
831.80	216.03
832.11	216.02
832.43	215.98
832.75	215.96
833.06	216.08
833.38	216.00
833.69	215.96
834.01	215.96
834.32	215.96
834.64	215.97
834.96	216.00
835.27	216.01
835.59	215.92
835.90	215.85
836.22	215.80
836.53	215.75
836.85	215.70
837.16	215.91
837.48	215.88
837.79	215.94
838.11	215.91
838.42	215.94
838.74	215.93
839.05	215.90
839.37	215.90
839.68	215.79
840.00	215.80
840.31	215.83
840.63	215.81
840.94	215.76
841.26	215.71
841.57	215.70
841.88	215.68
842.20	215.68
842.51	215.65
842.83	215.66
843.14	215.87
843.46	215.86
843.77	215.75
844.08	215.75
844.40	215.66
844.71	215.64
845.03	215.62
845.34	215.60
845.65	215.60
845.97	215.57
846.28	215.57
846.60	215.58
846.91	215.54
847.22	215.52
847.54	215.57
847.85	215.60
848.16	215.57
848.48	215.54
848.79	215.63
849.10	215.66
849.42	215.65
849.73	215.45
850.04	215.49
850.36	215.42
850.67	215.46
850.98	215.46
851.30	215.50
851.61	215.49
851.92	215.49
852.23	215.55
852.55	215.55
852.86	215.55
853.17	215.57
853.49	215.61
853.80	215.63
854.11	215.64
854.42	215.64
854.74	215.62
855.05	215.65
855.36	215.46
855.67	215.45
855.99	215.49
856.30	215.72
856.61	215.70
856.92	215.68
857.23	215.65
857.55	215.66
857.86	215.64
858.17	215.68
858.48	215.62
858.79	215.59
859.11	215.62
859.42	215.60
859.73	215.56
860.04	215.51
860.35	215.46
860.66	215.39
860.98	215.37
861.29	215.37
861.60	215.30
861.91	215.39
862.22	215.37
862.53	215.33
862.84	215.05
863.16	215.10
863.47	215.07
863.78	215.04
864.09	215.06
864.40	215.10
864.71	215.09
865.02	215.13
865.33	215.10
865.64	215.06
865.95	215.06
866.27	215.19
866.58	215.22
866.89	215.22
867.20	215.22
867.51	215.18
867.82	215.16
868.13	215.22
868.44	215.16
868.75	215.22
869.06	215.20
869.37	215.23
869.68	215.15
869.99	215.19
870.30	215.21
870.61	215.18
870.92	215.12
871.23	215.08
871.54	215.11
871.85	215.16
872.16	215.18
872.47	215.16
872.78	215.02
873.09	215.00
873.40	215.01
873.71	215.02
874.02	215.05
874.33	215.02
874.64	215.00
874.95	215.06
875.26	214.99
875.56	215.01
875.87	215.00
876.18	214.99
876.49	215.17
876.80	215.15
877.11	215.12
877.42	215.13
877.73	215.11
878.04	215.09
878.35	215.06
878.66	215.05
878.96	215.05
879.27	215.06
879.58	215.03
879.89	215.00
880.20	215.06
880.51	215.10
880.82	215.11
881.12	215.12
881.43	215.07
881.74	215.03
882.05	214.99
882.36	215.01
882.67	215.01
882.97	214.81
883.28	214.80
883.59	214.83
883.90	214.85
884.21	214.87
884.51	214.81
884.82	214.77
885.13	214.76
885.44	214.75
885.74	214.78
886.05	214.80
886.36	214.81
886.67	214.71
886.98	214.77
887.28	214.80
887.59	214.80
887.90	214.81
888.20	214.83
888.51	214.88
888.82	214.83
889.13	214.86
889.43	215.02
889.74	214.99
890.05	214.98
890.35	214.95
890.66	214.95
890.97	214.93
891.28	214.92
891.58	214.92
891.89	214.91
892.20	214.87
892.50	214.84
892.81	214.84
893.12	214.86
893.42	214.77
893.73	214.76
894.04	214.76
894.34	214.77
894.65	214.78
894.95	214.75
895.26	214.76
895.57	214.85
895.87	214.65
896.18	214.72
896.48	214.70
896.79	214.73
897.10	214.74
897.40	214.78
897.71	214.81
898.01	214.82
898.32	214.82
898.63	214.80
898.93	214.84
899.24	214.86
899.54	214.85
899.85	214.81
900.15	214.82
900.46	214.81
900.76	214.81
901.07	214.79
901.38	214.79
901.68	214.84
901.99	214.75
902.29	214.78
902.60	214.73
902.90	214.74
903.21	214.74
903.51	214.74
903.82	214.80
904.12	214.83
904.43	214.83
904.73	214.84
905.03	214.88
905.34	215.08
905.64	215.05
905.95	215.04
906.25	215.04
906.56	215.02
906.86	215.02
907.17	214.99
907.47	214.99
907.77	214.98
908.08	214.92
908.38	214.94
908.69	214.94
908.99	214.99
909.30	215.00
909.60	214.99
909.90	214.98
910.21	214.90
910.51	214.86
910.81	214.87
911.12	214.87
911.42	214.86
911.73	214.61
912.03	214.64
912.33	214.69
912.64	214.66
912.94	214.64
913.24	214.61
913.55	214.63
913.85	214.63
914.15	214.65
914.46	214.70
914.76	214.64
915.06	214.64
915.37	214.60
915.67	214.59
915.97	214.60
916.27	214.57
916.58	214.59
916.88	214.56
917.18	214.54
917.49	214.70
917.79	214.66
918.09	214.71
918.39	214.78
918.70	214.76
919.00	214.82
919.30	214.91
919.60	214.93
919.91	214.90
920.21	214.91
920.51	214.85
920.81	214.85
921.12	214.87
921.42	214.86
921.72	214.86
922.02	214.85
922.32	214.86
922.63	214.85
922.93	214.96
923.23	214.97
923.53	214.94
923.83	214.78
924.13	214.83
924.44	214.83
924.74	214.83
925.04	214.87
925.34	214.85
925.64	214.74
925.94	214.72
926.24	214.82
926.55	214.83
926.85	214.88
927.15	214.87
927.45	214.90
927.75	214.90
928.05	214.91
928.35	214.89
928.65	214.93
928.95	214.98
929.26	214.90
929.56	214.97
929.86	214.99
930.16	214.97
930.46	214.96
930.76	214.96
931.06	214.86
931.36	214.81
931.66	214.84
931.96	214.91
932.26	214.92
932.56	214.83
932.86	214.81
933.16	214.80
933.46	214.75
933.76	214.71
934.06	214.75
934.36	214.80
934.66	214.82
934.96	214.79
935.26	214.75
935.56	214.77
935.86	214.70
936.16	214.68
936.46	214.69
936.76	214.64
937.06	214.59
937.36	214.63
937.66	214.61
937.96	214.62
938.26	214.57
938.56	214.55
938.86	214.54
939.16	214.59
939.46	214.60
939.76	214.64
940.06	214.65
940.35	214.59
940.65	214.51
940.95	214.49
941.25	214.42
941.55	214.42
941.85	214.42
942.15	214.45
942.45	214.52
942.75	214.53
943.04	214.55
943.34	214.62
943.64	214.58
943.94	214.56
944.24	214.51
944.54	214.53
944.84	214.52
945.13	214.52
945.43	214.51
945.73	214.50
946.03	214.49
946.33	214.47
946.62	214.45
946.92	214.40
947.22	214.42
947.52	214.44
947.82	214.44
948.11	214.38
948.41	214.34
948.71	214.29
949.01	214.29
949.31	214.27
949.60	214.22
949.90	214.27
950.20	214.26
950.50	214.28
950.79	214.26
951.09	214.29
951.39	214.27
951.69	214.24
951.98	214.24
952.28	214.23
952.58	214.20
952.87	214.22
953.17	214.26
953.47	214.24
953.76	214.22
954.06	214.18
954.36	214.18
954.66	214.20
954.95	214.22
955.25	214.22
955.55	214.25
955.84	214.22
956.14	214.22
956.44	214.30
956.73	214.27
957.03	214.26
957.32	214.27
957.62	214.30
957.92	214.35
958.21	214.37
958.51	214.65
958.81	214.73
959.10	214.74
959.40	214.78
959.69	214.79
959.99	214.85
960.29	214.87
960.58	214.86
960.88	214.92
961.17	214.92
961.47	214.92
961.76	214.88
962.06	214.92
962.36	214.88
962.65	214.84
962.95	214.83
963.24	214.83
963.54	214.85
963.83	214.84
964.13	214.80
964.42	214.72
964.72	214.53
965.01	214.53
965.31	214.55
965.60	214.53
965.90	214.67
966.19	214.61
966.49	214.66
966.78	214.64
967.08	214.64
967.37	214.63
967.67	214.57
967.96	214.60
968.26	214.62
968.55	214.67
968.85	214.66
969.14	214.67
969.43	214.64
969.73	214.63
970.02	214.61
970.32	214.58
970.61	214.59
970.91	214.51
971.20	214.46
971.49	214.45
971.79	214.45
972.08	214.31
972.38	214.34
972.67	214.33
972.96	214.40
973.26	214.37
973.55	214.45
973.85	214.48
974.14	214.52
974.43	214.49
974.73	214.44
975.02	214.43
975.31	214.40
975.61	214.45
975.90	214.43
976.19	214.45
976.49	214.48
976.78	214.51
977.07	214.51
977.37	214.51
977.66	214.51
977.95	214.48
978.24	214.49
978.54	214.53
978.83	214.53
979.12	214.50
979.42	214.52
979.71	214.47
980.00	214.46
980.29	214.45
980.59	214.43
980.88	214.50
981.17	214.49
981.46	214.54
981.76	214.54
982.05	214.59
982.34	214.59
982.63	214.60
982.93	214.58
983.22	214.64
983.51	214.66
983.80	214.68
984.09	214.71
984.39	214.67
984.68	214.60
984.97	214.58
985.26	214.56
985.55	214.57
985.85	214.53
986.14	214.57
986.43	214.59
986.72	214.56
987.01	214.51
987.30	214.54
987.59	214.55
987.89	214.54
988.18	214.48
988.47	214.49
988.76	214.47
989.05	214.48
989.34	214.45
989.63	214.51
989.92	214.51
990.22	214.49
990.51	214.55
990.80	214.53
991.09	214.55
991.38	214.56
991.67	214.54
991.96	214.54
992.25	214.54
992.54	214.50
992.83	214.49
993.12	214.51
993.41	214.53
993.70	214.59
993.99	214.63
994.28	214.67
994.58	214.68
994.87	214.69
995.16	214.70
995.45	214.69
995.74	214.64
996.03	214.65
996.32	214.66
996.61	214.68
996.90	214.69
997.19	214.70
997.48	214.68
997.77	214.66
998.06	214.65
998.34	214.62
998.63	214.62
998.92	214.64
999.21	214.65
999.50	214.64
999.79	214.59
1000.08	214.57
1000.37	214.55
1000.66	214.52
1000.95	214.52
1001.24	214.51
1001.53	214.50
1001.82	214.50
1002.11	214.47
1002.40	214.50
1002.68	214.55
1002.97	214.72
1003.26	214.65
1003.55	214.64
1003.84	214.69
1004.13	214.78
1004.42	214.78
1004.71	214.79
1004.99	214.76
1005.28	214.81
1005.57	214.77
1005.86	214.76
1006.15	214.76
1006.44	214.71
1006.72	214.73
1007.01	214.73
1007.30	214.75
1007.59	214.73
1007.88	214.73
1008.17	214.72
1008.45	214.66
1008.74	214.58
1009.03	214.48
1009.32	214.50
1009.60	214.50
1009.89	214.48
1010.18	214.36
1010.47	214.35
1010.76	214.36
1011.04	214.36
1011.33	214.38
1011.62	214.40
1011.91	214.39
1012.19	214.40
1012.48	214.40
1012.77	214.40
1013.05	214.48
1013.34	214.44
1013.63	214.47
1013.92	214.47
1014.20	214.47
1014.49	214.48
1014.78	214.50
1015.06	214.43
1015.35	214.41
1015.64	214.46
1015.92	214.43
1016.21	214.45
1016.50	214.47
1016.78	214.50
1017.07	214.53
1017.36	214.46
1017.64	214.44
1017.93	214.47
1018.22	214.42
1018.50	214.46
1018.79	214.46
1019.08	214.34
1019.36	214.33
1019.65	214.29
1019.93	214.31
1020.22	214.33
1020.51	214.44
1020.79	214.39
1021.08	213.67
1021.36	214.44
1021.65	214.55
1021.94	213.86
1022.22	213.71
1022.51	213.74
1022.79	214.93
1023.08	214.37
1023.36	216.86
1023.65	213.96
>>>>>End Processed Spectral Data<<<<<
