SpectraSuite Data File
++++++++++++++++++++++++++++++++++++
Date: Tue Jan 29 16:32:21 EST 2013
User: group
Dark Spectrum Present: No
Reference Spectrum Present: No
Number of Sampled Component Spectra: 1
Spectrometers: USB2E7196
Integration Time (usec): 65000 (USB2E7196)
Spectra Averaged: 100 (USB2E7196)
Boxcar Smoothing: 10 (USB2E7196)
Correct for Electrical Dark: No (USB2E7196)
Strobe/Lamp Enabled: No (USB2E7196)
Correct for Detector Non-linearity: No (USB2E7196)
Correct for Stray Light: No (USB2E7196)
Number of Pixels in Processed Spectrum: 2048
>>>>>Begin Processed Spectral Data<<<<<
339.09	0.00
339.48	202.56
339.86	203.84
340.24	204.50
340.63	206.85
341.01	210.52
341.39	209.28
341.78	211.27
342.16	212.46
342.54	212.30
342.93	201.47
343.31	211.64
343.69	212.17
344.07	212.62
344.46	213.13
344.84	213.48
345.22	213.67
345.60	213.92
345.99	214.07
346.37	214.18
346.75	214.29
347.13	214.37
347.52	214.42
347.90	214.54
348.28	214.54
348.66	214.60
349.05	214.56
349.43	214.61
349.81	214.66
350.19	214.71
350.57	214.73
350.96	214.82
351.34	214.91
351.72	215.00
352.10	215.10
352.48	215.11
352.87	215.17
353.25	215.23
353.63	215.26
354.01	215.30
354.39	215.37
354.77	215.43
355.15	215.55
355.54	215.58
355.92	215.55
356.30	215.63
356.68	215.81
357.06	215.91
357.44	215.95
357.82	216.03
358.20	216.10
358.58	216.15
358.97	216.22
359.35	216.36
359.73	216.44
360.11	216.48
360.49	216.54
360.87	216.60
361.25	216.65
361.63	216.79
362.01	216.85
362.39	216.86
362.77	216.92
363.15	216.91
363.53	216.94
363.91	217.01
364.29	217.05
364.67	216.88
365.05	216.89
365.43	216.95
365.81	216.99
366.19	217.10
366.57	217.18
366.95	217.13
367.33	217.05
367.71	217.02
368.09	217.06
368.47	217.05
368.85	217.00
369.23	217.04
369.61	216.95
369.99	217.00
370.37	216.99
370.75	217.07
371.13	217.03
371.51	217.00
371.89	216.99
372.27	216.98
372.65	216.98
373.03	216.99
373.41	216.94
373.78	216.88
374.16	216.73
374.54	216.64
374.92	216.63
375.30	216.61
375.68	216.57
376.06	216.57
376.44	216.54
376.82	216.52
377.19	216.46
377.57	216.44
377.95	216.35
378.33	216.34
378.71	216.15
379.09	216.10
379.47	216.10
379.84	216.02
380.22	215.95
380.60	215.87
380.98	215.78
381.36	215.74
381.73	215.67
382.11	215.70
382.49	215.67
382.87	215.61
383.25	215.55
383.62	215.78
384.00	215.71
384.38	215.70
384.76	215.69
385.13	215.76
385.51	215.74
385.89	215.69
386.27	215.66
386.64	215.68
387.02	215.66
387.40	215.58
387.78	215.56
388.15	215.54
388.53	215.50
388.91	215.47
389.29	215.39
389.66	215.38
390.04	215.30
390.42	215.34
390.79	215.31
391.17	215.31
391.55	215.03
391.92	215.01
392.30	215.04
392.68	214.98
393.05	214.94
393.43	214.94
393.81	214.96
394.18	214.93
394.56	214.92
394.94	214.93
395.31	214.96
395.69	215.02
396.06	215.04
396.44	215.07
396.82	215.08
397.19	215.25
397.57	215.25
397.95	215.34
398.32	215.28
398.70	215.34
399.07	215.41
399.45	215.46
399.82	215.49
400.20	215.48
400.58	215.59
400.95	215.55
401.33	215.67
401.70	215.85
402.08	215.96
402.45	216.06
402.83	216.24
403.20	216.33
403.58	216.43
403.95	216.61
404.33	216.78
404.71	216.97
405.08	217.21
405.46	217.41
405.83	217.56
406.21	217.79
406.58	218.08
406.96	218.29
407.33	218.54
407.70	218.82
408.08	219.30
408.45	219.66
408.83	220.05
409.20	220.36
409.58	220.65
409.95	221.11
410.33	221.60
410.70	222.03
411.08	222.60
411.45	223.18
411.82	223.78
412.20	224.47
412.57	225.27
412.95	225.83
413.32	226.69
413.69	227.56
414.07	228.45
414.44	229.41
414.82	230.46
415.19	231.66
415.56	232.92
415.94	234.08
416.31	235.46
416.68	236.90
417.06	238.47
417.43	239.99
417.81	241.72
418.18	243.51
418.55	245.43
418.93	247.43
419.30	249.50
419.67	251.68
420.04	254.00
420.42	256.43
420.79	259.26
421.16	262.03
421.54	264.91
421.91	267.93
422.28	271.02
422.66	274.32
423.03	277.58
423.40	280.92
423.77	284.53
424.15	288.20
424.52	292.03
424.89	296.25
425.26	300.35
425.64	304.23
426.01	308.52
426.38	313.01
426.75	317.59
427.13	322.36
427.50	327.40
427.87	332.58
428.24	337.73
428.61	342.73
428.99	348.26
429.36	354.26
429.73	360.15
430.10	366.05
430.47	372.09
430.85	378.38
431.22	385.05
431.59	392.12
431.96	398.95
432.33	406.43
432.70	413.70
433.08	422.29
433.45	430.40
433.82	438.44
434.19	447.35
434.56	456.04
434.93	464.35
435.30	472.56
435.68	481.68
436.05	490.66
436.42	499.56
436.79	507.68
437.16	516.43
437.53	525.68
437.90	534.86
438.27	543.84
438.64	553.03
439.01	561.59
439.38	569.20
439.75	576.58
440.13	585.02
440.50	592.92
440.87	599.32
441.24	605.93
441.61	613.22
441.98	618.59
442.35	624.96
442.72	631.31
443.09	637.45
443.46	641.25
443.83	643.79
444.20	645.99
444.57	649.14
444.94	650.60
445.31	652.10
445.68	653.46
446.05	654.12
446.42	653.33
446.79	652.36
447.16	651.30
447.53	650.45
447.90	647.13
448.27	643.88
448.64	639.23
449.01	635.92
449.37	630.05
449.74	624.38
450.11	617.44
450.48	610.08
450.85	602.56
451.22	596.01
451.59	589.93
451.96	584.10
452.33	576.24
452.70	569.17
453.07	560.65
453.43	552.04
453.80	543.67
454.17	535.75
454.54	528.21
454.91	519.99
455.28	512.02
455.65	504.59
456.02	497.03
456.38	490.70
456.75	482.80
457.12	476.17
457.49	469.64
457.86	463.47
458.23	458.02
458.59	452.14
458.96	446.18
459.33	440.81
459.70	435.45
460.07	431.21
460.43	426.33
460.80	421.73
461.17	417.73
461.54	413.56
461.91	409.51
462.27	405.35
462.64	401.95
463.01	398.19
463.38	394.49
463.74	390.81
464.11	387.53
464.48	384.70
464.85	381.66
465.21	379.22
465.58	376.58
465.95	373.45
466.32	370.77
466.68	368.14
467.05	365.53
467.42	362.96
467.78	360.29
468.15	357.70
468.52	355.81
468.88	353.31
469.25	351.07
469.62	349.25
469.98	347.33
470.35	345.53
470.72	343.85
471.08	342.07
471.45	340.60
471.82	339.09
472.18	337.45
472.55	336.22
472.92	334.86
473.28	333.64
473.65	332.51
474.02	331.43
474.38	330.53
474.75	329.80
475.11	328.97
475.48	328.41
475.85	327.91
476.21	327.38
476.58	327.03
476.94	326.82
477.31	326.49
477.67	326.26
478.04	326.08
478.41	326.01
478.77	326.15
479.14	326.11
479.50	326.28
479.87	326.58
480.23	326.88
480.60	327.12
480.96	327.42
481.33	328.02
481.69	328.57
482.06	329.11
482.42	329.58
482.79	330.22
483.15	330.96
483.52	331.90
483.88	332.80
484.25	333.76
484.61	334.77
484.98	335.86
485.34	337.15
485.71	338.51
486.07	339.95
486.44	341.25
486.80	342.87
487.17	344.48
487.53	346.24
487.90	348.12
488.26	350.16
488.62	352.32
488.99	354.37
489.35	356.51
489.72	358.82
490.08	361.37
490.44	363.93
490.81	366.69
491.17	369.43
491.54	372.40
491.90	375.41
492.26	378.69
492.63	382.10
492.99	385.57
493.36	389.26
493.72	393.16
494.08	397.17
494.45	401.34
494.81	405.81
495.17	410.30
495.54	415.03
495.90	419.86
496.26	424.80
496.63	430.00
496.99	435.42
497.35	441.05
497.72	446.87
498.08	452.82
498.44	458.93
498.80	465.36
499.17	471.91
499.53	478.66
499.89	485.54
500.26	492.56
500.62	499.69
500.98	507.14
501.34	514.61
501.71	522.43
502.07	530.30
502.43	538.27
502.79	546.46
503.16	554.84
503.52	563.44
503.88	572.15
504.24	581.14
504.60	590.24
504.97	599.55
505.33	608.83
505.69	618.73
506.05	628.63
506.41	638.52
506.78	648.62
507.14	658.91
507.50	669.46
507.86	680.19
508.22	691.04
508.59	701.74
508.95	712.86
509.31	724.14
509.67	735.69
510.03	747.14
510.39	758.98
510.75	770.91
511.12	782.82
511.48	794.96
511.84	807.26
512.20	819.68
512.56	832.42
512.92	845.35
513.28	858.08
513.64	870.92
514.00	883.87
514.37	896.92
514.73	910.15
515.09	923.15
515.45	936.10
515.81	949.28
516.17	962.75
516.53	976.11
516.89	989.29
517.25	1002.53
517.61	1016.20
517.97	1029.63
518.33	1042.88
518.69	1056.51
519.05	1070.49
519.41	1084.27
519.77	1098.19
520.13	1111.56
520.49	1124.88
520.85	1138.39
521.21	1151.77
521.57	1165.50
521.93	1178.58
522.29	1192.38
522.65	1206.19
523.01	1219.95
523.37	1233.24
523.73	1246.52
524.09	1259.85
524.45	1273.48
524.81	1287.12
525.17	1300.56
525.53	1313.85
525.89	1327.28
526.25	1340.60
526.61	1353.54
526.97	1366.82
527.33	1379.83
527.68	1393.39
528.04	1406.97
528.40	1420.24
528.76	1433.86
529.12	1446.93
529.48	1460.51
529.84	1472.82
530.20	1485.73
530.56	1498.50
530.91	1511.80
531.27	1524.96
531.63	1537.87
531.99	1550.66
532.35	1563.06
532.71	1575.58
533.07	1588.58
533.42	1600.96
533.78	1613.23
534.14	1625.29
534.50	1636.65
534.86	1648.51
535.21	1659.50
535.57	1671.01
535.93	1682.25
536.29	1693.48
536.65	1705.05
537.00	1716.13
537.36	1727.74
537.72	1738.77
538.08	1750.30
538.44	1761.38
538.79	1772.57
539.15	1783.64
539.51	1794.55
539.87	1805.80
540.22	1816.69
540.58	1827.76
540.94	1838.66
541.29	1849.06
541.65	1859.02
542.01	1869.53
542.37	1879.71
542.72	1890.01
543.08	1899.92
543.44	1910.68
543.79	1920.09
544.15	1929.73
544.51	1939.72
544.87	1949.70
545.22	1959.09
545.58	1968.06
545.94	1977.00
546.29	1985.63
546.65	1994.07
547.01	2002.33
547.36	2010.20
547.72	2018.03
548.07	2025.66
548.43	2033.55
548.79	2041.47
549.14	2049.69
549.50	2058.32
549.86	2066.24
550.21	2073.65
550.57	2081.57
550.92	2088.35
551.28	2095.91
551.64	2103.12
551.99	2110.72
552.35	2117.87
552.70	2124.82
553.06	2131.44
553.41	2137.74
553.77	2144.25
554.13	2150.56
554.48	2157.63
554.84	2164.84
555.19	2171.50
555.55	2177.99
555.90	2184.38
556.26	2191.43
556.61	2197.54
556.97	2202.44
557.32	2208.25
557.68	2214.84
558.03	2220.58
558.39	2226.01
558.74	2232.02
559.10	2237.50
559.45	2243.07
559.81	2248.78
560.16	2254.37
560.52	2260.31
560.87	2266.91
561.23	2272.98
561.58	2279.61
561.94	2284.88
562.29	2289.56
562.64	2295.56
563.00	2301.27
563.35	2306.76
563.71	2312.45
564.06	2318.19
564.42	2324.08
564.77	2329.09
565.12	2334.26
565.48	2339.36
565.83	2344.97
566.19	2350.37
566.54	2355.88
566.89	2360.56
567.25	2365.01
567.60	2370.49
567.96	2375.77
568.31	2380.30
568.66	2384.53
569.02	2388.52
569.37	2392.47
569.72	2396.90
570.08	2400.54
570.43	2403.81
570.78	2407.01
571.14	2409.45
571.49	2412.46
571.84	2416.01
572.20	2419.00
572.55	2422.01
572.90	2424.15
573.26	2426.86
573.61	2429.36
573.96	2431.56
574.31	2433.59
574.67	2435.27
575.02	2436.09
575.37	2437.41
575.72	2438.05
576.08	2439.39
576.43	2439.53
576.78	2439.77
577.13	2441.32
577.49	2442.37
577.84	2443.23
578.19	2444.40
578.54	2444.96
578.90	2445.69
579.25	2445.53
579.60	2445.35
579.95	2444.59
580.30	2444.82
580.66	2443.94
581.01	2442.12
581.36	2439.63
581.71	2438.03
582.06	2437.04
582.42	2436.28
582.77	2433.91
583.12	2432.11
583.47	2430.78
583.82	2430.12
584.17	2429.05
584.53	2426.85
584.88	2424.74
585.23	2422.78
585.58	2420.40
585.93	2418.22
586.28	2415.96
586.63	2413.50
586.98	2411.34
587.34	2409.29
587.69	2406.70
588.04	2404.64
588.39	2403.17
588.74	2400.74
589.09	2398.13
589.44	2394.82
589.79	2392.23
590.14	2390.27
590.49	2387.56
590.84	2383.49
591.19	2380.30
591.54	2376.74
591.89	2372.65
592.25	2369.26
592.60	2365.01
592.95	2360.92
593.30	2356.67
593.65	2352.20
594.00	2347.76
594.35	2344.62
594.70	2339.97
595.05	2335.41
595.40	2329.84
595.75	2323.94
596.10	2320.33
596.45	2315.28
596.80	2310.72
597.15	2305.42
597.50	2299.49
597.85	2294.51
598.19	2289.24
598.54	2283.33
598.89	2278.13
599.24	2273.58
599.59	2267.35
599.94	2261.41
600.29	2255.29
600.64	2249.35
600.99	2242.49
601.34	2236.83
601.69	2229.75
602.04	2223.18
602.39	2216.44
602.74	2210.36
603.08	2204.81
603.43	2198.09
603.78	2191.23
604.13	2184.13
604.48	2176.90
604.83	2170.72
605.18	2164.33
605.53	2157.40
605.87	2150.28
606.22	2143.41
606.57	2135.35
606.92	2127.33
607.27	2120.55
607.62	2113.99
607.96	2106.92
608.31	2100.48
608.66	2092.66
609.01	2085.12
609.36	2078.11
609.70	2070.46
610.05	2062.68
610.40	2054.31
610.75	2045.95
611.10	2038.17
611.44	2029.27
611.79	2020.57
612.14	2010.50
612.49	1999.85
612.83	1990.47
613.18	1981.17
613.53	1971.72
613.88	1962.18
614.22	1953.63
614.57	1943.51
614.92	1932.90
615.27	1922.56
615.61	1912.35
615.96	1902.73
616.31	1892.93
616.65	1883.38
617.00	1873.45
617.35	1863.65
617.70	1854.02
618.04	1843.92
618.39	1833.71
618.74	1823.99
619.08	1814.15
619.43	1805.40
619.78	1797.15
620.12	1788.55
620.47	1778.85
620.82	1768.54
621.16	1758.56
621.51	1748.51
621.85	1738.76
622.20	1728.35
622.55	1717.85
622.89	1707.85
623.24	1698.01
623.59	1688.22
623.93	1677.92
624.28	1668.13
624.62	1658.02
624.97	1647.56
625.32	1637.65
625.66	1628.79
626.01	1620.06
626.35	1610.71
626.70	1600.60
627.04	1590.38
627.39	1580.21
627.73	1570.98
628.08	1561.95
628.43	1552.49
628.77	1543.28
629.12	1534.34
629.46	1526.54
629.81	1518.27
630.15	1508.83
630.50	1498.97
630.84	1488.53
631.19	1478.65
631.53	1469.35
631.88	1459.23
632.22	1449.25
632.57	1439.95
632.91	1429.74
633.26	1419.83
633.60	1410.34
633.95	1401.06
634.29	1391.67
634.64	1382.41
634.98	1372.52
635.32	1363.19
635.67	1354.66
636.01	1345.44
636.36	1335.57
636.70	1325.96
637.05	1316.47
637.39	1307.50
637.73	1298.91
638.08	1291.22
638.42	1283.02
638.77	1274.15
639.11	1265.89
639.45	1258.04
639.80	1249.54
640.14	1240.91
640.49	1231.94
640.83	1222.94
641.17	1214.79
641.52	1206.52
641.86	1197.87
642.20	1189.95
642.55	1181.32
642.89	1172.38
643.23	1163.61
643.58	1155.55
643.92	1146.45
644.26	1137.63
644.61	1129.17
644.95	1120.28
645.29	1111.08
645.64	1101.90
645.98	1093.36
646.32	1085.41
646.66	1076.78
647.01	1068.34
647.35	1060.01
647.69	1051.58
648.04	1043.27
648.38	1034.26
648.72	1025.46
649.06	1016.90
649.41	1008.59
649.75	1000.57
650.09	992.72
650.43	984.63
650.78	976.16
651.12	968.48
651.46	961.20
651.80	953.83
652.14	946.59
652.49	938.95
652.83	931.56
653.17	923.89
653.51	916.10
653.85	908.85
654.20	901.52
654.54	894.09
654.88	886.87
655.22	879.61
655.56	872.64
655.90	865.79
656.25	859.08
656.59	852.13
656.93	845.06
657.27	837.75
657.61	830.70
657.95	824.65
658.29	818.58
658.64	812.32
658.98	805.83
659.32	799.15
659.66	792.91
660.00	786.54
660.34	780.39
660.68	774.23
661.02	767.84
661.36	761.88
661.70	755.95
662.05	750.23
662.39	744.70
662.73	739.20
663.07	733.78
663.41	728.11
663.75	722.42
664.09	716.67
664.43	711.19
664.77	705.82
665.11	699.94
665.45	693.96
665.79	688.08
666.13	682.31
666.47	676.70
666.81	671.22
667.15	665.80
667.49	660.56
667.83	655.26
668.17	650.01
668.51	644.83
668.85	639.86
669.19	634.92
669.53	629.84
669.87	624.73
670.21	619.87
670.55	615.12
670.89	610.61
671.23	606.34
671.57	601.93
671.91	597.62
672.25	593.43
672.58	589.28
672.92	585.15
673.26	581.16
673.60	577.31
673.94	573.39
674.28	569.72
674.62	565.94
674.96	562.14
675.30	558.58
675.64	554.85
675.97	551.27
676.31	547.61
676.65	543.93
676.99	540.44
677.33	536.55
677.67	532.91
678.01	528.91
678.34	525.23
678.68	521.67
679.02	518.01
679.36	514.23
679.70	510.55
680.04	506.98
680.37	503.52
680.71	500.16
681.05	496.95
681.39	493.65
681.73	490.43
682.06	487.37
682.40	484.28
682.74	481.07
683.08	477.74
683.42	474.51
683.75	471.50
684.09	468.44
684.43	465.57
684.77	462.56
685.10	459.77
685.44	456.81
685.78	453.81
686.12	451.00
686.45	448.26
686.79	445.56
687.13	442.97
687.46	440.30
687.80	437.55
688.14	434.70
688.48	432.04
688.81	429.27
689.15	426.67
689.49	423.96
689.82	421.38
690.16	418.77
690.50	416.29
690.83	413.74
691.17	411.14
691.51	408.67
691.84	406.38
692.18	404.13
692.52	401.85
692.85	399.71
693.19	397.55
693.52	395.35
693.86	393.10
694.20	390.87
694.53	388.69
694.87	386.50
695.21	384.31
695.54	382.08
695.88	379.97
696.21	377.71
696.55	375.51
696.88	373.43
697.22	371.40
697.56	369.45
697.89	367.52
698.23	365.72
698.56	363.88
698.90	362.02
699.23	360.05
699.57	358.17
699.90	356.28
700.24	354.40
700.58	352.62
700.91	350.91
701.25	349.33
701.58	347.72
701.92	346.10
702.25	344.50
702.59	342.88
702.92	341.30
703.26	339.72
703.59	338.27
703.93	337.00
704.26	335.58
704.60	334.06
704.93	332.61
705.26	331.14
705.60	329.63
705.93	328.09
706.27	326.74
706.60	325.48
706.94	324.22
707.27	322.81
707.61	321.42
707.94	320.02
708.27	318.45
708.61	316.92
708.94	315.54
709.28	314.23
709.61	312.93
709.94	311.68
710.28	310.49
710.61	309.29
710.95	307.80
711.28	306.69
711.61	305.48
711.95	304.28
712.28	303.07
712.61	301.85
712.95	300.81
713.28	299.78
713.61	298.60
713.95	297.42
714.28	296.38
714.61	295.35
714.95	294.35
715.28	293.36
715.61	292.36
715.95	291.36
716.28	290.37
716.61	289.42
716.95	288.40
717.28	287.41
717.61	286.41
717.94	285.53
718.28	284.50
718.61	283.60
718.94	282.71
719.27	281.78
719.61	280.94
719.94	280.03
720.27	279.04
720.60	278.12
720.94	277.30
721.27	276.55
721.60	275.83
721.93	275.07
722.27	274.42
722.60	273.77
722.93	273.07
723.26	272.42
723.59	271.69
723.93	271.09
724.26	270.44
724.59	269.76
724.92	269.12
725.25	268.53
725.59	267.92
725.92	267.37
726.25	266.80
726.58	266.24
726.91	265.65
727.24	265.08
727.57	264.54
727.91	263.91
728.24	263.32
728.57	262.71
728.90	262.13
729.23	261.49
729.56	261.05
729.89	260.46
730.22	259.85
730.55	259.32
730.89	258.74
731.22	258.20
731.55	257.69
731.88	257.18
732.21	256.65
732.54	256.10
732.87	255.52
733.20	255.02
733.53	254.53
733.86	254.06
734.19	253.59
734.52	253.16
734.85	252.88
735.18	252.43
735.51	252.07
735.84	251.65
736.17	251.28
736.50	250.67
736.83	250.55
737.16	250.17
737.49	249.75
737.82	249.37
738.15	249.02
738.48	248.61
738.81	248.19
739.14	247.80
739.47	247.42
739.80	247.07
740.13	246.73
740.46	246.31
740.79	245.90
741.12	245.52
741.45	245.17
741.78	244.74
742.11	244.45
742.44	244.04
742.77	243.74
743.10	243.39
743.43	243.05
743.75	242.45
744.08	242.37
744.41	242.02
744.74	241.67
745.07	241.26
745.40	240.95
745.73	240.72
746.06	240.41
746.39	240.16
746.71	239.84
747.04	239.51
747.37	239.22
747.70	238.95
748.03	238.65
748.36	238.36
748.68	238.05
749.01	237.69
749.34	237.40
749.67	237.08
750.00	236.80
750.33	236.68
750.65	236.42
750.98	235.91
751.31	235.67
751.64	235.46
751.97	235.34
752.29	235.11
752.62	234.76
752.95	234.49
753.28	234.17
753.60	233.89
753.93	233.74
754.26	233.51
754.59	233.22
754.91	232.99
755.24	232.74
755.57	232.51
755.90	232.25
756.22	232.03
756.55	231.80
756.88	231.55
757.20	231.21
757.53	230.97
757.86	230.71
758.19	230.52
758.51	230.27
758.84	229.99
759.17	229.75
759.49	229.59
759.82	229.51
760.15	229.36
760.47	229.21
760.80	228.91
761.13	228.76
761.45	228.57
761.78	228.40
762.11	228.22
762.43	228.03
762.76	227.85
763.08	227.69
763.41	227.49
763.74	227.36
764.06	227.20
764.39	227.04
764.71	226.92
765.04	226.75
765.37	226.61
765.69	226.42
766.02	226.32
766.34	226.16
766.67	225.94
767.00	225.82
767.32	225.76
767.65	225.76
767.97	225.55
768.30	225.46
768.62	225.33
768.95	225.16
769.27	225.03
769.60	224.92
769.92	224.78
770.25	224.67
770.57	224.47
770.90	224.34
771.22	224.22
771.55	224.13
771.87	224.03
772.20	223.88
772.52	223.97
772.85	224.07
773.17	223.98
773.50	223.88
773.82	223.72
774.15	223.51
774.47	223.28
774.80	223.20
775.12	223.05
775.45	222.95
775.77	222.88
776.09	222.78
776.42	222.69
776.74	222.66
777.07	222.57
777.39	222.48
777.72	222.38
778.04	222.32
778.36	222.20
778.69	222.14
779.01	222.09
779.33	221.82
779.66	221.53
779.98	221.43
780.31	221.34
780.63	221.37
780.95	221.34
781.28	221.28
781.60	221.22
781.92	221.19
782.25	221.12
782.57	221.07
782.89	220.99
783.22	220.93
783.54	220.81
783.86	220.72
784.19	220.67
784.51	220.67
784.83	220.58
785.16	220.50
785.48	220.41
785.80	220.34
786.12	220.30
786.45	220.23
786.77	220.14
787.09	220.06
787.42	219.94
787.74	219.90
788.06	219.85
788.38	219.80
788.71	219.71
789.03	219.69
789.35	219.66
789.67	219.60
789.99	219.52
790.32	219.46
790.64	219.46
790.96	219.56
791.28	219.42
791.61	219.36
791.93	219.33
792.25	219.29
792.57	219.40
792.89	219.27
793.21	219.25
793.54	219.18
793.86	219.11
794.18	219.07
794.50	218.98
794.82	218.92
795.14	218.86
795.47	218.85
795.79	218.79
796.11	218.72
796.43	218.67
796.75	218.64
797.07	218.59
797.39	218.52
797.71	218.35
798.04	218.33
798.36	218.28
798.68	218.24
799.00	218.21
799.32	218.05
799.64	218.07
799.96	218.02
800.28	218.06
800.60	218.00
800.92	217.96
801.24	217.90
801.56	217.87
801.89	217.82
802.21	217.80
802.53	217.73
802.85	217.74
803.17	217.83
803.49	217.77
803.81	217.77
804.13	217.72
804.45	217.63
804.77	217.62
805.09	217.62
805.41	217.60
805.73	217.54
806.05	217.48
806.37	217.42
806.69	217.39
807.01	217.32
807.33	217.35
807.65	217.28
807.97	217.37
808.28	217.33
808.60	217.31
808.92	217.24
809.24	217.37
809.56	217.29
809.88	217.19
810.20	217.19
810.52	217.19
810.84	217.16
811.16	217.16
811.48	217.16
811.80	217.20
812.12	217.17
812.43	217.18
812.75	217.15
813.07	217.10
813.39	217.08
813.71	217.06
814.03	217.00
814.35	216.97
814.67	216.87
814.98	216.82
815.30	216.79
815.62	216.75
815.94	216.57
816.26	216.55
816.58	216.48
816.89	216.49
817.21	216.42
817.53	216.40
817.85	216.39
818.17	216.34
818.48	216.23
818.80	216.23
819.12	216.18
819.44	216.15
819.76	216.14
820.07	216.14
820.39	216.10
820.71	216.08
821.03	216.09
821.34	216.04
821.66	216.07
821.98	216.08
822.30	216.03
822.61	216.18
822.93	216.16
823.25	216.14
823.57	216.06
823.88	216.09
824.20	216.08
824.52	216.07
824.83	216.03
825.15	215.99
825.47	215.96
825.79	215.96
826.10	215.92
826.42	215.90
826.74	215.89
827.05	215.86
827.37	215.88
827.69	215.85
828.00	215.86
828.32	215.85
828.64	215.81
828.95	215.94
829.27	215.87
829.58	215.85
829.90	215.84
830.22	215.85
830.53	215.79
830.85	215.75
831.17	215.68
831.48	215.69
831.80	215.70
832.11	215.70
832.43	215.64
832.75	215.65
833.06	215.74
833.38	215.64
833.69	215.61
834.01	215.61
834.32	215.59
834.64	215.53
834.96	215.49
835.27	215.49
835.59	215.40
835.90	215.34
836.22	215.33
836.53	215.34
836.85	215.32
837.16	215.49
837.48	215.49
837.79	215.58
838.11	215.59
838.42	215.59
838.74	215.59
839.05	215.57
839.37	215.53
839.68	215.41
840.00	215.43
840.31	215.47
840.63	215.39
840.94	215.36
841.26	215.33
841.57	215.34
841.88	215.33
842.20	215.30
842.51	215.25
842.83	215.26
843.14	215.38
843.46	215.38
843.77	215.24
844.08	215.23
844.40	215.17
844.71	215.11
845.03	215.08
845.34	215.07
845.65	215.05
845.97	215.08
846.28	215.10
846.60	215.13
846.91	215.08
847.22	215.10
847.54	215.15
847.85	215.15
848.16	215.15
848.48	215.13
848.79	215.18
849.10	215.20
849.42	215.21
849.73	215.05
850.04	215.02
850.36	214.97
850.67	214.99
850.98	214.99
851.30	215.01
851.61	215.00
851.92	214.99
852.23	215.06
852.55	215.04
852.86	215.04
853.17	215.06
853.49	215.09
853.80	215.12
854.11	215.12
854.42	215.18
854.74	215.14
855.05	215.13
855.36	215.00
855.67	215.02
855.99	214.99
856.30	215.22
856.61	215.21
856.92	215.21
857.23	215.19
857.55	215.11
857.86	215.08
858.17	215.13
858.48	215.09
858.79	215.04
859.11	215.09
859.42	215.09
859.73	215.02
860.04	215.02
860.35	214.95
860.66	214.90
860.98	214.87
861.29	214.89
861.60	214.90
861.91	215.01
862.22	214.99
862.53	214.98
862.84	214.76
863.16	214.84
863.47	214.80
863.78	214.78
864.09	214.84
864.40	214.86
864.71	214.82
865.02	214.86
865.33	214.80
865.64	214.73
865.95	214.73
866.27	214.87
866.58	214.88
866.89	214.90
867.20	214.91
867.51	214.88
867.82	214.85
868.13	214.89
868.44	214.82
868.75	214.85
869.06	214.83
869.37	214.85
869.68	214.78
869.99	214.82
870.30	214.84
870.61	214.87
870.92	214.84
871.23	214.83
871.54	214.86
871.85	214.94
872.16	214.96
872.47	214.92
872.78	214.79
873.09	214.79
873.40	214.77
873.71	214.74
874.02	214.75
874.33	214.74
874.64	214.70
874.95	214.72
875.26	214.65
875.56	214.64
875.87	214.63
876.18	214.61
876.49	214.79
876.80	214.80
877.11	214.74
877.42	214.78
877.73	214.78
878.04	214.72
878.35	214.70
878.66	214.71
878.96	214.69
879.27	214.65
879.58	214.63
879.89	214.63
880.20	214.70
880.51	214.67
880.82	214.66
881.12	214.68
881.43	214.64
881.74	214.64
882.05	214.59
882.36	214.60
882.67	214.64
882.97	214.40
883.28	214.36
883.59	214.38
883.90	214.36
884.21	214.39
884.51	214.39
884.82	214.39
885.13	214.38
885.44	214.41
885.74	214.44
886.05	214.43
886.36	214.44
886.67	214.40
886.98	214.50
887.28	214.53
887.59	214.50
887.90	214.53
888.20	214.53
888.51	214.60
888.82	214.54
889.13	214.55
889.43	214.74
889.74	214.73
890.05	214.68
890.35	214.68
890.66	214.63
890.97	214.61
891.28	214.60
891.58	214.62
891.89	214.62
892.20	214.60
892.50	214.60
892.81	214.58
893.12	214.55
893.42	214.45
893.73	214.45
894.04	214.47
894.34	214.43
894.65	214.41
894.95	214.38
895.26	214.40
895.57	214.47
895.87	214.26
896.18	214.31
896.48	214.33
896.79	214.32
897.10	214.35
897.40	214.36
897.71	214.37
898.01	214.36
898.32	214.37
898.63	214.36
898.93	214.38
899.24	214.37
899.54	214.38
899.85	214.35
900.15	214.33
900.46	214.33
900.76	214.37
901.07	214.38
901.38	214.39
901.68	214.38
901.99	214.28
902.29	214.32
902.60	214.31
902.90	214.30
903.21	214.30
903.51	214.29
903.82	214.35
904.12	214.36
904.43	214.34
904.73	214.33
905.03	214.36
905.34	214.51
905.64	214.50
905.95	214.47
906.25	214.53
906.56	214.55
906.86	214.55
907.17	214.56
907.47	214.56
907.77	214.54
908.08	214.54
908.38	214.56
908.69	214.58
908.99	214.57
909.30	214.55
909.60	214.57
909.90	214.55
910.21	214.46
910.51	214.39
910.81	214.39
911.12	214.43
911.42	214.39
911.73	214.18
912.03	214.18
912.33	214.23
912.64	214.21
912.94	214.15
913.24	214.11
913.55	214.09
913.85	214.07
914.15	214.13
914.46	214.12
914.76	214.09
915.06	214.06
915.37	214.00
915.67	214.01
915.97	214.00
916.27	214.00
916.58	214.01
916.88	214.01
917.18	214.03
917.49	214.14
917.79	214.15
918.09	214.21
918.39	214.27
918.70	214.27
919.00	214.25
919.30	214.42
919.60	214.41
919.91	214.38
920.21	214.40
920.51	214.35
920.81	214.36
921.12	214.39
921.42	214.40
921.72	214.48
922.02	214.52
922.32	214.54
922.63	214.55
922.93	214.64
923.23	214.67
923.53	214.66
923.83	214.53
924.13	214.57
924.44	214.53
924.74	214.56
925.04	214.63
925.34	214.64
925.64	214.52
925.94	214.52
926.24	214.62
926.55	214.64
926.85	214.65
927.15	214.64
927.45	214.61
927.75	214.61
928.05	214.59
928.35	214.53
928.65	214.55
928.95	214.55
929.26	214.46
929.56	214.48
929.86	214.46
930.16	214.46
930.46	214.44
930.76	214.46
931.06	214.37
931.36	214.31
931.66	214.34
931.96	214.38
932.26	214.43
932.56	214.36
932.86	214.36
933.16	214.39
933.46	214.41
933.76	214.39
934.06	214.43
934.36	214.52
934.66	214.52
934.96	214.51
935.26	214.52
935.56	214.56
935.86	214.53
936.16	214.52
936.46	214.50
936.76	214.50
937.06	214.45
937.36	214.48
937.66	214.48
937.96	214.45
938.26	214.42
938.56	214.35
938.86	214.37
939.16	214.41
939.46	214.42
939.76	214.42
940.06	214.41
940.35	214.33
940.65	214.22
940.95	214.24
941.25	214.18
941.55	214.17
941.85	214.19
942.15	214.23
942.45	214.25
942.75	214.25
943.04	214.21
943.34	214.27
943.64	214.25
943.94	214.22
944.24	214.22
944.54	214.18
944.84	214.20
945.13	214.17
945.43	214.10
945.73	214.04
946.03	214.04
946.33	214.03
946.62	214.05
946.92	214.04
947.22	214.09
947.52	214.10
947.82	214.13
948.11	214.07
948.41	214.01
948.71	214.00
949.01	213.99
949.31	214.00
949.60	213.98
949.90	214.01
950.20	213.98
950.50	213.95
950.79	213.98
951.09	214.01
951.39	213.97
951.69	213.99
951.98	214.04
952.28	214.04
952.58	214.03
952.87	214.06
953.17	214.08
953.47	214.04
953.76	214.06
954.06	214.02
954.36	214.01
954.66	213.99
954.95	214.03
955.25	214.06
955.55	214.09
955.84	214.06
956.14	214.08
956.44	214.10
956.73	214.10
957.03	214.12
957.32	214.15
957.62	214.19
957.92	214.20
958.21	214.19
958.51	214.41
958.81	214.47
959.10	214.48
959.40	214.55
959.69	214.52
959.99	214.54
960.29	214.52
960.58	214.50
960.88	214.59
961.17	214.57
961.47	214.59
961.76	214.54
962.06	214.57
962.36	214.52
962.65	214.54
962.95	214.56
963.24	214.51
963.54	214.49
963.83	214.49
964.13	214.48
964.42	214.40
964.72	214.25
965.01	214.22
965.31	214.19
965.60	214.13
965.90	214.29
966.19	214.26
966.49	214.28
966.78	214.29
967.08	214.27
967.37	214.26
967.67	214.21
967.96	214.29
968.26	214.28
968.55	214.35
968.85	214.34
969.14	214.33
969.43	214.34
969.73	214.32
970.02	214.30
970.32	214.32
970.61	214.36
970.91	214.27
971.20	214.27
971.49	214.26
971.79	214.27
972.08	214.12
972.38	214.10
972.67	214.11
972.96	214.17
973.26	214.14
973.55	214.20
973.85	214.20
974.14	214.16
974.43	214.17
974.73	214.11
975.02	214.09
975.31	214.11
975.61	214.11
975.90	214.09
976.19	214.12
976.49	214.12
976.78	214.14
977.07	214.15
977.37	214.14
977.66	214.15
977.95	214.12
978.24	214.14
978.54	214.19
978.83	214.18
979.12	214.14
979.42	214.13
979.71	214.10
980.00	214.10
980.29	214.10
980.59	214.09
980.88	214.15
981.17	214.17
981.46	214.14
981.76	214.13
982.05	214.20
982.34	214.18
982.63	214.20
982.93	214.17
983.22	214.22
983.51	214.24
983.80	214.26
984.09	214.29
984.39	214.29
984.68	214.24
984.97	214.26
985.26	214.25
985.55	214.28
985.85	214.24
986.14	214.26
986.43	214.28
986.72	214.30
987.01	214.20
987.30	214.19
987.59	214.19
987.89	214.20
988.18	214.12
988.47	214.11
988.76	214.07
989.05	214.09
989.34	214.04
989.63	214.09
989.92	214.06
990.22	214.01
990.51	213.97
990.80	213.96
991.09	213.96
991.38	213.99
991.67	213.97
991.96	213.95
992.25	213.94
992.54	213.88
992.83	213.87
993.12	213.86
993.41	213.90
993.70	214.01
993.99	214.04
994.28	214.09
994.58	214.11
994.87	214.10
995.16	214.09
995.45	214.09
995.74	214.04
996.03	214.08
996.32	214.14
996.61	214.19
996.90	214.18
997.19	214.18
997.48	214.17
997.77	214.17
998.06	214.21
998.34	214.18
998.63	214.22
998.92	214.22
999.21	214.27
999.50	214.28
999.79	214.22
1000.08	214.24
1000.37	214.22
1000.66	214.20
1000.95	214.27
1001.24	214.27
1001.53	214.29
1001.82	214.25
1002.11	214.21
1002.40	214.23
1002.68	214.30
1002.97	214.48
1003.26	214.44
1003.55	214.42
1003.84	214.39
1004.13	214.46
1004.42	214.48
1004.71	214.45
1004.99	214.43
1005.28	214.45
1005.57	214.43
1005.86	214.39
1006.15	214.36
1006.44	214.33
1006.72	214.36
1007.01	214.32
1007.30	214.35
1007.59	214.33
1007.88	214.34
1008.17	214.34
1008.45	214.29
1008.74	214.19
1009.03	214.06
1009.32	214.11
1009.60	214.11
1009.89	214.10
1010.18	214.00
1010.47	214.00
1010.76	214.03
1011.04	214.02
1011.33	214.05
1011.62	214.04
1011.91	214.05
1012.19	214.07
1012.48	214.09
1012.77	214.08
1013.05	214.16
1013.34	214.15
1013.63	214.14
1013.92	214.17
1014.20	214.16
1014.49	214.14
1014.78	214.18
1015.06	214.14
1015.35	214.11
1015.64	214.12
1015.92	214.16
1016.21	214.17
1016.50	214.19
1016.78	214.22
1017.07	214.22
1017.36	214.17
1017.64	214.17
1017.93	214.21
1018.22	214.16
1018.50	214.15
1018.79	214.13
1019.08	214.04
1019.36	214.02
1019.65	214.01
1019.93	214.04
1020.22	214.06
1020.51	214.20
1020.79	214.16
1021.08	213.30
1021.36	213.76
1021.65	213.80
1021.94	214.05
1022.22	214.02
1022.51	213.75
1022.79	214.76
1023.08	214.19
1023.36	216.65
1023.65	213.80
>>>>>End Processed Spectral Data<<<<<
