SpectraSuite Data File
++++++++++++++++++++++++++++++++++++
Date: Tue Jan 29 16:06:28 EST 2013
User: group
Dark Spectrum Present: No
Reference Spectrum Present: No
Number of Sampled Component Spectra: 1
Spectrometers: USB2E7196
Integration Time (usec): 65000 (USB2E7196)
Spectra Averaged: 100 (USB2E7196)
Boxcar Smoothing: 10 (USB2E7196)
Correct for Electrical Dark: No (USB2E7196)
Strobe/Lamp Enabled: No (USB2E7196)
Correct for Detector Non-linearity: No (USB2E7196)
Correct for Stray Light: No (USB2E7196)
Number of Pixels in Processed Spectrum: 2048
>>>>>Begin Processed Spectral Data<<<<<
339.09	0.00
339.48	202.26
339.86	204.02
340.24	205.42
340.63	206.83
341.01	211.00
341.39	209.73
341.78	211.48
342.16	213.08
342.54	212.51
342.93	201.76
343.31	211.97
343.69	212.54
344.07	213.02
344.46	213.49
344.84	213.88
345.22	214.07
345.60	214.34
345.99	214.53
346.37	214.64
346.75	214.75
347.13	214.84
347.52	214.93
347.90	215.09
348.28	215.10
348.66	215.19
349.05	215.20
349.43	215.26
349.81	215.33
350.19	215.39
350.57	215.47
350.96	215.56
351.34	215.64
351.72	215.74
352.10	215.85
352.48	215.90
352.87	215.98
353.25	216.08
353.63	216.13
354.01	216.16
354.39	216.24
354.77	216.32
355.15	216.47
355.54	216.54
355.92	216.55
356.30	216.61
356.68	216.82
357.06	216.89
357.44	216.95
357.82	217.02
358.20	217.11
358.58	217.20
358.97	217.26
359.35	217.37
359.73	217.47
360.11	217.52
360.49	217.58
360.87	217.62
361.25	217.69
361.63	217.83
362.01	217.92
362.39	217.97
362.77	218.04
363.15	218.05
363.53	218.09
363.91	218.12
364.29	218.18
364.67	218.00
365.05	218.01
365.43	218.07
365.81	218.07
366.19	218.17
366.57	218.22
366.95	218.23
367.33	218.20
367.71	218.20
368.09	218.26
368.47	218.26
368.85	218.27
369.23	218.29
369.61	218.15
369.99	218.18
370.37	218.18
370.75	218.24
371.13	218.19
371.51	218.11
371.89	218.11
372.27	218.10
372.65	218.09
373.03	218.06
373.41	218.02
373.78	218.00
374.16	217.85
374.54	217.78
374.92	217.73
375.30	217.70
375.68	217.60
376.06	217.54
376.44	217.50
376.82	217.45
377.19	217.37
377.57	217.37
377.95	217.26
378.33	217.21
378.71	217.07
379.09	217.05
379.47	217.00
379.84	216.93
380.22	216.87
380.60	216.80
380.98	216.77
381.36	216.70
381.73	216.64
382.11	216.65
382.49	216.62
382.87	216.54
383.25	216.50
383.62	216.70
384.00	216.61
384.38	216.56
384.76	216.55
385.13	216.63
385.51	216.56
385.89	216.51
386.27	216.47
386.64	216.45
387.02	216.39
387.40	216.38
387.78	216.34
388.15	216.32
388.53	216.30
388.91	216.25
389.29	216.22
389.66	216.20
390.04	216.14
390.42	216.15
390.79	216.13
391.17	216.09
391.55	215.86
391.92	215.83
392.30	215.87
392.68	215.79
393.05	215.75
393.43	215.76
393.81	215.78
394.18	215.73
394.56	215.73
394.94	215.78
395.31	215.76
395.69	215.81
396.06	215.84
396.44	215.87
396.82	215.88
397.19	215.99
397.57	215.99
397.95	216.05
398.32	215.98
398.70	216.07
399.07	216.15
399.45	216.18
399.82	216.25
400.20	216.27
400.58	216.34
400.95	216.34
401.33	216.46
401.70	216.69
402.08	216.78
402.45	216.88
402.83	217.01
403.20	217.14
403.58	217.24
403.95	217.38
404.33	217.55
404.71	217.67
405.08	217.90
405.46	218.04
405.83	218.24
406.21	218.45
406.58	218.64
406.96	218.86
407.33	219.09
407.70	219.38
408.08	219.83
408.45	220.19
408.83	220.59
409.20	220.91
409.58	221.15
409.95	221.60
410.33	222.05
410.70	222.44
411.08	222.94
411.45	223.49
411.82	224.01
412.20	224.64
412.57	225.46
412.95	226.04
413.32	226.86
413.69	227.64
414.07	228.51
414.44	229.47
414.82	230.46
415.19	231.63
415.56	232.73
415.94	233.86
416.31	235.22
416.68	236.54
417.06	238.10
417.43	239.60
417.81	241.29
418.18	243.00
418.55	244.86
418.93	246.85
419.30	248.90
419.67	251.07
420.04	253.26
420.42	255.55
420.79	258.28
421.16	261.00
421.54	263.80
421.91	266.70
422.28	269.71
422.66	272.91
423.03	276.09
423.40	279.37
423.77	282.84
424.15	286.39
424.52	290.11
424.89	294.10
425.26	298.05
425.64	301.75
426.01	305.95
426.38	310.28
426.75	314.72
427.13	319.25
427.50	324.10
427.87	329.15
428.24	334.16
428.61	338.98
428.99	344.37
429.36	350.21
429.73	355.90
430.10	361.55
430.47	367.37
430.85	373.48
431.22	379.98
431.59	386.89
431.96	393.38
432.33	400.58
432.70	407.63
433.08	415.84
433.45	423.70
433.82	431.43
434.19	440.00
434.56	448.35
434.93	456.40
435.30	464.37
435.68	473.15
436.05	481.75
436.42	490.32
436.79	498.14
437.16	506.60
437.53	515.52
437.90	524.33
438.27	532.96
438.64	541.81
439.01	550.01
439.38	557.29
439.75	564.43
440.13	572.56
440.50	580.15
440.87	586.36
441.24	592.67
441.61	599.69
441.98	604.87
442.35	610.96
442.72	616.95
443.09	622.77
443.46	626.41
443.83	628.88
444.20	631.00
444.57	633.90
444.94	635.29
445.31	636.69
445.68	638.00
446.05	638.54
446.42	637.72
446.79	636.77
447.16	635.67
447.53	634.90
447.90	631.66
448.27	628.48
448.64	623.94
449.01	620.72
449.37	615.03
449.74	609.54
450.11	602.83
450.48	595.78
450.85	588.54
451.22	582.21
451.59	576.34
451.96	570.73
452.33	563.19
452.70	556.30
453.07	548.11
453.43	539.85
453.80	531.93
454.17	524.25
454.54	517.01
454.91	509.20
455.28	501.59
455.65	494.49
456.02	487.32
456.38	481.25
456.75	473.76
457.12	467.44
457.49	461.26
457.86	455.38
458.23	450.23
458.59	444.60
458.96	438.91
459.33	433.77
459.70	428.61
460.07	424.54
460.43	419.85
460.80	415.49
461.17	411.69
461.54	407.63
461.91	403.78
462.27	399.84
462.64	396.50
463.01	392.81
463.38	389.25
463.74	385.63
464.11	382.53
464.48	379.79
464.85	376.82
465.21	374.40
465.58	371.84
465.95	368.81
466.32	366.30
466.68	363.79
467.05	361.32
467.42	358.88
467.78	356.31
468.15	353.82
468.52	352.00
468.88	349.56
469.25	347.47
469.62	345.76
469.98	343.91
470.35	342.18
470.72	340.55
471.08	338.83
471.45	337.44
471.82	335.97
472.18	334.41
472.55	333.28
472.92	331.98
473.28	330.81
473.65	329.73
474.02	328.62
474.38	327.77
474.75	327.07
475.11	326.29
475.48	325.76
475.85	325.37
476.21	324.88
476.58	324.59
476.94	324.37
477.31	324.10
477.67	323.83
478.04	323.71
478.41	323.68
478.77	323.85
479.14	323.81
479.50	323.99
479.87	324.24
480.23	324.60
480.60	324.87
480.96	325.13
481.33	325.77
481.69	326.35
482.06	326.90
482.42	327.35
482.79	327.98
483.15	328.79
483.52	329.77
483.88	330.71
484.25	331.68
484.61	332.69
484.98	333.72
485.34	335.06
485.71	336.42
486.07	337.92
486.44	339.27
486.80	340.91
487.17	342.57
487.53	344.38
487.90	346.22
488.26	348.27
488.62	350.47
488.99	352.50
489.35	354.65
489.72	357.01
490.08	359.56
490.44	362.13
490.81	364.76
491.17	367.44
491.54	370.41
491.90	373.41
492.26	376.65
492.63	380.07
492.99	383.56
493.36	387.22
493.72	391.06
494.08	395.03
494.45	399.22
494.81	403.57
495.17	408.07
495.54	412.75
495.90	417.52
496.26	422.50
496.63	427.69
496.99	433.07
497.35	438.61
497.72	444.37
498.08	450.25
498.44	456.33
498.80	462.70
499.17	469.21
499.53	475.86
499.89	482.71
500.26	489.66
500.62	496.71
500.98	504.08
501.34	511.53
501.71	519.31
502.07	527.15
502.43	535.16
502.79	543.28
503.16	551.70
503.52	560.32
503.88	568.91
504.24	577.78
504.60	586.82
504.97	596.09
505.33	605.37
505.69	615.18
506.05	625.08
506.41	634.97
506.78	644.90
507.14	655.15
507.50	665.54
507.86	676.21
508.22	686.96
508.59	697.57
508.95	708.53
509.31	719.76
509.67	731.08
510.03	742.45
510.39	754.14
510.75	765.92
511.12	777.71
511.48	789.80
511.84	802.07
512.20	814.41
512.56	826.97
512.92	839.66
513.28	852.24
513.64	864.89
514.00	877.50
514.37	890.34
514.73	903.29
515.09	916.16
515.45	928.80
515.81	941.66
516.17	954.87
516.53	967.98
516.89	980.86
517.25	993.90
517.61	1007.30
517.97	1020.46
518.33	1033.42
518.69	1046.77
519.05	1060.24
519.41	1073.73
519.77	1087.45
520.13	1100.49
520.49	1113.48
520.85	1126.56
521.21	1139.62
521.57	1153.20
521.93	1166.23
522.29	1179.81
522.65	1193.24
523.01	1206.77
523.37	1219.69
523.73	1232.78
524.09	1245.70
524.45	1258.97
524.81	1272.19
525.17	1285.23
525.53	1298.25
525.89	1311.31
526.25	1324.18
526.61	1336.87
526.97	1349.67
527.33	1362.26
527.68	1375.49
528.04	1388.66
528.40	1401.57
528.76	1414.70
529.12	1427.24
529.48	1440.28
529.84	1452.28
530.20	1464.81
530.56	1477.14
530.91	1490.22
531.27	1502.82
531.63	1515.35
531.99	1527.70
532.35	1539.56
532.71	1551.70
533.07	1564.11
533.42	1575.94
533.78	1587.78
534.14	1599.48
534.50	1610.49
534.86	1621.80
535.21	1632.31
535.57	1643.44
535.93	1654.52
536.29	1665.33
536.65	1676.43
537.00	1687.10
537.36	1698.19
537.72	1708.92
538.08	1719.95
538.44	1730.59
538.79	1741.29
539.15	1751.76
539.51	1762.22
539.87	1773.39
540.22	1783.78
540.58	1794.54
540.94	1805.18
541.29	1815.14
541.65	1824.73
542.01	1835.01
542.37	1844.70
542.72	1854.58
543.08	1864.26
543.44	1874.36
543.79	1883.41
544.15	1892.69
544.51	1902.38
544.87	1911.96
545.22	1920.79
545.58	1929.29
545.94	1937.87
546.29	1946.17
546.65	1954.34
547.01	1962.36
547.36	1969.82
547.72	1977.39
548.07	1984.75
548.43	1992.27
548.79	2000.05
549.14	2007.90
549.50	2015.89
549.86	2023.53
550.21	2030.70
550.57	2038.09
550.92	2044.75
551.28	2052.07
551.64	2059.07
551.99	2066.33
552.35	2073.22
552.70	2079.95
553.06	2086.60
553.41	2092.60
553.77	2099.02
554.13	2105.26
554.48	2112.23
554.84	2119.00
555.19	2125.35
555.55	2131.70
555.90	2137.77
556.26	2144.25
556.61	2149.89
556.97	2154.72
557.32	2160.47
557.68	2166.89
558.03	2172.44
558.39	2177.51
558.74	2183.39
559.10	2188.88
559.45	2194.23
559.81	2199.79
560.16	2205.18
560.52	2211.02
560.87	2217.42
561.23	2223.28
561.58	2229.95
561.94	2234.99
562.29	2239.86
562.64	2246.09
563.00	2251.64
563.35	2257.42
563.71	2263.22
564.06	2269.01
564.42	2274.90
564.77	2280.05
565.12	2285.27
565.48	2290.55
565.83	2296.21
566.19	2301.67
566.54	2307.16
566.89	2311.93
567.25	2316.55
567.60	2322.29
567.96	2327.46
568.31	2332.21
568.66	2336.64
569.02	2340.42
569.37	2344.37
569.72	2348.77
570.08	2352.34
570.43	2355.60
570.78	2358.50
571.14	2361.30
571.49	2364.63
571.84	2368.34
572.20	2371.18
572.55	2374.33
572.90	2376.54
573.26	2379.64
573.61	2382.10
573.96	2384.30
574.31	2386.46
574.67	2388.63
575.02	2389.65
575.37	2391.12
575.72	2392.15
576.08	2393.60
576.43	2394.11
576.78	2394.84
577.13	2396.67
577.49	2397.67
577.84	2398.94
578.19	2400.76
578.54	2401.49
578.90	2402.63
579.25	2402.74
579.60	2403.13
579.95	2402.53
580.30	2403.09
580.66	2402.50
581.01	2401.13
581.36	2399.19
581.71	2397.96
582.06	2397.11
582.42	2396.49
582.77	2394.64
583.12	2393.11
583.47	2392.06
583.82	2391.72
584.17	2390.62
584.53	2388.66
584.88	2387.09
585.23	2385.28
585.58	2383.11
585.93	2381.12
586.28	2379.08
586.63	2376.88
586.98	2374.83
587.34	2373.23
587.69	2371.03
588.04	2369.19
588.39	2367.90
588.74	2365.65
589.09	2363.27
589.44	2360.14
589.79	2357.90
590.14	2356.26
590.49	2353.55
590.84	2350.01
591.19	2347.12
591.54	2343.98
591.89	2340.11
592.25	2337.01
592.60	2332.98
592.95	2328.95
593.30	2324.84
593.65	2320.39
594.00	2316.04
594.35	2312.96
594.70	2308.30
595.05	2303.74
595.40	2298.37
595.75	2292.92
596.10	2289.26
596.45	2284.42
596.80	2280.06
597.15	2274.81
597.50	2268.89
597.85	2264.06
598.19	2258.87
598.54	2253.21
598.89	2248.14
599.24	2243.89
599.59	2237.72
599.94	2232.17
600.29	2226.43
600.64	2220.77
600.99	2214.29
601.34	2209.14
601.69	2202.39
602.04	2196.05
602.39	2189.68
602.74	2183.81
603.08	2178.26
603.43	2171.77
603.78	2165.13
604.13	2158.05
604.48	2151.01
604.83	2144.93
605.18	2138.67
605.53	2131.84
605.87	2124.85
606.22	2118.12
606.57	2110.08
606.92	2102.41
607.27	2095.57
607.62	2089.03
607.96	2082.04
608.31	2075.61
608.66	2067.74
609.01	2060.25
609.36	2053.31
609.70	2045.58
610.05	2037.99
610.40	2029.86
610.75	2021.82
611.10	2014.21
611.44	2005.56
611.79	1996.67
612.14	1986.70
612.49	1976.32
612.83	1967.14
613.18	1957.97
613.53	1948.60
613.88	1939.19
614.22	1930.51
614.57	1920.50
614.92	1910.03
615.27	1899.98
615.61	1890.05
615.96	1880.42
616.31	1870.81
616.65	1861.52
617.00	1851.74
617.35	1842.05
617.70	1832.39
618.04	1822.21
618.39	1811.85
618.74	1802.17
619.08	1792.76
619.43	1784.14
619.78	1775.87
620.12	1767.10
620.47	1757.35
620.82	1747.23
621.16	1737.39
621.51	1727.56
621.85	1717.92
622.20	1707.51
622.55	1697.01
622.89	1687.07
623.24	1677.39
623.59	1667.51
623.93	1657.27
624.28	1647.52
624.62	1637.32
624.97	1626.96
625.32	1617.32
625.66	1608.50
626.01	1599.66
626.35	1590.17
626.70	1580.04
627.04	1569.85
627.39	1559.85
627.73	1550.67
628.08	1541.62
628.43	1531.95
628.77	1522.77
629.12	1513.81
629.46	1505.78
629.81	1497.29
630.15	1487.62
630.50	1477.70
630.84	1467.25
631.19	1457.42
631.53	1448.07
631.88	1437.80
632.22	1427.72
632.57	1418.39
632.91	1408.24
633.26	1398.29
633.60	1388.77
633.95	1379.45
634.29	1370.10
634.64	1360.63
634.98	1350.54
635.32	1341.22
635.67	1332.66
636.01	1323.26
636.36	1313.37
636.70	1303.91
637.05	1294.60
637.39	1285.72
637.73	1277.14
638.08	1269.61
638.42	1261.32
638.77	1252.57
639.11	1244.43
639.45	1236.61
639.80	1227.87
640.14	1219.18
640.49	1210.30
640.83	1201.54
641.17	1193.49
641.52	1185.21
641.86	1176.66
642.20	1168.97
642.55	1160.37
642.89	1151.55
643.23	1142.89
643.58	1134.80
643.92	1125.75
644.26	1117.04
644.61	1108.58
644.95	1099.77
645.29	1090.55
645.64	1081.34
645.98	1072.87
646.32	1064.86
646.66	1056.40
647.01	1048.02
647.35	1039.95
647.69	1031.58
648.04	1023.23
648.38	1014.24
648.72	1005.53
649.06	997.12
649.41	988.82
649.75	980.84
650.09	973.04
650.43	965.00
650.78	956.85
651.12	949.19
651.46	941.81
651.80	934.57
652.14	927.27
652.49	919.72
652.83	912.48
653.17	904.77
653.51	897.14
653.85	889.85
654.20	882.63
654.54	875.00
654.88	867.86
655.22	860.75
655.56	853.90
655.90	847.16
656.25	840.45
656.59	833.54
656.93	826.57
657.27	819.49
657.61	812.64
657.95	806.56
658.29	800.77
658.64	794.68
658.98	788.24
659.32	781.75
659.66	775.54
660.00	769.21
660.34	763.24
660.68	757.17
661.02	750.99
661.36	745.19
661.70	739.51
662.05	733.93
662.39	728.46
662.73	723.09
663.07	717.69
663.41	712.23
663.75	706.65
664.09	701.05
664.43	695.65
664.77	690.37
665.11	684.58
665.45	678.66
665.79	672.90
666.13	667.28
666.47	661.85
666.81	656.57
667.15	651.27
667.49	646.13
667.83	640.93
668.17	635.69
668.51	630.52
668.85	625.67
669.19	620.77
669.53	615.82
669.87	610.74
670.21	606.08
670.55	601.32
670.89	596.92
671.23	592.73
671.57	588.41
671.91	584.12
672.25	580.04
672.58	575.99
672.92	572.00
673.26	568.11
673.60	564.28
673.94	560.54
674.28	556.95
674.62	553.22
674.96	549.65
675.30	546.24
675.64	542.69
675.97	539.18
676.31	535.65
676.65	532.08
676.99	528.66
677.33	524.92
677.67	521.34
678.01	517.57
678.34	513.89
678.68	510.44
679.02	506.84
679.36	503.16
679.70	499.58
680.04	496.04
680.37	492.70
680.71	489.39
681.05	486.20
681.39	483.02
681.73	479.94
682.06	476.89
682.40	473.82
682.74	470.66
683.08	467.51
683.42	464.40
683.75	461.50
684.09	458.61
684.43	455.83
684.77	452.98
685.10	450.18
685.44	447.32
685.78	444.41
686.12	441.76
686.45	439.07
686.79	436.43
687.13	433.93
687.46	431.34
687.80	428.76
688.14	425.98
688.48	423.43
688.81	420.77
689.15	418.25
689.49	415.74
689.82	413.28
690.16	410.75
690.50	408.35
690.83	405.92
691.17	403.41
691.51	400.99
691.84	398.79
692.18	396.62
692.52	394.49
692.85	392.43
693.19	390.32
693.52	388.21
693.86	386.05
694.20	383.91
694.53	381.84
694.87	379.66
695.21	377.61
695.54	375.48
695.88	373.36
696.21	371.19
696.55	369.08
696.88	367.06
697.22	365.13
697.56	363.25
697.89	361.35
698.23	359.65
698.56	357.90
698.90	356.16
699.23	354.25
699.57	352.39
699.90	350.60
700.24	348.85
700.58	347.12
700.91	345.55
701.25	344.05
701.58	342.44
701.92	340.89
702.25	339.33
702.59	337.78
702.92	336.27
703.26	334.74
703.59	333.29
703.93	332.06
704.26	330.62
704.60	329.14
704.93	327.71
705.26	326.24
705.60	324.79
705.93	323.32
706.27	322.07
706.60	320.87
706.94	319.65
707.27	318.27
707.61	317.02
707.94	315.67
708.27	314.13
708.61	312.73
708.94	311.42
709.28	310.17
709.61	308.93
709.94	307.78
710.28	306.61
710.61	305.46
710.95	304.06
711.28	303.03
711.61	301.88
711.95	300.78
712.28	299.64
712.61	298.51
712.95	297.46
713.28	296.41
713.61	295.30
713.95	294.17
714.28	293.21
714.61	292.16
714.95	291.19
715.28	290.22
715.61	289.27
715.95	288.37
716.28	287.42
716.61	286.48
716.95	285.53
717.28	284.64
717.61	283.70
717.94	282.85
718.28	281.87
718.61	281.02
718.94	280.11
719.27	279.28
719.61	278.51
719.94	277.69
720.27	276.78
720.60	275.92
720.94	275.14
721.27	274.38
721.60	273.69
721.93	272.98
722.27	272.39
722.60	271.69
722.93	270.96
723.26	270.33
723.59	269.64
723.93	269.02
724.26	268.37
724.59	267.72
724.92	267.17
725.25	266.64
725.59	266.10
725.92	265.63
726.25	265.10
726.58	264.53
726.91	263.94
727.24	263.45
727.57	262.89
727.91	262.29
728.24	261.75
728.57	261.22
728.90	260.67
729.23	260.07
729.56	259.69
729.89	259.18
730.22	258.63
730.55	258.11
730.89	257.60
731.22	257.08
731.55	256.60
731.88	256.04
732.21	255.50
732.54	254.98
732.87	254.47
733.20	253.99
733.53	253.52
733.86	253.10
734.19	252.62
734.52	252.24
734.85	251.99
735.18	251.55
735.51	251.18
735.84	250.76
736.17	250.36
736.50	249.83
736.83	249.68
737.16	249.32
737.49	248.97
737.82	248.58
738.15	248.25
738.48	247.88
738.81	247.52
739.14	247.12
739.47	246.73
739.80	246.36
740.13	246.02
740.46	245.63
740.79	245.26
741.12	244.90
741.45	244.57
741.78	244.09
742.11	243.84
742.44	243.45
742.77	243.22
743.10	242.90
743.43	242.55
743.75	242.01
744.08	241.96
744.41	241.56
744.74	241.21
745.07	240.87
745.40	240.60
745.73	240.40
746.06	240.09
746.39	239.87
746.71	239.54
747.04	239.18
747.37	238.86
747.70	238.57
748.03	238.31
748.36	238.01
748.68	237.74
749.01	237.38
749.34	237.10
749.67	236.76
750.00	236.52
750.33	236.41
750.65	236.13
750.98	235.58
751.31	235.40
751.64	235.16
751.97	235.02
752.29	234.74
752.62	234.36
752.95	234.13
753.28	233.81
753.60	233.58
753.93	233.43
754.26	233.24
754.59	232.97
754.91	232.70
755.24	232.47
755.57	232.25
755.90	232.01
756.22	231.75
756.55	231.49
756.88	231.21
757.20	230.86
757.53	230.62
757.86	230.44
758.19	230.22
758.51	230.01
758.84	229.72
759.17	229.53
759.49	229.40
759.82	229.31
760.15	229.16
760.47	228.99
760.80	228.73
761.13	228.58
761.45	228.39
761.78	228.24
762.11	228.11
762.43	227.91
762.76	227.74
763.08	227.64
763.41	227.53
763.74	227.42
764.06	227.28
764.39	227.16
764.71	227.02
765.04	226.85
765.37	226.71
765.69	226.57
766.02	226.42
766.34	226.28
766.67	226.10
767.00	226.03
767.32	226.01
767.65	226.04
767.97	225.93
768.30	225.82
768.62	225.71
768.95	225.55
769.27	225.46
769.60	225.37
769.92	225.21
770.25	225.04
770.57	224.89
770.90	224.75
771.22	224.63
771.55	224.51
771.87	224.44
772.20	224.32
772.52	224.40
772.85	224.54
773.17	224.43
773.50	224.32
773.82	224.17
774.15	223.96
774.47	223.70
774.80	223.58
775.12	223.50
775.45	223.35
775.77	223.29
776.09	223.20
776.42	223.15
776.74	223.12
777.07	223.04
777.39	222.96
777.72	222.88
778.04	222.82
778.36	222.71
778.69	222.60
779.01	222.52
779.33	222.27
779.66	221.98
779.98	221.89
780.31	221.81
780.63	221.80
780.95	221.76
781.28	221.68
781.60	221.58
781.92	221.52
782.25	221.47
782.57	221.38
782.89	221.31
783.22	221.24
783.54	221.13
783.86	221.08
784.19	221.02
784.51	221.02
784.83	220.94
785.16	220.88
785.48	220.83
785.80	220.80
786.12	220.76
786.45	220.69
786.77	220.66
787.09	220.61
787.42	220.50
787.74	220.43
788.06	220.41
788.38	220.38
788.71	220.29
789.03	220.25
789.35	220.22
789.67	220.13
789.99	220.04
790.32	219.99
790.64	219.96
790.96	220.08
791.28	219.96
791.61	219.87
791.93	219.89
792.25	219.89
792.57	219.96
792.89	219.83
793.21	219.82
793.54	219.76
793.86	219.69
794.18	219.66
794.50	219.60
794.82	219.57
795.14	219.52
795.47	219.56
795.79	219.50
796.11	219.42
796.43	219.39
796.75	219.36
797.07	219.31
797.39	219.24
797.71	219.06
798.04	219.03
798.36	219.02
798.68	218.94
799.00	218.89
799.32	218.75
799.64	218.78
799.96	218.72
800.28	218.71
800.60	218.65
800.92	218.66
801.24	218.57
801.56	218.54
801.89	218.51
802.21	218.47
802.53	218.43
802.85	218.46
803.17	218.51
803.49	218.41
803.81	218.38
804.13	218.35
804.45	218.30
804.77	218.30
805.09	218.26
805.41	218.20
805.73	218.11
806.05	218.06
806.37	218.03
806.69	218.01
807.01	217.95
807.33	217.95
807.65	217.80
807.97	217.90
808.28	217.84
808.60	217.83
808.92	217.75
809.24	217.86
809.56	217.77
809.88	217.68
810.20	217.71
810.52	217.72
810.84	217.66
811.16	217.62
811.48	217.58
811.80	217.61
812.12	217.60
812.43	217.63
812.75	217.57
813.07	217.52
813.39	217.49
813.71	217.47
814.03	217.40
814.35	217.40
814.67	217.29
814.98	217.27
815.30	217.23
815.62	217.18
815.94	217.02
816.26	217.06
816.58	217.01
816.89	217.00
817.21	216.92
817.53	216.95
817.85	216.95
818.17	216.90
818.48	216.86
818.80	216.88
819.12	216.81
819.44	216.77
819.76	216.72
820.07	216.70
820.39	216.66
820.71	216.68
821.03	216.68
821.34	216.65
821.66	216.64
821.98	216.65
822.30	216.64
822.61	216.76
822.93	216.69
823.25	216.68
823.57	216.62
823.88	216.66
824.20	216.63
824.52	216.64
824.83	216.65
825.15	216.60
825.47	216.60
825.79	216.62
826.10	216.60
826.42	216.58
826.74	216.59
827.05	216.58
827.37	216.57
827.69	216.53
828.00	216.51
828.32	216.49
828.64	216.45
828.95	216.55
829.27	216.49
829.58	216.46
829.90	216.44
830.22	216.46
830.53	216.38
830.85	216.36
831.17	216.30
831.48	216.29
831.80	216.28
832.11	216.22
832.43	216.15
832.75	216.18
833.06	216.31
833.38	216.24
833.69	216.24
834.01	216.24
834.32	216.24
834.64	216.25
834.96	216.24
835.27	216.28
835.59	216.19
835.90	216.13
836.22	216.13
836.53	216.13
836.85	216.10
837.16	216.31
837.48	216.31
837.79	216.36
838.11	216.36
838.42	216.37
838.74	216.38
839.05	216.42
839.37	216.40
839.68	216.28
840.00	216.25
840.31	216.24
840.63	216.20
840.94	216.17
841.26	216.14
841.57	216.13
841.88	216.10
842.20	216.07
842.51	216.03
842.83	216.03
843.14	216.20
843.46	216.21
843.77	216.08
844.08	216.06
844.40	215.97
844.71	215.94
845.03	215.92
845.34	215.90
845.65	215.86
845.97	215.85
846.28	215.84
846.60	215.86
846.91	215.80
847.22	215.80
847.54	215.85
847.85	215.88
848.16	215.82
848.48	215.80
848.79	215.88
849.10	215.93
849.42	215.93
849.73	215.73
850.04	215.74
850.36	215.64
850.67	215.69
850.98	215.71
851.30	215.68
851.61	215.65
851.92	215.65
852.23	215.73
852.55	215.74
852.86	215.71
853.17	215.74
853.49	215.82
853.80	215.83
854.11	215.83
854.42	215.83
854.74	215.83
855.05	215.79
855.36	215.65
855.67	215.63
855.99	215.62
856.30	215.85
856.61	215.80
856.92	215.84
857.23	215.82
857.55	215.76
857.86	215.77
858.17	215.80
858.48	215.75
858.79	215.68
859.11	215.69
859.42	215.69
859.73	215.67
860.04	215.65
860.35	215.58
860.66	215.57
860.98	215.53
861.29	215.59
861.60	215.59
861.91	215.63
862.22	215.60
862.53	215.55
862.84	215.32
863.16	215.39
863.47	215.30
863.78	215.27
864.09	215.30
864.40	215.29
864.71	215.32
865.02	215.34
865.33	215.32
865.64	215.29
865.95	215.31
866.27	215.41
866.58	215.39
866.89	215.42
867.20	215.37
867.51	215.36
867.82	215.32
868.13	215.39
868.44	215.37
868.75	215.41
869.06	215.41
869.37	215.42
869.68	215.32
869.99	215.38
870.30	215.42
870.61	215.45
870.92	215.44
871.23	215.40
871.54	215.43
871.85	215.47
872.16	215.49
872.47	215.46
872.78	215.36
873.09	215.37
873.40	215.36
873.71	215.35
874.02	215.39
874.33	215.39
874.64	215.36
874.95	215.37
875.26	215.30
875.56	215.31
875.87	215.29
876.18	215.33
876.49	215.52
876.80	215.48
877.11	215.43
877.42	215.41
877.73	215.39
878.04	215.37
878.35	215.38
878.66	215.38
878.96	215.39
879.27	215.35
879.58	215.33
879.89	215.35
880.20	215.44
880.51	215.39
880.82	215.40
881.12	215.42
881.43	215.42
881.74	215.42
882.05	215.41
882.36	215.44
882.67	215.45
882.97	215.23
883.28	215.21
883.59	215.21
883.90	215.28
884.21	215.32
884.51	215.32
884.82	215.30
885.13	215.29
885.44	215.28
885.74	215.33
886.05	215.32
886.36	215.31
886.67	215.22
886.98	215.33
887.28	215.33
887.59	215.31
887.90	215.30
888.20	215.31
888.51	215.37
888.82	215.32
889.13	215.32
889.43	215.51
889.74	215.50
890.05	215.50
890.35	215.45
890.66	215.44
890.97	215.42
891.28	215.37
891.58	215.38
891.89	215.38
892.20	215.35
892.50	215.35
892.81	215.37
893.12	215.39
893.42	215.33
893.73	215.33
894.04	215.35
894.34	215.35
894.65	215.33
894.95	215.31
895.26	215.35
895.57	215.44
895.87	215.26
896.18	215.30
896.48	215.31
896.79	215.32
897.10	215.36
897.40	215.39
897.71	215.43
898.01	215.39
898.32	215.41
898.63	215.40
898.93	215.40
899.24	215.39
899.54	215.40
899.85	215.37
900.15	215.35
900.46	215.33
900.76	215.34
901.07	215.32
901.38	215.29
901.68	215.28
901.99	215.15
902.29	215.15
902.60	215.12
902.90	215.13
903.21	215.14
903.51	215.08
903.82	215.10
904.12	215.07
904.43	215.10
904.73	215.08
905.03	215.08
905.34	215.28
905.64	215.27
905.95	215.26
906.25	215.24
906.56	215.22
906.86	215.21
907.17	215.20
907.47	215.24
907.77	215.21
908.08	215.19
908.38	215.22
908.69	215.23
908.99	215.26
909.30	215.27
909.60	215.27
909.90	215.30
910.21	215.25
910.51	215.25
910.81	215.24
911.12	215.27
911.42	215.28
911.73	215.03
912.03	215.05
912.33	215.07
912.64	215.09
912.94	215.10
913.24	215.06
913.55	215.06
913.85	215.06
914.15	215.12
914.46	215.12
914.76	215.06
915.06	215.04
915.37	215.00
915.67	214.99
915.97	215.01
916.27	214.90
916.58	214.90
916.88	214.86
917.18	214.83
917.49	214.93
917.79	214.93
918.09	214.97
918.39	215.00
918.70	214.99
919.00	214.99
919.30	215.06
919.60	215.03
919.91	215.00
920.21	214.98
920.51	214.95
920.81	214.96
921.12	215.03
921.42	215.00
921.72	215.02
922.02	215.02
922.32	215.01
922.63	215.06
922.93	215.15
923.23	215.18
923.53	215.17
923.83	215.04
924.13	215.08
924.44	215.07
924.74	215.11
925.04	215.14
925.34	215.13
925.64	215.06
925.94	215.07
926.24	215.20
926.55	215.18
926.85	215.19
927.15	215.19
927.45	215.17
927.75	215.24
928.05	215.21
928.35	215.20
928.65	215.24
928.95	215.23
929.26	215.16
929.56	215.23
929.86	215.26
930.16	215.27
930.46	215.21
930.76	215.21
931.06	215.11
931.36	215.03
931.66	215.02
931.96	215.03
932.26	215.06
932.56	214.98
932.86	215.00
933.16	215.01
933.46	214.96
933.76	214.95
934.06	214.97
934.36	215.07
934.66	215.07
934.96	215.05
935.26	215.08
935.56	215.13
935.86	215.07
936.16	215.07
936.46	215.04
936.76	215.06
937.06	215.05
937.36	215.07
937.66	215.10
937.96	215.14
938.26	215.12
938.56	215.09
938.86	215.08
939.16	215.11
939.46	215.14
939.76	215.16
940.06	215.16
940.35	215.09
940.65	214.98
940.95	214.99
941.25	214.95
941.55	214.92
941.85	214.91
942.15	214.93
942.45	214.98
942.75	215.02
943.04	215.01
943.34	215.06
943.64	215.05
943.94	215.03
944.24	215.00
944.54	215.01
944.84	215.00
945.13	214.99
945.43	214.95
945.73	214.91
946.03	214.90
946.33	214.86
946.62	214.87
946.92	214.86
947.22	214.86
947.52	214.88
947.82	214.92
948.11	214.86
948.41	214.81
948.71	214.73
949.01	214.71
949.31	214.70
949.60	214.68
949.90	214.70
950.20	214.72
950.50	214.72
950.79	214.71
951.09	214.74
951.39	214.71
951.69	214.71
951.98	214.76
952.28	214.80
952.58	214.80
952.87	214.80
953.17	214.81
953.47	214.78
953.76	214.76
954.06	214.71
954.36	214.67
954.66	214.66
954.95	214.70
955.25	214.70
955.55	214.72
955.84	214.71
956.14	214.71
956.44	214.69
956.73	214.66
957.03	214.70
957.32	214.68
957.62	214.71
957.92	214.76
958.21	214.74
958.51	214.97
958.81	214.98
959.10	215.00
959.40	215.08
959.69	215.12
959.99	215.16
960.29	215.15
960.58	215.18
960.88	215.27
961.17	215.25
961.47	215.29
961.76	215.27
962.06	215.26
962.36	215.24
962.65	215.25
962.95	215.28
963.24	215.23
963.54	215.27
963.83	215.25
964.13	215.24
964.42	215.17
964.72	214.99
965.01	215.02
965.31	215.01
965.60	214.91
965.90	215.02
966.19	214.96
966.49	214.98
966.78	215.00
967.08	214.98
967.37	214.98
967.67	214.94
967.96	214.95
968.26	214.93
968.55	214.96
968.85	214.95
969.14	214.91
969.43	214.94
969.73	214.91
970.02	214.91
970.32	214.87
970.61	214.89
970.91	214.82
971.20	214.78
971.49	214.77
971.79	214.81
972.08	214.68
972.38	214.74
972.67	214.74
972.96	214.74
973.26	214.68
973.55	214.79
973.85	214.77
974.14	214.74
974.43	214.76
974.73	214.70
975.02	214.72
975.31	214.75
975.61	214.74
975.90	214.70
976.19	214.70
976.49	214.74
976.78	214.73
977.07	214.75
977.37	214.78
977.66	214.80
977.95	214.79
978.24	214.78
978.54	214.79
978.83	214.74
979.12	214.72
979.42	214.73
979.71	214.65
980.00	214.65
980.29	214.68
980.59	214.65
980.88	214.72
981.17	214.68
981.46	214.67
981.76	214.70
982.05	214.78
982.34	214.80
982.63	214.77
982.93	214.79
983.22	214.84
983.51	214.82
983.80	214.86
984.09	214.87
984.39	214.83
984.68	214.83
984.97	214.89
985.26	214.90
985.55	214.92
985.85	214.87
986.14	214.89
986.43	214.92
986.72	214.93
987.01	214.84
987.30	214.87
987.59	214.86
987.89	214.85
988.18	214.75
988.47	214.74
988.76	214.74
989.05	214.69
989.34	214.71
989.63	214.78
989.92	214.73
990.22	214.72
990.51	214.78
990.80	214.73
991.09	214.73
991.38	214.76
991.67	214.76
991.96	214.74
992.25	214.73
992.54	214.68
992.83	214.67
993.12	214.72
993.41	214.75
993.70	214.82
993.99	214.82
994.28	214.88
994.58	214.90
994.87	214.87
995.16	214.91
995.45	214.85
995.74	214.78
996.03	214.82
996.32	214.83
996.61	214.85
996.90	214.85
997.19	214.84
997.48	214.84
997.77	214.81
998.06	214.84
998.34	214.82
998.63	214.83
998.92	214.82
999.21	214.84
999.50	214.84
999.79	214.76
1000.08	214.76
1000.37	214.76
1000.66	214.72
1000.95	214.81
1001.24	214.77
1001.53	214.82
1001.82	214.79
1002.11	214.72
1002.40	214.75
1002.68	214.82
1002.97	214.97
1003.26	214.97
1003.55	214.93
1003.84	214.95
1004.13	215.01
1004.42	215.03
1004.71	215.05
1004.99	215.04
1005.28	215.06
1005.57	215.05
1005.86	215.05
1006.15	215.00
1006.44	214.95
1006.72	214.98
1007.01	214.93
1007.30	214.97
1007.59	214.95
1007.88	214.96
1008.17	214.97
1008.45	214.90
1008.74	214.78
1009.03	214.67
1009.32	214.64
1009.60	214.63
1009.89	214.64
1010.18	214.58
1010.47	214.58
1010.76	214.58
1011.04	214.58
1011.33	214.63
1011.62	214.65
1011.91	214.63
1012.19	214.68
1012.48	214.73
1012.77	214.75
1013.05	214.81
1013.34	214.80
1013.63	214.77
1013.92	214.78
1014.20	214.79
1014.49	214.83
1014.78	214.84
1015.06	214.76
1015.35	214.78
1015.64	214.82
1015.92	214.85
1016.21	214.85
1016.50	214.84
1016.78	214.86
1017.07	214.89
1017.36	214.80
1017.64	214.76
1017.93	214.79
1018.22	214.75
1018.50	214.72
1018.79	214.70
1019.08	214.62
1019.36	214.65
1019.65	214.63
1019.93	214.68
1020.22	214.68
1020.51	214.77
1020.79	214.75
1021.08	214.27
1021.36	214.22
1021.65	214.52
1021.94	214.48
1022.22	215.38
1022.51	214.17
1022.79	215.31
1023.08	214.63
1023.36	216.90
1023.65	214.07
>>>>>End Processed Spectral Data<<<<<
