SpectraSuite Data File
++++++++++++++++++++++++++++++++++++
Date: Tue Jan 29 16:32:01 EST 2013
User: group
Dark Spectrum Present: No
Reference Spectrum Present: No
Number of Sampled Component Spectra: 1
Spectrometers: USB2E7196
Integration Time (usec): 65000 (USB2E7196)
Spectra Averaged: 100 (USB2E7196)
Boxcar Smoothing: 10 (USB2E7196)
Correct for Electrical Dark: No (USB2E7196)
Strobe/Lamp Enabled: No (USB2E7196)
Correct for Detector Non-linearity: No (USB2E7196)
Correct for Stray Light: No (USB2E7196)
Number of Pixels in Processed Spectrum: 2048
>>>>>Begin Processed Spectral Data<<<<<
339.09	0.00
339.48	201.53
339.86	203.25
340.24	203.90
340.63	206.11
341.01	210.31
341.39	208.71
341.78	210.00
342.16	211.90
342.54	211.76
342.93	200.90
343.31	211.06
343.69	211.63
344.07	212.08
344.46	212.58
344.84	212.98
345.22	213.17
345.60	213.44
345.99	213.64
346.37	213.77
346.75	213.88
347.13	213.97
347.52	214.05
347.90	214.18
348.28	214.23
348.66	214.32
349.05	214.32
349.43	214.36
349.81	214.41
350.19	214.42
350.57	214.49
350.96	214.58
351.34	214.68
351.72	214.79
352.10	214.91
352.48	214.97
352.87	215.02
353.25	215.08
353.63	215.16
354.01	215.25
354.39	215.34
354.77	215.41
355.15	215.55
355.54	215.61
355.92	215.61
356.30	215.72
356.68	215.96
357.06	216.07
357.44	216.15
357.82	216.26
358.20	216.41
358.58	216.49
358.97	216.57
359.35	216.69
359.73	216.81
360.11	216.90
360.49	216.94
360.87	217.04
361.25	217.13
361.63	217.28
362.01	217.35
362.39	217.41
362.77	217.49
363.15	217.54
363.53	217.58
363.91	217.62
364.29	217.66
364.67	217.48
365.05	217.54
365.43	217.57
365.81	217.58
366.19	217.69
366.57	217.80
366.95	217.82
367.33	217.78
367.71	217.77
368.09	217.79
368.47	217.83
368.85	217.81
369.23	217.81
369.61	217.72
369.99	217.77
370.37	217.75
370.75	217.83
371.13	217.77
371.51	217.75
371.89	217.77
372.27	217.75
372.65	217.73
373.03	217.68
373.41	217.64
373.78	217.61
374.16	217.46
374.54	217.36
374.92	217.30
375.30	217.29
375.68	217.20
376.06	217.17
376.44	217.13
376.82	217.10
377.19	217.06
377.57	217.01
377.95	216.88
378.33	216.83
378.71	216.68
379.09	216.63
379.47	216.59
379.84	216.50
380.22	216.44
380.60	216.34
380.98	216.29
381.36	216.24
381.73	216.18
382.11	216.17
382.49	216.11
382.87	216.02
383.25	215.96
383.62	216.17
384.00	216.09
384.38	216.05
384.76	216.05
385.13	216.06
385.51	215.98
385.89	215.91
386.27	215.88
386.64	215.86
387.02	215.80
387.40	215.74
387.78	215.72
388.15	215.67
388.53	215.64
388.91	215.61
389.29	215.57
389.66	215.53
390.04	215.46
390.42	215.49
390.79	215.49
391.17	215.46
391.55	215.20
391.92	215.17
392.30	215.14
392.68	215.06
393.05	215.04
393.43	215.08
393.81	215.13
394.18	215.11
394.56	215.09
394.94	215.14
395.31	215.15
395.69	215.22
396.06	215.26
396.44	215.29
396.82	215.30
397.19	215.44
397.57	215.46
397.95	215.52
398.32	215.49
398.70	215.54
399.07	215.65
399.45	215.67
399.82	215.72
400.20	215.78
400.58	215.87
400.95	215.87
401.33	215.96
401.70	216.16
402.08	216.23
402.45	216.33
402.83	216.47
403.20	216.61
403.58	216.67
403.95	216.83
404.33	217.02
404.71	217.21
405.08	217.43
405.46	217.61
405.83	217.79
406.21	218.00
406.58	218.22
406.96	218.40
407.33	218.68
407.70	218.97
408.08	219.40
408.45	219.71
408.83	220.09
409.20	220.41
409.58	220.66
409.95	221.12
410.33	221.61
410.70	222.01
411.08	222.54
411.45	223.11
411.82	223.68
412.20	224.34
412.57	225.17
412.95	225.77
413.32	226.59
413.69	227.46
414.07	228.36
414.44	229.37
414.82	230.39
415.19	231.61
415.56	232.81
415.94	234.00
416.31	235.44
416.68	236.83
417.06	238.45
417.43	240.00
417.81	241.75
418.18	243.54
418.55	245.50
418.93	247.52
419.30	249.61
419.67	251.86
420.04	254.12
420.42	256.47
420.79	259.29
421.16	262.05
421.54	264.96
421.91	267.98
422.28	271.08
422.66	274.38
423.03	277.60
423.40	280.97
423.77	284.55
424.15	288.20
424.52	292.07
424.89	296.31
425.26	300.43
425.64	304.29
426.01	308.57
426.38	313.04
426.75	317.60
427.13	322.36
427.50	327.30
427.87	332.49
428.24	337.72
428.61	342.71
428.99	348.24
429.36	354.22
429.73	360.10
430.10	365.97
430.47	372.04
430.85	378.31
431.22	385.02
431.59	392.08
431.96	398.96
432.33	406.37
432.70	413.55
433.08	422.04
433.45	430.11
433.82	438.17
434.19	447.06
434.56	455.78
434.93	464.10
435.30	472.40
435.68	481.53
436.05	490.52
436.42	499.38
436.79	507.52
437.16	516.28
437.53	525.48
437.90	534.57
438.27	543.49
438.64	552.73
439.01	561.28
439.38	568.91
439.75	576.23
440.13	584.72
440.50	592.70
440.87	599.11
441.24	605.67
441.61	612.93
441.98	618.31
442.35	624.64
442.72	631.00
443.09	637.09
443.46	640.78
443.83	643.27
444.20	645.49
444.57	648.66
444.94	650.13
445.31	651.62
445.68	653.07
446.05	653.70
446.42	652.94
446.79	651.91
447.16	650.83
447.53	649.97
447.90	646.69
448.27	643.35
448.64	638.72
449.01	635.45
449.37	629.53
449.74	623.87
450.11	616.96
450.48	609.50
450.85	602.00
451.22	595.61
451.59	589.47
451.96	583.64
452.33	575.75
452.70	568.62
453.07	560.14
453.43	551.54
453.80	543.25
454.17	535.25
454.54	527.72
454.91	519.54
455.28	511.59
455.65	504.16
456.02	496.66
456.38	490.34
456.75	482.51
457.12	476.01
457.49	469.53
457.86	463.31
458.23	457.92
458.59	451.99
458.96	445.98
459.33	440.66
459.70	435.26
460.07	431.06
460.43	426.20
460.80	421.63
461.17	417.65
461.54	413.46
461.91	409.42
462.27	405.37
462.64	401.93
463.01	398.16
463.38	394.41
463.74	390.72
464.11	387.46
464.48	384.62
464.85	381.52
465.21	379.06
465.58	376.50
465.95	373.34
466.32	370.70
466.68	368.10
467.05	365.53
467.42	362.99
467.78	360.28
468.15	357.73
468.52	355.79
468.88	353.27
469.25	351.07
469.62	349.27
469.98	347.32
470.35	345.52
470.72	343.82
471.08	342.04
471.45	340.53
471.82	338.99
472.18	337.29
472.55	336.05
472.92	334.62
473.28	333.32
473.65	332.21
474.02	331.13
474.38	330.21
474.75	329.43
475.11	328.56
475.48	327.97
475.85	327.48
476.21	327.00
476.58	326.61
476.94	326.36
477.31	326.01
477.67	325.73
478.04	325.54
478.41	325.48
478.77	325.64
479.14	325.59
479.50	325.77
479.87	326.06
480.23	326.40
480.60	326.66
480.96	327.00
481.33	327.59
481.69	328.15
482.06	328.62
482.42	329.16
482.79	329.82
483.15	330.61
483.52	331.53
483.88	332.41
484.25	333.38
484.61	334.42
484.98	335.53
485.34	336.83
485.71	338.23
486.07	339.67
486.44	341.03
486.80	342.65
487.17	344.31
487.53	346.18
487.90	348.10
488.26	350.15
488.62	352.27
488.99	354.35
489.35	356.53
489.72	358.96
490.08	361.47
490.44	364.02
490.81	366.74
491.17	369.46
491.54	372.43
491.90	375.51
492.26	378.73
492.63	382.13
492.99	385.66
493.36	389.28
493.72	393.20
494.08	397.21
494.45	401.43
494.81	405.80
495.17	410.23
495.54	414.93
495.90	419.77
496.26	424.72
496.63	429.98
496.99	435.41
497.35	441.04
497.72	446.89
498.08	452.84
498.44	458.91
498.80	465.36
499.17	471.86
499.53	478.60
499.89	485.53
500.26	492.54
500.62	499.62
500.98	507.09
501.34	514.54
501.71	522.31
502.07	530.15
502.43	538.23
502.79	546.44
503.16	554.89
503.52	563.50
503.88	572.30
504.24	581.21
504.60	590.26
504.97	599.43
505.33	608.74
505.69	618.64
506.05	628.66
506.41	638.56
506.78	648.71
507.14	659.06
507.50	669.58
507.86	680.31
508.22	691.08
508.59	701.81
508.95	713.03
509.31	724.25
509.67	735.82
510.03	747.35
510.39	759.14
510.75	770.99
511.12	782.95
511.48	795.06
511.84	807.34
512.20	819.83
512.56	832.60
512.92	845.44
513.28	858.20
513.64	871.02
514.00	883.94
514.37	897.01
514.73	910.21
515.09	923.28
515.45	936.19
515.81	949.39
516.17	962.88
516.53	976.16
516.89	989.43
517.25	1002.66
517.61	1016.22
517.97	1029.75
518.33	1043.00
518.69	1056.65
519.05	1070.55
519.41	1084.39
519.77	1098.33
520.13	1111.75
520.49	1125.12
520.85	1138.54
521.21	1151.98
521.57	1165.81
521.93	1178.96
522.29	1192.78
522.65	1206.56
523.01	1220.42
523.37	1233.76
523.73	1247.20
524.09	1260.46
524.45	1274.09
524.81	1287.68
525.17	1301.15
525.53	1314.38
525.89	1327.83
526.25	1341.12
526.61	1354.02
526.97	1367.12
527.33	1380.16
527.68	1393.70
528.04	1407.29
528.40	1420.47
528.76	1433.99
529.12	1447.01
529.48	1460.57
529.84	1472.85
530.20	1485.64
530.56	1498.33
530.91	1511.68
531.27	1524.58
531.63	1537.43
531.99	1550.14
532.35	1562.52
532.71	1575.02
533.07	1588.03
533.42	1600.43
533.78	1612.58
534.14	1624.71
534.50	1636.15
534.86	1647.92
535.21	1658.95
535.57	1670.62
535.93	1682.05
536.29	1693.12
536.65	1704.63
537.00	1715.66
537.36	1727.23
537.72	1738.35
538.08	1749.89
538.44	1760.96
538.79	1772.29
539.15	1783.33
539.51	1794.36
539.87	1805.77
540.22	1816.65
540.58	1827.71
540.94	1838.63
541.29	1849.06
541.65	1858.95
542.01	1869.60
542.37	1879.71
542.72	1889.98
543.08	1899.77
543.44	1910.46
543.79	1919.91
544.15	1929.46
544.51	1939.52
544.87	1949.44
545.22	1958.66
545.58	1967.61
545.94	1976.62
546.29	1985.26
546.65	1993.79
547.01	2002.15
547.36	2009.98
547.72	2017.81
548.07	2025.49
548.43	2033.35
548.79	2041.31
549.14	2049.65
549.50	2058.20
549.86	2066.24
550.21	2073.75
550.57	2081.50
550.92	2088.41
551.28	2096.04
551.64	2103.34
551.99	2110.81
552.35	2118.17
552.70	2125.24
553.06	2131.97
553.41	2138.28
553.77	2144.74
554.13	2151.19
554.48	2158.25
554.84	2165.36
555.19	2172.06
555.55	2178.62
555.90	2184.89
556.26	2191.71
556.61	2197.81
556.97	2202.63
557.32	2208.39
557.68	2214.77
558.03	2220.58
558.39	2225.92
558.74	2231.87
559.10	2237.41
559.45	2242.91
559.81	2248.34
560.16	2254.02
560.52	2259.84
560.87	2266.38
561.23	2272.29
561.58	2279.05
561.94	2284.13
562.29	2288.79
562.64	2294.84
563.00	2300.39
563.35	2306.12
563.71	2311.92
564.06	2317.49
564.42	2323.53
564.77	2328.61
565.12	2334.01
565.48	2339.19
565.83	2344.80
566.19	2350.40
566.54	2355.87
566.89	2360.67
567.25	2365.29
567.60	2370.90
567.96	2376.11
568.31	2380.52
568.66	2384.91
569.02	2388.79
569.37	2392.57
569.72	2397.08
570.08	2400.63
570.43	2403.79
570.78	2406.90
571.14	2409.36
571.49	2412.57
571.84	2416.07
572.20	2418.97
572.55	2421.84
572.90	2424.07
573.26	2426.74
573.61	2429.13
573.96	2431.20
574.31	2433.32
574.67	2435.30
575.02	2436.02
575.37	2437.42
575.72	2438.12
576.08	2439.53
576.43	2439.55
576.78	2439.98
577.13	2441.57
577.49	2442.83
577.84	2443.83
578.19	2445.11
578.54	2445.65
578.90	2446.41
579.25	2446.36
579.60	2446.26
579.95	2445.41
580.30	2445.52
580.66	2444.71
581.01	2443.01
581.36	2440.73
581.71	2439.07
582.06	2437.83
582.42	2436.91
582.77	2434.69
583.12	2432.98
583.47	2431.60
583.82	2430.94
584.17	2429.68
584.53	2427.45
584.88	2425.20
585.23	2423.30
585.58	2420.89
585.93	2418.82
586.28	2416.47
586.63	2413.88
586.98	2411.70
587.34	2409.68
587.69	2407.16
588.04	2405.10
588.39	2403.47
588.74	2401.01
589.09	2398.19
589.44	2394.82
589.79	2392.14
590.14	2390.06
590.49	2387.16
590.84	2383.09
591.19	2379.91
591.54	2376.56
591.89	2372.43
592.25	2369.02
592.60	2364.66
592.95	2360.55
593.30	2356.36
593.65	2351.95
594.00	2347.37
594.35	2344.21
594.70	2339.54
595.05	2334.92
595.40	2329.27
595.75	2323.46
596.10	2319.75
596.45	2314.84
596.80	2310.22
597.15	2305.12
597.50	2299.24
597.85	2294.25
598.19	2288.98
598.54	2283.15
598.89	2277.99
599.24	2273.44
599.59	2267.19
599.94	2261.34
600.29	2255.33
600.64	2249.40
600.99	2242.59
601.34	2237.07
601.69	2230.17
602.04	2223.74
602.39	2217.05
602.74	2211.05
603.08	2205.54
603.43	2198.88
603.78	2192.13
604.13	2185.14
604.48	2177.71
604.83	2171.56
605.18	2165.28
605.53	2158.31
605.87	2151.10
606.22	2144.18
606.57	2136.24
606.92	2128.34
607.27	2121.39
607.62	2114.68
607.96	2107.57
608.31	2101.03
608.66	2093.16
609.01	2085.30
609.36	2078.11
609.70	2070.40
610.05	2062.48
610.40	2054.06
610.75	2045.63
611.10	2037.89
611.44	2028.85
611.79	2020.13
612.14	2010.04
612.49	1999.40
612.83	1990.17
613.18	1981.03
613.53	1971.60
613.88	1961.87
614.22	1953.26
614.57	1943.35
614.92	1932.59
615.27	1922.42
615.61	1912.20
615.96	1902.63
616.31	1893.07
616.65	1883.73
617.00	1873.74
617.35	1864.02
617.70	1854.36
618.04	1844.42
618.39	1834.14
618.74	1824.45
619.08	1814.92
619.43	1806.08
619.78	1797.88
620.12	1789.17
620.47	1779.43
620.82	1769.10
621.16	1759.25
621.51	1749.21
621.85	1739.29
622.20	1728.98
622.55	1718.23
622.89	1708.33
623.24	1698.60
623.59	1688.74
623.93	1678.51
624.28	1668.85
624.62	1658.78
624.97	1648.46
625.32	1638.51
625.66	1629.58
626.01	1620.87
626.35	1611.40
626.70	1601.40
627.04	1591.22
627.39	1581.01
627.73	1571.77
628.08	1562.81
628.43	1553.21
628.77	1544.00
629.12	1535.12
629.46	1527.32
629.81	1519.00
630.15	1509.40
630.50	1499.54
630.84	1488.98
631.19	1479.03
631.53	1469.63
631.88	1459.48
632.22	1449.38
632.57	1439.99
632.91	1429.82
633.26	1419.85
633.60	1410.23
633.95	1400.89
634.29	1391.26
634.64	1382.04
634.98	1371.99
635.32	1362.69
635.67	1354.25
636.01	1344.91
636.36	1335.04
636.70	1325.35
637.05	1315.95
637.39	1307.00
637.73	1298.29
638.08	1290.75
638.42	1282.50
638.77	1273.68
639.11	1265.39
639.45	1257.51
639.80	1248.98
640.14	1240.30
640.49	1231.50
640.83	1222.64
641.17	1214.42
641.52	1206.20
641.86	1197.45
642.20	1189.57
642.55	1180.85
642.89	1171.91
643.23	1163.16
643.58	1155.13
643.92	1146.08
644.26	1137.30
644.61	1128.91
644.95	1120.04
645.29	1110.69
645.64	1101.43
645.98	1092.89
646.32	1084.89
646.66	1076.35
647.01	1067.98
647.35	1059.75
647.69	1051.32
648.04	1042.97
648.38	1034.11
648.72	1025.34
649.06	1016.80
649.41	1008.56
649.75	1000.53
650.09	992.63
650.43	984.65
650.78	976.20
651.12	968.52
651.46	961.04
651.80	953.71
652.14	946.40
652.49	938.87
652.83	931.58
653.17	923.86
653.51	916.23
653.85	908.98
654.20	901.63
654.54	894.08
654.88	886.78
655.22	879.51
655.56	872.40
655.90	865.57
656.25	858.85
656.59	851.84
656.93	844.84
657.27	837.56
657.61	830.47
657.95	824.29
658.29	818.28
658.64	812.16
658.98	805.58
659.32	798.93
659.66	792.68
660.00	786.31
660.34	780.18
660.68	774.02
661.02	767.62
661.36	761.55
661.70	755.66
662.05	749.98
662.39	744.51
662.73	739.07
663.07	733.62
663.41	728.02
663.75	722.32
664.09	716.58
664.43	711.09
664.77	705.74
665.11	699.93
665.45	693.92
665.79	687.99
666.13	682.26
666.47	676.78
666.81	671.25
667.15	665.73
667.49	660.46
667.83	655.10
668.17	649.79
668.51	644.69
668.85	639.79
669.19	634.85
669.53	629.70
669.87	624.57
670.21	619.80
670.55	615.02
670.89	610.57
671.23	606.29
671.57	601.90
671.91	597.55
672.25	593.28
672.58	589.14
672.92	585.06
673.26	581.09
673.60	577.21
673.94	573.37
674.28	569.76
674.62	565.99
674.96	562.21
675.30	558.71
675.64	555.03
675.97	551.31
676.31	547.67
676.65	544.04
676.99	540.58
677.33	536.64
677.67	532.94
678.01	529.04
678.34	525.29
678.68	521.77
679.02	518.10
679.36	514.39
679.70	510.69
680.04	507.12
680.37	503.63
680.71	500.18
681.05	496.91
681.39	493.58
681.73	490.40
682.06	487.29
682.40	484.10
682.74	480.84
683.08	477.57
683.42	474.33
683.75	471.30
684.09	468.24
684.43	465.44
684.77	462.45
685.10	459.52
685.44	456.58
685.78	453.57
686.12	450.77
686.45	448.00
686.79	445.31
687.13	442.69
687.46	439.99
687.80	437.29
688.14	434.44
688.48	431.73
688.81	429.00
689.15	426.45
689.49	423.79
689.82	421.24
690.16	418.61
690.50	416.10
690.83	413.52
691.17	410.93
691.51	408.38
691.84	406.11
692.18	403.90
692.52	401.65
692.85	399.47
693.19	397.33
693.52	395.12
693.86	392.89
694.20	390.67
694.53	388.52
694.87	386.30
695.21	384.15
695.54	381.97
695.88	379.77
696.21	377.49
696.55	375.39
696.88	373.29
697.22	371.31
697.56	369.40
697.89	367.52
698.23	365.72
698.56	363.89
698.90	362.11
699.23	360.15
699.57	358.23
699.90	356.36
700.24	354.50
700.58	352.73
700.91	351.00
701.25	349.42
701.58	347.82
701.92	346.22
702.25	344.59
702.59	342.97
702.92	341.40
703.26	339.82
703.59	338.30
703.93	337.02
704.26	335.58
704.60	334.02
704.93	332.49
705.26	330.97
705.60	329.50
705.93	327.95
706.27	326.59
706.60	325.33
706.94	324.10
707.27	322.67
707.61	321.29
707.94	319.91
708.27	318.39
708.61	316.92
708.94	315.53
709.28	314.21
709.61	312.96
709.94	311.73
710.28	310.52
710.61	309.33
710.95	307.85
711.28	306.74
711.61	305.56
711.95	304.43
712.28	303.20
712.61	301.97
712.95	300.90
713.28	299.88
713.61	298.70
713.95	297.50
714.28	296.47
714.61	295.42
714.95	294.45
715.28	293.41
715.61	292.40
715.95	291.39
716.28	290.39
716.61	289.44
716.95	288.43
717.28	287.49
717.61	286.52
717.94	285.63
718.28	284.64
718.61	283.76
718.94	282.84
719.27	281.97
719.61	281.17
719.94	280.25
720.27	279.20
720.60	278.31
720.94	277.49
721.27	276.72
721.60	276.01
721.93	275.28
722.27	274.64
722.60	273.94
722.93	273.20
723.26	272.57
723.59	271.82
723.93	271.19
724.26	270.51
724.59	269.85
724.92	269.22
725.25	268.63
725.59	268.03
725.92	267.48
726.25	266.90
726.58	266.29
726.91	265.73
727.24	265.22
727.57	264.66
727.91	264.04
728.24	263.45
728.57	262.85
728.90	262.27
729.23	261.63
729.56	261.19
729.89	260.68
730.22	260.06
730.55	259.50
730.89	258.96
731.22	258.44
731.55	257.91
731.88	257.41
732.21	256.84
732.54	256.30
732.87	255.78
733.20	255.29
733.53	254.82
733.86	254.38
734.19	253.90
734.52	253.48
734.85	253.21
735.18	252.76
735.51	252.37
735.84	251.92
736.17	251.52
736.50	250.97
736.83	250.75
737.16	250.37
737.49	249.98
737.82	249.56
738.15	249.16
738.48	248.80
738.81	248.37
739.14	247.96
739.47	247.54
739.80	247.17
740.13	246.81
740.46	246.38
740.79	245.94
741.12	245.55
741.45	245.16
741.78	244.69
742.11	244.40
742.44	244.00
742.77	243.69
743.10	243.35
743.43	243.00
743.75	242.45
744.08	242.38
744.41	242.03
744.74	241.70
745.07	241.36
745.40	241.02
745.73	240.83
746.06	240.50
746.39	240.23
746.71	239.86
747.04	239.52
747.37	239.21
747.70	238.92
748.03	238.61
748.36	238.36
748.68	238.05
749.01	237.68
749.34	237.42
749.67	237.12
750.00	236.84
750.33	236.74
750.65	236.51
750.98	235.99
751.31	235.77
751.64	235.50
751.97	235.34
752.29	235.05
752.62	234.65
752.95	234.41
753.28	234.12
753.60	233.90
753.93	233.74
754.26	233.53
754.59	233.29
754.91	233.06
755.24	232.82
755.57	232.54
755.90	232.32
756.22	232.05
756.55	231.80
756.88	231.54
757.20	231.17
757.53	230.90
757.86	230.67
758.19	230.45
758.51	230.24
758.84	229.92
759.17	229.73
759.49	229.60
759.82	229.50
760.15	229.33
760.47	229.10
760.80	228.83
761.13	228.68
761.45	228.47
761.78	228.30
762.11	228.13
762.43	227.97
762.76	227.79
763.08	227.65
763.41	227.50
763.74	227.36
764.06	227.18
764.39	227.04
764.71	226.88
765.04	226.72
765.37	226.56
765.69	226.41
766.02	226.25
766.34	226.08
766.67	225.88
767.00	225.78
767.32	225.77
767.65	225.78
767.97	225.65
768.30	225.55
768.62	225.41
768.95	225.26
769.27	225.14
769.60	225.06
769.92	224.92
770.25	224.79
770.57	224.63
770.90	224.55
771.22	224.36
771.55	224.25
771.87	224.15
772.20	224.02
772.52	224.11
772.85	224.27
773.17	224.13
773.50	224.01
773.82	223.85
774.15	223.66
774.47	223.44
774.80	223.30
775.12	223.18
775.45	223.06
775.77	222.96
776.09	222.86
776.42	222.76
776.74	222.73
777.07	222.61
777.39	222.56
777.72	222.44
778.04	222.43
778.36	222.31
778.69	222.24
779.01	222.16
779.33	221.89
779.66	221.57
779.98	221.52
780.31	221.42
780.63	221.45
780.95	221.42
781.28	221.34
781.60	221.25
781.92	221.16
782.25	221.09
782.57	221.00
782.89	220.94
783.22	220.84
783.54	220.73
783.86	220.65
784.19	220.54
784.51	220.53
784.83	220.42
785.16	220.37
785.48	220.30
785.80	220.23
786.12	220.17
786.45	220.11
786.77	220.07
787.09	220.02
787.42	219.88
787.74	219.78
788.06	219.72
788.38	219.66
788.71	219.62
789.03	219.58
789.35	219.57
789.67	219.48
789.99	219.49
790.32	219.40
790.64	219.39
790.96	219.52
791.28	219.40
791.61	219.34
791.93	219.28
792.25	219.21
792.57	219.33
792.89	219.27
793.21	219.23
793.54	219.14
793.86	219.07
794.18	219.03
794.50	218.96
794.82	218.92
795.14	218.89
795.47	218.90
795.79	218.85
796.11	218.73
796.43	218.66
796.75	218.61
797.07	218.56
797.39	218.51
797.71	218.31
798.04	218.29
798.36	218.29
798.68	218.30
799.00	218.31
799.32	218.15
799.64	218.16
799.96	218.09
800.28	218.07
800.60	218.03
800.92	218.02
801.24	217.95
801.56	217.95
801.89	217.89
802.21	217.84
802.53	217.78
802.85	217.82
803.17	217.94
803.49	217.85
803.81	217.85
804.13	217.80
804.45	217.73
804.77	217.73
805.09	217.67
805.41	217.55
805.73	217.44
806.05	217.35
806.37	217.29
806.69	217.25
807.01	217.27
807.33	217.25
807.65	217.14
807.97	217.24
808.28	217.14
808.60	217.13
808.92	217.07
809.24	217.16
809.56	217.07
809.88	216.94
810.20	216.92
810.52	216.94
810.84	216.88
811.16	216.86
811.48	216.83
811.80	216.88
812.12	216.88
812.43	216.91
812.75	216.91
813.07	216.87
813.39	216.86
813.71	216.78
814.03	216.75
814.35	216.73
814.67	216.60
814.98	216.55
815.30	216.51
815.62	216.46
815.94	216.30
816.26	216.29
816.58	216.25
816.89	216.27
817.21	216.15
817.53	216.14
817.85	216.10
818.17	216.06
818.48	215.96
818.80	216.02
819.12	215.98
819.44	215.94
819.76	215.91
820.07	215.87
820.39	215.85
820.71	215.81
821.03	215.80
821.34	215.81
821.66	215.84
821.98	215.87
822.30	215.86
822.61	215.96
822.93	215.93
823.25	215.89
823.57	215.85
823.88	215.89
824.20	215.89
824.52	215.95
824.83	215.95
825.15	215.92
825.47	215.84
825.79	215.86
826.10	215.83
826.42	215.82
826.74	215.84
827.05	215.84
827.37	215.87
827.69	215.84
828.00	215.85
828.32	215.82
828.64	215.75
828.95	215.84
829.27	215.78
829.58	215.76
829.90	215.81
830.22	215.81
830.53	215.78
830.85	215.74
831.17	215.63
831.48	215.62
831.80	215.61
832.11	215.62
832.43	215.54
832.75	215.56
833.06	215.67
833.38	215.59
833.69	215.56
834.01	215.55
834.32	215.56
834.64	215.50
834.96	215.52
835.27	215.51
835.59	215.44
835.90	215.43
836.22	215.41
836.53	215.38
836.85	215.35
837.16	215.51
837.48	215.49
837.79	215.57
838.11	215.57
838.42	215.57
838.74	215.56
839.05	215.59
839.37	215.57
839.68	215.43
840.00	215.44
840.31	215.49
840.63	215.48
840.94	215.46
841.26	215.43
841.57	215.41
841.88	215.42
842.20	215.38
842.51	215.36
842.83	215.38
843.14	215.52
843.46	215.48
843.77	215.39
844.08	215.39
844.40	215.30
844.71	215.26
845.03	215.24
845.34	215.25
845.65	215.19
845.97	215.19
846.28	215.20
846.60	215.19
846.91	215.14
847.22	215.09
847.54	215.11
847.85	215.11
848.16	215.08
848.48	215.08
848.79	215.17
849.10	215.18
849.42	215.20
849.73	215.01
850.04	214.98
850.36	214.88
850.67	214.93
850.98	214.94
851.30	214.98
851.61	214.97
851.92	214.95
852.23	215.02
852.55	215.02
852.86	215.04
853.17	215.07
853.49	215.09
853.80	215.15
854.11	215.18
854.42	215.24
854.74	215.25
855.05	215.25
855.36	215.09
855.67	215.09
855.99	215.06
856.30	215.30
856.61	215.33
856.92	215.34
857.23	215.31
857.55	215.30
857.86	215.24
858.17	215.28
858.48	215.23
858.79	215.19
859.11	215.21
859.42	215.18
859.73	215.12
860.04	215.14
860.35	215.09
860.66	214.98
860.98	214.94
861.29	214.95
861.60	214.93
861.91	215.00
862.22	214.98
862.53	214.93
862.84	214.67
863.16	214.71
863.47	214.66
863.78	214.65
864.09	214.64
864.40	214.66
864.71	214.67
865.02	214.73
865.33	214.70
865.64	214.65
865.95	214.66
866.27	214.83
866.58	214.78
866.89	214.80
867.20	214.80
867.51	214.74
867.82	214.72
868.13	214.81
868.44	214.74
868.75	214.77
869.06	214.80
869.37	214.82
869.68	214.75
869.99	214.81
870.30	214.83
870.61	214.87
870.92	214.83
871.23	214.79
871.54	214.80
871.85	214.87
872.16	214.89
872.47	214.85
872.78	214.70
873.09	214.70
873.40	214.69
873.71	214.73
874.02	214.78
874.33	214.80
874.64	214.72
874.95	214.76
875.26	214.70
875.56	214.70
875.87	214.70
876.18	214.70
876.49	214.90
876.80	214.88
877.11	214.84
877.42	214.85
877.73	214.87
878.04	214.82
878.35	214.79
878.66	214.79
878.96	214.81
879.27	214.77
879.58	214.78
879.89	214.77
880.20	214.85
880.51	214.84
880.82	214.79
881.12	214.79
881.43	214.76
881.74	214.74
882.05	214.72
882.36	214.74
882.67	214.73
882.97	214.47
883.28	214.44
883.59	214.42
883.90	214.44
884.21	214.48
884.51	214.48
884.82	214.48
885.13	214.49
885.44	214.50
885.74	214.49
886.05	214.50
886.36	214.52
886.67	214.40
886.98	214.48
887.28	214.50
887.59	214.48
887.90	214.48
888.20	214.47
888.51	214.53
888.82	214.49
889.13	214.51
889.43	214.72
889.74	214.74
890.05	214.76
890.35	214.71
890.66	214.64
890.97	214.61
891.28	214.58
891.58	214.54
891.89	214.52
892.20	214.53
892.50	214.50
892.81	214.49
893.12	214.51
893.42	214.42
893.73	214.45
894.04	214.44
894.34	214.50
894.65	214.51
894.95	214.46
895.26	214.47
895.57	214.55
895.87	214.34
896.18	214.35
896.48	214.34
896.79	214.37
897.10	214.40
897.40	214.40
897.71	214.40
898.01	214.42
898.32	214.44
898.63	214.46
898.93	214.48
899.24	214.45
899.54	214.43
899.85	214.39
900.15	214.38
900.46	214.42
900.76	214.42
901.07	214.41
901.38	214.41
901.68	214.44
901.99	214.34
902.29	214.39
902.60	214.36
902.90	214.37
903.21	214.38
903.51	214.37
903.82	214.44
904.12	214.43
904.43	214.44
904.73	214.39
905.03	214.37
905.34	214.55
905.64	214.55
905.95	214.56
906.25	214.59
906.56	214.56
906.86	214.53
907.17	214.50
907.47	214.51
907.77	214.50
908.08	214.45
908.38	214.49
908.69	214.49
908.99	214.52
909.30	214.53
909.60	214.52
909.90	214.52
910.21	214.42
910.51	214.40
910.81	214.37
911.12	214.43
911.42	214.45
911.73	214.23
912.03	214.25
912.33	214.30
912.64	214.28
912.94	214.30
913.24	214.27
913.55	214.25
913.85	214.25
914.15	214.31
914.46	214.34
914.76	214.30
915.06	214.29
915.37	214.28
915.67	214.26
915.97	214.28
916.27	214.22
916.58	214.26
916.88	214.29
917.18	214.28
917.49	214.40
917.79	214.37
918.09	214.43
918.39	214.48
918.70	214.44
919.00	214.46
919.30	214.56
919.60	214.55
919.91	214.55
920.21	214.54
920.51	214.47
920.81	214.45
921.12	214.45
921.42	214.47
921.72	214.49
922.02	214.49
922.32	214.53
922.63	214.58
922.93	214.66
923.23	214.67
923.53	214.67
923.83	214.50
924.13	214.54
924.44	214.52
924.74	214.53
925.04	214.57
925.34	214.58
925.64	214.48
925.94	214.48
926.24	214.59
926.55	214.59
926.85	214.61
927.15	214.64
927.45	214.67
927.75	214.63
928.05	214.61
928.35	214.62
928.65	214.62
928.95	214.64
929.26	214.54
929.56	214.59
929.86	214.60
930.16	214.63
930.46	214.63
930.76	214.64
931.06	214.56
931.36	214.51
931.66	214.51
931.96	214.57
932.26	214.59
932.56	214.50
932.86	214.51
933.16	214.54
933.46	214.47
933.76	214.45
934.06	214.52
934.36	214.57
934.66	214.55
934.96	214.52
935.26	214.53
935.56	214.56
935.86	214.52
936.16	214.50
936.46	214.44
936.76	214.44
937.06	214.40
937.36	214.41
937.66	214.44
937.96	214.42
938.26	214.37
938.56	214.36
938.86	214.37
939.16	214.43
939.46	214.46
939.76	214.50
940.06	214.51
940.35	214.40
940.65	214.30
940.95	214.33
941.25	214.26
941.55	214.21
941.85	214.19
942.15	214.21
942.45	214.28
942.75	214.31
943.04	214.27
943.34	214.34
943.64	214.35
943.94	214.30
944.24	214.29
944.54	214.30
944.84	214.27
945.13	214.24
945.43	214.16
945.73	214.11
946.03	214.07
946.33	214.04
946.62	214.05
946.92	214.05
947.22	214.05
947.52	214.06
947.82	214.09
948.11	214.09
948.41	214.05
948.71	213.97
949.01	213.99
949.31	213.95
949.60	213.91
949.90	213.94
950.20	213.95
950.50	213.96
950.79	213.92
951.09	213.95
951.39	213.95
951.69	213.92
951.98	213.97
952.28	214.00
952.58	213.97
952.87	213.96
953.17	214.00
953.47	213.98
953.76	213.99
954.06	213.96
954.36	213.93
954.66	213.92
954.95	213.99
955.25	213.95
955.55	213.99
955.84	213.96
956.14	213.96
956.44	213.96
956.73	213.94
957.03	213.96
957.32	213.94
957.62	213.93
957.92	213.98
958.21	213.97
958.51	214.23
958.81	214.26
959.10	214.27
959.40	214.32
959.69	214.33
959.99	214.38
960.29	214.34
960.58	214.36
960.88	214.46
961.17	214.44
961.47	214.48
961.76	214.50
962.06	214.53
962.36	214.49
962.65	214.52
962.95	214.53
963.24	214.53
963.54	214.54
963.83	214.56
964.13	214.57
964.42	214.54
964.72	214.33
965.01	214.35
965.31	214.36
965.60	214.29
965.90	214.40
966.19	214.35
966.49	214.37
966.78	214.34
967.08	214.31
967.37	214.32
967.67	214.29
967.96	214.31
968.26	214.31
968.55	214.36
968.85	214.34
969.14	214.35
969.43	214.32
969.73	214.33
970.02	214.33
970.32	214.29
970.61	214.27
970.91	214.24
971.20	214.22
971.49	214.18
971.79	214.22
972.08	214.07
972.38	214.11
972.67	214.12
972.96	214.14
973.26	214.08
973.55	214.11
973.85	214.09
974.14	214.05
974.43	214.03
974.73	213.95
975.02	213.98
975.31	213.97
975.61	213.98
975.90	213.96
976.19	213.95
976.49	213.99
976.78	214.01
977.07	213.99
977.37	214.01
977.66	214.02
977.95	213.98
978.24	214.02
978.54	214.07
978.83	214.02
979.12	214.04
979.42	214.06
979.71	213.99
980.00	214.01
980.29	214.00
980.59	213.97
980.88	214.04
981.17	214.00
981.46	213.98
981.76	213.98
982.05	214.04
982.34	214.07
982.63	214.06
982.93	214.05
983.22	214.11
983.51	214.12
983.80	214.14
984.09	214.17
984.39	214.11
984.68	214.06
984.97	214.09
985.26	214.04
985.55	214.08
985.85	214.10
986.14	214.11
986.43	214.14
986.72	214.18
987.01	214.10
987.30	214.10
987.59	214.11
987.89	214.11
988.18	214.02
988.47	213.97
988.76	213.95
989.05	213.92
989.34	213.88
989.63	213.90
989.92	213.90
990.22	213.85
990.51	213.86
990.80	213.85
991.09	213.87
991.38	213.91
991.67	213.85
991.96	213.79
992.25	213.83
992.54	213.81
992.83	213.78
993.12	213.75
993.41	213.81
993.70	213.90
993.99	213.91
994.28	213.95
994.58	213.98
994.87	213.94
995.16	213.98
995.45	213.96
995.74	213.94
996.03	213.97
996.32	214.01
996.61	214.06
996.90	214.06
997.19	214.05
997.48	214.05
997.77	214.06
998.06	214.09
998.34	214.06
998.63	214.04
998.92	214.04
999.21	214.11
999.50	214.07
999.79	214.00
1000.08	214.01
1000.37	214.00
1000.66	213.98
1000.95	214.06
1001.24	214.06
1001.53	214.12
1001.82	214.06
1002.11	214.02
1002.40	214.05
1002.68	214.09
1002.97	214.25
1003.26	214.22
1003.55	214.19
1003.84	214.19
1004.13	214.25
1004.42	214.21
1004.71	214.24
1004.99	214.21
1005.28	214.26
1005.57	214.26
1005.86	214.24
1006.15	214.23
1006.44	214.20
1006.72	214.24
1007.01	214.17
1007.30	214.16
1007.59	214.11
1007.88	214.15
1008.17	214.16
1008.45	214.11
1008.74	214.02
1009.03	213.90
1009.32	213.91
1009.60	213.89
1009.89	213.89
1010.18	213.80
1010.47	213.81
1010.76	213.79
1011.04	213.80
1011.33	213.88
1011.62	213.89
1011.91	213.90
1012.19	213.86
1012.48	213.84
1012.77	213.83
1013.05	213.98
1013.34	214.00
1013.63	213.98
1013.92	213.99
1014.20	213.96
1014.49	214.00
1014.78	214.00
1015.06	213.95
1015.35	213.97
1015.64	214.00
1015.92	214.02
1016.21	214.04
1016.50	214.04
1016.78	214.05
1017.07	214.07
1017.36	213.94
1017.64	213.87
1017.93	213.92
1018.22	213.92
1018.50	213.93
1018.79	213.94
1019.08	213.83
1019.36	213.83
1019.65	213.83
1019.93	213.88
1020.22	213.89
1020.51	213.99
1020.79	214.01
1021.08	213.31
1021.36	213.29
1021.65	214.42
1021.94	214.11
1022.22	214.11
1022.51	213.72
1022.79	215.04
1023.08	213.65
1023.36	216.67
1023.65	213.79
>>>>>End Processed Spectral Data<<<<<
