SpectraSuite Data File
++++++++++++++++++++++++++++++++++++
Date: Tue Jan 29 16:30:55 EST 2013
User: group
Dark Spectrum Present: No
Reference Spectrum Present: No
Number of Sampled Component Spectra: 1
Spectrometers: USB2E7196
Integration Time (usec): 65000 (USB2E7196)
Spectra Averaged: 100 (USB2E7196)
Boxcar Smoothing: 10 (USB2E7196)
Correct for Electrical Dark: No (USB2E7196)
Strobe/Lamp Enabled: No (USB2E7196)
Correct for Detector Non-linearity: No (USB2E7196)
Correct for Stray Light: No (USB2E7196)
Number of Pixels in Processed Spectrum: 2048
>>>>>Begin Processed Spectral Data<<<<<
339.09	0.00
339.48	202.24
339.86	204.11
340.24	205.41
340.63	206.63
341.01	211.77
341.39	209.58
341.78	210.37
342.16	211.97
342.54	212.85
342.93	201.65
343.31	211.83
343.69	212.42
344.07	212.85
344.46	213.28
344.84	213.69
345.22	213.83
345.60	214.08
345.99	214.30
346.37	214.46
346.75	214.57
347.13	214.65
347.52	214.70
347.90	214.86
348.28	214.88
348.66	214.96
349.05	214.96
349.43	215.06
349.81	215.10
350.19	215.17
350.57	215.25
350.96	215.35
351.34	215.45
351.72	215.54
352.10	215.66
352.48	215.73
352.87	215.81
353.25	215.90
353.63	215.95
354.01	216.01
354.39	216.08
354.77	216.14
355.15	216.27
355.54	216.27
355.92	216.23
356.30	216.31
356.68	216.44
357.06	216.52
357.44	216.53
357.82	216.61
358.20	216.67
358.58	216.72
358.97	216.75
359.35	216.85
359.73	216.92
360.11	217.00
360.49	217.05
360.87	217.04
361.25	217.08
361.63	217.18
362.01	217.23
362.39	217.21
362.77	217.25
363.15	217.25
363.53	217.33
363.91	217.37
364.29	217.39
364.67	217.27
365.05	217.27
365.43	217.31
365.81	217.32
366.19	217.42
366.57	217.47
366.95	217.48
367.33	217.44
367.71	217.40
368.09	217.39
368.47	217.38
368.85	217.40
369.23	217.43
369.61	217.37
369.99	217.41
370.37	217.43
370.75	217.54
371.13	217.46
371.51	217.39
371.89	217.40
372.27	217.37
372.65	217.32
373.03	217.30
373.41	217.27
373.78	217.24
374.16	217.08
374.54	217.02
374.92	216.94
375.30	216.87
375.68	216.84
376.06	216.80
376.44	216.75
376.82	216.68
377.19	216.62
377.57	216.54
377.95	216.44
378.33	216.34
378.71	216.16
379.09	216.16
379.47	216.17
379.84	216.06
380.22	216.01
380.60	215.93
380.98	215.86
381.36	215.80
381.73	215.73
382.11	215.76
382.49	215.73
382.87	215.69
383.25	215.65
383.62	215.82
384.00	215.76
384.38	215.73
384.76	215.75
385.13	215.81
385.51	215.79
385.89	215.74
386.27	215.76
386.64	215.77
387.02	215.72
387.40	215.66
387.78	215.67
388.15	215.66
388.53	215.65
388.91	215.65
389.29	215.60
389.66	215.60
390.04	215.50
390.42	215.54
390.79	215.55
391.17	215.53
391.55	215.26
391.92	215.27
392.30	215.28
392.68	215.22
393.05	215.16
393.43	215.16
393.81	215.17
394.18	215.13
394.56	215.10
394.94	215.17
395.31	215.16
395.69	215.23
396.06	215.26
396.44	215.27
396.82	215.25
397.19	215.39
397.57	215.41
397.95	215.49
398.32	215.40
398.70	215.43
399.07	215.54
399.45	215.59
399.82	215.63
400.20	215.70
400.58	215.76
400.95	215.73
401.33	215.81
401.70	216.06
402.08	216.15
402.45	216.23
402.83	216.36
403.20	216.49
403.58	216.58
403.95	216.71
404.33	216.89
404.71	217.05
405.08	217.29
405.46	217.46
405.83	217.66
406.21	217.92
406.58	218.17
406.96	218.38
407.33	218.67
407.70	219.00
408.08	219.41
408.45	219.78
408.83	220.19
409.20	220.58
409.58	220.86
409.95	221.34
410.33	221.84
410.70	222.26
411.08	222.84
411.45	223.39
411.82	223.96
412.20	224.63
412.57	225.46
412.95	226.02
413.32	226.86
413.69	227.64
414.07	228.54
414.44	229.49
414.82	230.49
415.19	231.67
415.56	232.82
415.94	234.03
416.31	235.43
416.68	236.81
417.06	238.40
417.43	239.93
417.81	241.65
418.18	243.46
418.55	245.40
418.93	247.41
419.30	249.54
419.67	251.81
420.04	254.10
420.42	256.47
420.79	259.32
421.16	262.08
421.54	265.00
421.91	267.99
422.28	271.13
422.66	274.47
423.03	277.70
423.40	281.09
423.77	284.67
424.15	288.33
424.52	292.25
424.89	296.41
425.26	300.50
425.64	304.38
426.01	308.67
426.38	313.17
426.75	317.73
427.13	322.43
427.50	327.39
427.87	332.64
428.24	337.87
428.61	342.85
428.99	348.41
429.36	354.43
429.73	360.26
430.10	366.16
430.47	372.23
430.85	378.54
431.22	385.21
431.59	392.31
431.96	399.13
432.33	406.57
432.70	413.83
433.08	422.32
433.45	430.40
433.82	438.33
434.19	447.19
434.56	455.89
434.93	464.16
435.30	472.45
435.68	481.47
436.05	490.43
436.42	499.32
436.79	507.44
437.16	516.21
437.53	525.50
437.90	534.60
438.27	543.55
438.64	552.76
439.01	561.32
439.38	568.90
439.75	576.19
440.13	584.61
440.50	592.57
440.87	598.98
441.24	605.60
441.61	612.95
441.98	618.29
442.35	624.57
442.72	631.01
443.09	637.00
443.46	640.81
443.83	643.31
444.20	645.48
444.57	648.63
444.94	650.10
445.31	651.56
445.68	652.96
446.05	653.62
446.42	652.78
446.79	651.83
447.16	650.76
447.53	650.04
447.90	646.71
448.27	643.45
448.64	638.80
449.01	635.52
449.37	629.63
449.74	624.03
450.11	617.20
450.48	609.78
450.85	602.37
451.22	595.91
451.59	589.76
451.96	583.94
452.33	576.10
452.70	568.98
453.07	560.51
453.43	551.90
453.80	543.53
454.17	535.65
454.54	528.08
454.91	519.92
455.28	511.90
455.65	504.52
456.02	497.01
456.38	490.69
456.75	482.79
457.12	476.27
457.49	469.76
457.86	463.52
458.23	458.16
458.59	452.21
458.96	446.16
459.33	440.86
459.70	435.50
460.07	431.21
460.43	426.29
460.80	421.71
461.17	417.73
461.54	413.58
461.91	409.54
462.27	405.45
462.64	402.02
463.01	398.23
463.38	394.46
463.74	390.78
464.11	387.56
464.48	384.72
464.85	381.61
465.21	379.15
465.58	376.55
465.95	373.38
466.32	370.78
466.68	368.24
467.05	365.68
467.42	363.15
467.78	360.47
468.15	357.95
468.52	356.08
468.88	353.57
469.25	351.31
469.62	349.49
469.98	347.52
470.35	345.72
470.72	344.01
471.08	342.27
471.45	340.74
471.82	339.23
472.18	337.57
472.55	336.37
472.92	334.95
473.28	333.69
473.65	332.58
474.02	331.48
474.38	330.55
474.75	329.76
475.11	328.93
475.48	328.35
475.85	327.88
476.21	327.38
476.58	327.06
476.94	326.84
477.31	326.54
477.67	326.26
478.04	326.08
478.41	326.09
478.77	326.23
479.14	326.15
479.50	326.28
479.87	326.55
480.23	326.85
480.60	327.09
480.96	327.36
481.33	327.94
481.69	328.51
482.06	329.04
482.42	329.54
482.79	330.14
483.15	330.89
483.52	331.85
483.88	332.72
484.25	333.61
484.61	334.63
484.98	335.68
485.34	337.01
485.71	338.37
486.07	339.80
486.44	341.12
486.80	342.76
487.17	344.41
487.53	346.24
487.90	348.12
488.26	350.17
488.62	352.31
488.99	354.35
489.35	356.51
489.72	358.89
490.08	361.38
490.44	363.94
490.81	366.71
491.17	369.42
491.54	372.44
491.90	375.51
492.26	378.75
492.63	382.13
492.99	385.61
493.36	389.32
493.72	393.21
494.08	397.26
494.45	401.48
494.81	405.91
495.17	410.35
495.54	415.04
495.90	419.86
496.26	424.83
496.63	430.10
496.99	435.53
497.35	441.13
497.72	447.00
498.08	452.99
498.44	459.06
498.80	465.49
499.17	471.97
499.53	478.67
499.89	485.60
500.26	492.62
500.62	499.75
500.98	507.18
501.34	514.66
501.71	522.44
502.07	530.23
502.43	538.24
502.79	546.45
503.16	554.89
503.52	563.58
503.88	572.33
504.24	581.30
504.60	590.40
504.97	599.61
505.33	608.90
505.69	618.78
506.05	628.70
506.41	638.61
506.78	648.68
507.14	659.02
507.50	669.47
507.86	680.22
508.22	691.02
508.59	701.70
508.95	712.80
509.31	724.08
509.67	735.64
510.03	747.03
510.39	758.83
510.75	770.74
511.12	782.77
511.48	794.93
511.84	807.25
512.20	819.69
512.56	832.51
512.92	845.49
513.28	858.26
513.64	871.08
514.00	884.05
514.37	897.19
514.73	910.43
515.09	923.57
515.45	936.67
515.81	949.86
516.17	963.40
516.53	976.76
516.89	989.99
517.25	1003.34
517.61	1017.06
517.97	1030.57
518.33	1043.87
518.69	1057.44
519.05	1071.36
519.41	1085.17
519.77	1099.20
520.13	1112.50
520.49	1125.70
520.85	1139.25
521.21	1152.78
521.57	1166.55
521.93	1179.74
522.29	1193.52
522.65	1207.27
523.01	1221.03
523.37	1234.38
523.73	1247.78
524.09	1261.13
524.45	1274.64
524.81	1288.22
525.17	1301.68
525.53	1315.04
525.89	1328.48
526.25	1341.76
526.61	1354.56
526.97	1367.85
527.33	1380.80
527.68	1394.48
528.04	1408.13
528.40	1421.24
528.76	1434.74
529.12	1447.67
529.48	1460.95
529.84	1473.38
530.20	1486.31
530.56	1498.89
530.91	1512.30
531.27	1525.32
531.63	1538.22
531.99	1551.21
532.35	1563.55
532.71	1576.12
533.07	1589.12
533.42	1601.41
533.78	1613.61
534.14	1625.85
534.50	1637.07
534.86	1648.76
535.21	1659.80
535.57	1671.40
535.93	1682.82
536.29	1693.86
536.65	1705.39
537.00	1716.58
537.36	1727.98
537.72	1739.02
538.08	1750.65
538.44	1761.64
538.79	1772.77
539.15	1783.76
539.51	1794.55
539.87	1805.95
540.22	1816.81
540.58	1827.77
540.94	1838.87
541.29	1849.30
541.65	1859.25
542.01	1869.90
542.37	1880.18
542.72	1890.36
543.08	1900.21
543.44	1910.86
543.79	1920.38
544.15	1930.14
544.51	1940.25
544.87	1950.52
545.22	1959.83
545.58	1968.64
545.94	1977.61
546.29	1986.20
546.65	1994.55
547.01	2002.99
547.36	2010.74
547.72	2018.70
548.07	2026.31
548.43	2034.09
548.79	2042.04
549.14	2050.31
549.50	2058.95
549.86	2066.87
550.21	2074.30
550.57	2082.11
550.92	2088.90
551.28	2096.39
551.64	2103.65
551.99	2111.25
552.35	2118.31
552.70	2125.31
553.06	2132.11
553.41	2138.45
553.77	2145.13
554.13	2151.56
554.48	2158.50
554.84	2165.70
555.19	2172.12
555.55	2178.68
555.90	2185.06
556.26	2192.00
556.61	2198.13
556.97	2202.85
557.32	2208.54
557.68	2215.09
558.03	2220.67
558.39	2226.12
558.74	2232.11
559.10	2237.65
559.45	2243.27
559.81	2248.88
560.16	2254.28
560.52	2260.05
560.87	2266.46
561.23	2272.26
561.58	2279.16
561.94	2284.29
562.29	2289.13
562.64	2295.29
563.00	2301.09
563.35	2306.59
563.71	2312.32
564.06	2317.92
564.42	2323.92
564.77	2329.15
565.12	2334.46
565.48	2339.75
565.83	2345.22
566.19	2350.58
566.54	2355.97
566.89	2360.66
567.25	2365.27
567.60	2371.10
567.96	2376.38
568.31	2380.96
568.66	2385.36
569.02	2389.15
569.37	2393.02
569.72	2397.41
570.08	2400.91
570.43	2403.97
570.78	2407.12
571.14	2409.61
571.49	2412.67
571.84	2416.18
572.20	2419.16
572.55	2422.06
572.90	2424.36
573.26	2427.20
573.61	2429.77
573.96	2431.95
574.31	2433.78
574.67	2435.62
575.02	2436.30
575.37	2437.67
575.72	2438.51
576.08	2439.86
576.43	2440.06
576.78	2440.53
577.13	2441.98
577.49	2443.16
577.84	2444.19
578.19	2445.52
578.54	2446.05
578.90	2446.76
579.25	2446.56
579.60	2446.24
579.95	2445.48
580.30	2445.57
580.66	2445.00
581.01	2443.44
581.36	2440.94
581.71	2439.60
582.06	2438.40
582.42	2437.51
582.77	2435.39
583.12	2433.55
583.47	2432.20
583.82	2431.66
584.17	2430.48
584.53	2428.35
584.88	2426.25
585.23	2424.29
585.58	2421.95
585.93	2419.92
586.28	2417.73
586.63	2415.33
586.98	2413.29
587.34	2411.27
587.69	2408.84
588.04	2406.65
588.39	2405.14
588.74	2402.68
589.09	2399.76
589.44	2396.48
589.79	2394.00
590.14	2391.93
590.49	2389.13
590.84	2385.15
591.19	2381.89
591.54	2378.45
591.89	2374.37
592.25	2370.94
592.60	2366.77
592.95	2362.61
593.30	2358.28
593.65	2353.85
594.00	2349.44
594.35	2346.30
594.70	2341.63
595.05	2336.99
595.40	2331.37
595.75	2325.47
596.10	2321.84
596.45	2316.89
596.80	2312.40
597.15	2307.18
597.50	2301.06
597.85	2296.10
598.19	2290.93
598.54	2284.94
598.89	2279.76
599.24	2275.06
599.59	2268.98
599.94	2263.00
600.29	2256.96
600.64	2251.00
600.99	2244.13
601.34	2238.51
601.69	2231.49
602.04	2224.98
602.39	2218.33
602.74	2212.11
603.08	2206.52
603.43	2200.06
603.78	2193.25
604.13	2186.03
604.48	2178.63
604.83	2172.69
605.18	2166.28
605.53	2159.32
605.87	2152.37
606.22	2145.45
606.57	2137.35
606.92	2129.18
607.27	2122.18
607.62	2115.46
607.96	2108.42
608.31	2101.91
608.66	2094.25
609.01	2086.56
609.36	2079.44
609.70	2071.67
610.05	2063.93
610.40	2055.60
610.75	2047.00
611.10	2039.26
611.44	2030.32
611.79	2021.66
612.14	2011.50
612.49	2000.81
612.83	1991.40
613.18	1981.96
613.53	1972.66
613.88	1963.17
614.22	1954.60
614.57	1944.68
614.92	1934.06
615.27	1923.77
615.61	1913.65
615.96	1903.79
616.31	1894.13
616.65	1884.62
617.00	1874.71
617.35	1865.01
617.70	1855.25
618.04	1845.33
618.39	1835.18
618.74	1825.42
619.08	1815.60
619.43	1806.85
619.78	1798.66
620.12	1789.95
620.47	1780.40
620.82	1770.04
621.16	1760.27
621.51	1750.25
621.85	1740.38
622.20	1730.03
622.55	1719.52
622.89	1709.53
623.24	1699.74
623.59	1690.01
623.93	1679.90
624.28	1670.13
624.62	1659.94
624.97	1649.58
625.32	1639.68
625.66	1630.80
626.01	1622.03
626.35	1612.68
626.70	1602.63
627.04	1592.37
627.39	1582.15
627.73	1572.77
628.08	1563.70
628.43	1554.05
628.77	1544.87
629.12	1536.00
629.46	1528.12
629.81	1519.64
630.15	1510.12
630.50	1500.25
630.84	1489.67
631.19	1479.62
631.53	1470.27
631.88	1460.16
632.22	1450.20
632.57	1440.91
632.91	1430.68
633.26	1420.83
633.60	1411.24
633.95	1401.95
634.29	1392.51
634.64	1383.26
634.98	1373.30
635.32	1364.03
635.67	1355.52
636.01	1346.09
636.36	1336.35
636.70	1326.78
637.05	1317.34
637.39	1308.36
637.73	1299.81
638.08	1292.23
638.42	1284.05
638.77	1275.24
639.11	1266.98
639.45	1259.11
639.80	1250.43
640.14	1241.61
640.49	1232.68
640.83	1223.75
641.17	1215.44
641.52	1207.31
641.86	1198.71
642.20	1190.83
642.55	1182.08
642.89	1173.16
643.23	1164.52
643.58	1156.28
643.92	1147.18
644.26	1138.47
644.61	1130.00
644.95	1121.08
645.29	1111.75
645.64	1102.53
645.98	1093.92
646.32	1085.90
646.66	1077.23
647.01	1068.81
647.35	1060.63
647.69	1052.21
648.04	1043.92
648.38	1035.07
648.72	1026.21
649.06	1017.63
649.41	1009.34
649.75	1001.41
650.09	993.44
650.43	985.34
650.78	976.91
651.12	969.13
651.46	961.66
651.80	954.30
652.14	946.92
652.49	939.35
652.83	932.04
653.17	924.31
653.51	916.61
653.85	909.37
654.20	902.07
654.54	894.49
654.88	887.17
655.22	879.98
655.56	872.91
655.90	866.06
656.25	859.27
656.59	852.29
656.93	845.17
657.27	838.07
657.61	831.03
657.95	824.89
658.29	818.96
658.64	812.83
658.98	806.25
659.32	799.72
659.66	793.39
660.00	786.92
660.34	780.81
660.68	774.63
661.02	768.16
661.36	762.18
661.70	756.41
662.05	750.77
662.39	745.10
662.73	739.66
663.07	734.24
663.41	728.62
663.75	722.83
664.09	717.13
664.43	711.62
664.77	706.23
665.11	700.44
665.45	694.40
665.79	688.44
666.13	682.73
666.47	677.11
666.81	671.67
667.15	666.21
667.49	660.98
667.83	655.64
668.17	650.43
668.51	645.22
668.85	640.18
669.19	635.16
669.53	630.19
669.87	624.96
670.21	620.11
670.55	615.36
670.89	610.86
671.23	606.56
671.57	602.07
671.91	597.74
672.25	593.48
672.58	589.38
672.92	585.25
673.26	581.34
673.60	577.42
673.94	573.53
674.28	569.94
674.62	566.13
674.96	562.33
675.30	558.77
675.64	555.09
675.97	551.47
676.31	547.81
676.65	544.06
676.99	540.62
677.33	536.77
677.67	533.05
678.01	529.21
678.34	525.42
678.68	521.90
679.02	518.31
679.36	514.53
679.70	510.75
680.04	507.20
680.37	503.72
680.71	500.34
681.05	497.10
681.39	493.76
681.73	490.60
682.06	487.53
682.40	484.38
682.74	481.09
683.08	477.87
683.42	474.68
683.75	471.68
684.09	468.59
684.43	465.65
684.77	462.70
685.10	459.78
685.44	456.78
685.78	453.80
686.12	450.99
686.45	448.21
686.79	445.56
687.13	442.96
687.46	440.25
687.80	437.55
688.14	434.64
688.48	432.00
688.81	429.21
689.15	426.61
689.49	423.91
689.82	421.34
690.16	418.72
690.50	416.23
690.83	413.71
691.17	411.13
691.51	408.69
691.84	406.40
692.18	404.15
692.52	401.97
692.85	399.80
693.19	397.56
693.52	395.40
693.86	393.06
694.20	390.83
694.53	388.66
694.87	386.38
695.21	384.22
695.54	382.00
695.88	379.85
696.21	377.64
696.55	375.54
696.88	373.48
697.22	371.45
697.56	369.49
697.89	367.58
698.23	365.80
698.56	363.95
698.90	362.16
699.23	360.29
699.57	358.39
699.90	356.46
700.24	354.64
700.58	352.85
700.91	351.22
701.25	349.66
701.58	348.03
701.92	346.48
702.25	344.87
702.59	343.20
702.92	341.58
703.26	340.00
703.59	338.49
703.93	337.21
704.26	335.78
704.60	334.27
704.93	332.77
705.26	331.22
705.60	329.72
705.93	328.16
706.27	326.74
706.60	325.44
706.94	324.21
707.27	322.82
707.61	321.50
707.94	320.14
708.27	318.66
708.61	317.20
708.94	315.80
709.28	314.48
709.61	313.23
709.94	312.02
710.28	310.79
710.61	309.61
710.95	308.11
711.28	306.98
711.61	305.76
711.95	304.61
712.28	303.43
712.61	302.24
712.95	301.17
713.28	300.11
713.61	298.91
713.95	297.73
714.28	296.66
714.61	295.58
714.95	294.54
715.28	293.47
715.61	292.41
715.95	291.42
716.28	290.49
716.61	289.54
716.95	288.55
717.28	287.60
717.61	286.61
717.94	285.75
718.28	284.70
718.61	283.88
718.94	282.92
719.27	282.08
719.61	281.25
719.94	280.34
720.27	279.40
720.60	278.55
720.94	277.74
721.27	277.00
721.60	276.27
721.93	275.55
722.27	274.88
722.60	274.23
722.93	273.53
723.26	272.83
723.59	272.10
723.93	271.45
724.26	270.83
724.59	270.15
724.92	269.51
725.25	268.98
725.59	268.35
725.92	267.80
726.25	267.18
726.58	266.60
726.91	265.99
727.24	265.42
727.57	264.87
727.91	264.24
728.24	263.67
728.57	263.08
728.90	262.46
729.23	261.84
729.56	261.36
729.89	260.76
730.22	260.19
730.55	259.63
730.89	259.04
731.22	258.47
731.55	257.97
731.88	257.47
732.21	256.92
732.54	256.34
732.87	255.84
733.20	255.37
733.53	254.86
733.86	254.45
734.19	253.96
734.52	253.54
734.85	253.28
735.18	252.77
735.51	252.41
735.84	252.03
736.17	251.64
736.50	251.12
736.83	250.97
737.16	250.54
737.49	250.16
737.82	249.77
738.15	249.36
738.48	248.96
738.81	248.53
739.14	248.09
739.47	247.71
739.80	247.33
740.13	246.92
740.46	246.54
740.79	246.10
741.12	245.73
741.45	245.35
741.78	244.88
742.11	244.60
742.44	244.22
742.77	243.87
743.10	243.51
743.43	243.17
743.75	242.61
744.08	242.57
744.41	242.21
744.74	241.86
745.07	241.49
745.40	241.19
745.73	240.93
746.06	240.63
746.39	240.32
746.71	239.98
747.04	239.63
747.37	239.29
747.70	239.03
748.03	238.71
748.36	238.39
748.68	238.09
749.01	237.77
749.34	237.46
749.67	237.16
750.00	236.89
750.33	236.74
750.65	236.51
750.98	235.97
751.31	235.72
751.64	235.51
751.97	235.45
752.29	235.17
752.62	234.81
752.95	234.57
753.28	234.30
753.60	234.05
753.93	233.93
754.26	233.72
754.59	233.46
754.91	233.21
755.24	232.96
755.57	232.75
755.90	232.49
756.22	232.26
756.55	232.00
756.88	231.72
757.20	231.38
757.53	231.09
757.86	230.85
758.19	230.65
758.51	230.42
758.84	230.07
759.17	229.85
759.49	229.70
759.82	229.60
760.15	229.45
760.47	229.26
760.80	228.95
761.13	228.77
761.45	228.55
761.78	228.37
762.11	228.20
762.43	227.95
762.76	227.74
763.08	227.57
763.41	227.44
763.74	227.33
764.06	227.17
764.39	227.01
764.71	226.88
765.04	226.70
765.37	226.54
765.69	226.39
766.02	226.26
766.34	226.09
766.67	225.85
767.00	225.78
767.32	225.74
767.65	225.79
767.97	225.64
768.30	225.54
768.62	225.42
768.95	225.23
769.27	225.17
769.60	225.07
769.92	224.91
770.25	224.73
770.57	224.57
770.90	224.43
771.22	224.29
771.55	224.16
771.87	224.05
772.20	223.94
772.52	223.96
772.85	224.11
773.17	224.03
773.50	223.94
773.82	223.78
774.15	223.61
774.47	223.37
774.80	223.27
775.12	223.15
775.45	223.06
775.77	223.01
776.09	222.93
776.42	222.86
776.74	222.83
777.07	222.75
777.39	222.68
777.72	222.57
778.04	222.56
778.36	222.47
778.69	222.42
779.01	222.32
779.33	222.10
779.66	221.77
779.98	221.66
780.31	221.58
780.63	221.56
780.95	221.51
781.28	221.46
781.60	221.35
781.92	221.30
782.25	221.21
782.57	221.18
782.89	221.07
783.22	221.04
783.54	220.95
783.86	220.90
784.19	220.80
784.51	220.82
784.83	220.68
785.16	220.64
785.48	220.58
785.80	220.53
786.12	220.51
786.45	220.44
786.77	220.39
787.09	220.33
787.42	220.22
787.74	220.13
788.06	220.04
788.38	220.01
788.71	219.92
789.03	219.87
789.35	219.81
789.67	219.74
789.99	219.67
790.32	219.58
790.64	219.57
790.96	219.68
791.28	219.57
791.61	219.53
791.93	219.46
792.25	219.43
792.57	219.54
792.89	219.42
793.21	219.38
793.54	219.32
793.86	219.20
794.18	219.14
794.50	219.08
794.82	219.06
795.14	219.01
795.47	218.99
795.79	218.97
796.11	218.88
796.43	218.84
796.75	218.76
797.07	218.71
797.39	218.63
797.71	218.42
798.04	218.37
798.36	218.34
798.68	218.29
799.00	218.22
799.32	218.08
799.64	218.11
799.96	218.06
800.28	218.06
800.60	218.07
800.92	218.04
801.24	218.00
801.56	217.96
801.89	217.92
802.21	217.90
802.53	217.81
802.85	217.84
803.17	217.92
803.49	217.89
803.81	217.86
804.13	217.81
804.45	217.76
804.77	217.74
805.09	217.70
805.41	217.67
805.73	217.62
806.05	217.54
806.37	217.51
806.69	217.45
807.01	217.43
807.33	217.38
807.65	217.29
807.97	217.35
808.28	217.33
808.60	217.31
808.92	217.27
809.24	217.40
809.56	217.34
809.88	217.22
810.20	217.20
810.52	217.25
810.84	217.21
811.16	217.20
811.48	217.19
811.80	217.25
812.12	217.20
812.43	217.21
812.75	217.16
813.07	217.07
813.39	217.08
813.71	217.00
814.03	216.95
814.35	216.95
814.67	216.84
814.98	216.81
815.30	216.76
815.62	216.69
815.94	216.55
816.26	216.54
816.58	216.49
816.89	216.50
817.21	216.42
817.53	216.43
817.85	216.40
818.17	216.36
818.48	216.27
818.80	216.32
819.12	216.27
819.44	216.25
819.76	216.23
820.07	216.19
820.39	216.22
820.71	216.26
821.03	216.26
821.34	216.23
821.66	216.21
821.98	216.20
822.30	216.19
822.61	216.28
822.93	216.21
823.25	216.19
823.57	216.10
823.88	216.15
824.20	216.11
824.52	216.15
824.83	216.14
825.15	216.10
825.47	216.06
825.79	216.06
826.10	216.04
826.42	216.02
826.74	216.07
827.05	216.01
827.37	215.98
827.69	215.94
828.00	215.93
828.32	215.92
828.64	215.89
828.95	216.00
829.27	215.93
829.58	215.93
829.90	215.93
830.22	215.95
830.53	215.85
830.85	215.82
831.17	215.75
831.48	215.73
831.80	215.71
832.11	215.70
832.43	215.69
832.75	215.68
833.06	215.76
833.38	215.64
833.69	215.64
834.01	215.62
834.32	215.62
834.64	215.58
834.96	215.57
835.27	215.55
835.59	215.50
835.90	215.41
836.22	215.38
836.53	215.35
836.85	215.31
837.16	215.50
837.48	215.47
837.79	215.54
838.11	215.52
838.42	215.52
838.74	215.50
839.05	215.46
839.37	215.46
839.68	215.35
840.00	215.36
840.31	215.38
840.63	215.37
840.94	215.36
841.26	215.34
841.57	215.33
841.88	215.36
842.20	215.31
842.51	215.30
842.83	215.30
843.14	215.50
843.46	215.52
843.77	215.40
844.08	215.43
844.40	215.34
844.71	215.32
845.03	215.32
845.34	215.32
845.65	215.32
845.97	215.29
846.28	215.30
846.60	215.30
846.91	215.27
847.22	215.25
847.54	215.28
847.85	215.29
848.16	215.28
848.48	215.23
848.79	215.30
849.10	215.32
849.42	215.35
849.73	215.13
850.04	215.11
850.36	215.02
850.67	215.04
850.98	215.02
851.30	215.02
851.61	214.97
851.92	214.96
852.23	215.00
852.55	215.03
852.86	215.02
853.17	215.06
853.49	215.11
853.80	215.14
854.11	215.15
854.42	215.21
854.74	215.14
855.05	215.16
855.36	215.07
855.67	215.12
855.99	215.10
856.30	215.36
856.61	215.38
856.92	215.41
857.23	215.38
857.55	215.39
857.86	215.38
858.17	215.41
858.48	215.38
858.79	215.38
859.11	215.38
859.42	215.38
859.73	215.31
860.04	215.26
860.35	215.22
860.66	215.14
860.98	215.10
861.29	215.17
861.60	215.11
861.91	215.15
862.22	215.11
862.53	215.07
862.84	214.79
863.16	214.83
863.47	214.79
863.78	214.79
864.09	214.83
864.40	214.88
864.71	214.88
865.02	214.89
865.33	214.83
865.64	214.80
865.95	214.81
866.27	214.97
866.58	214.97
866.89	214.98
867.20	214.98
867.51	214.95
867.82	214.93
868.13	215.06
868.44	214.97
868.75	215.01
869.06	215.01
869.37	215.05
869.68	214.95
869.99	214.98
870.30	214.97
870.61	214.96
870.92	214.92
871.23	214.89
871.54	214.93
871.85	214.99
872.16	214.98
872.47	214.98
872.78	214.86
873.09	214.89
873.40	214.88
873.71	214.90
874.02	214.92
874.33	214.93
874.64	214.84
874.95	214.90
875.26	214.83
875.56	214.84
875.87	214.84
876.18	214.84
876.49	215.03
876.80	215.00
877.11	214.96
877.42	214.96
877.73	215.00
878.04	214.98
878.35	214.98
878.66	215.00
878.96	214.99
879.27	214.96
879.58	214.92
879.89	214.88
880.20	214.95
880.51	214.93
880.82	214.90
881.12	214.92
881.43	214.86
881.74	214.84
882.05	214.83
882.36	214.83
882.67	214.87
882.97	214.64
883.28	214.64
883.59	214.64
883.90	214.64
884.21	214.63
884.51	214.60
884.82	214.55
885.13	214.56
885.44	214.54
885.74	214.54
886.05	214.54
886.36	214.56
886.67	214.49
886.98	214.59
887.28	214.60
887.59	214.59
887.90	214.64
888.20	214.62
888.51	214.67
888.82	214.63
889.13	214.63
889.43	214.78
889.74	214.77
890.05	214.76
890.35	214.76
890.66	214.75
890.97	214.75
891.28	214.72
891.58	214.72
891.89	214.73
892.20	214.70
892.50	214.67
892.81	214.64
893.12	214.63
893.42	214.51
893.73	214.50
894.04	214.49
894.34	214.49
894.65	214.51
894.95	214.46
895.26	214.48
895.57	214.56
895.87	214.40
896.18	214.44
896.48	214.47
896.79	214.47
897.10	214.47
897.40	214.50
897.71	214.55
898.01	214.52
898.32	214.52
898.63	214.49
898.93	214.53
899.24	214.58
899.54	214.57
899.85	214.60
900.15	214.61
900.46	214.61
900.76	214.65
901.07	214.63
901.38	214.63
901.68	214.65
901.99	214.55
902.29	214.55
902.60	214.52
902.90	214.49
903.21	214.51
903.51	214.48
903.82	214.50
904.12	214.46
904.43	214.51
904.73	214.51
905.03	214.55
905.34	214.72
905.64	214.69
905.95	214.71
906.25	214.74
906.56	214.69
906.86	214.67
907.17	214.62
907.47	214.64
907.77	214.63
908.08	214.59
908.38	214.59
908.69	214.62
908.99	214.67
909.30	214.67
909.60	214.65
909.90	214.73
910.21	214.67
910.51	214.63
910.81	214.60
911.12	214.63
911.42	214.65
911.73	214.46
912.03	214.48
912.33	214.50
912.64	214.47
912.94	214.47
913.24	214.48
913.55	214.48
913.85	214.46
914.15	214.50
914.46	214.53
914.76	214.54
915.06	214.54
915.37	214.47
915.67	214.45
915.97	214.46
916.27	214.35
916.58	214.35
916.88	214.36
917.18	214.34
917.49	214.49
917.79	214.44
918.09	214.45
918.39	214.50
918.70	214.50
919.00	214.49
919.30	214.59
919.60	214.54
919.91	214.52
920.21	214.52
920.51	214.47
920.81	214.50
921.12	214.50
921.42	214.48
921.72	214.50
922.02	214.54
922.32	214.57
922.63	214.58
922.93	214.69
923.23	214.72
923.53	214.72
923.83	214.55
924.13	214.59
924.44	214.59
924.74	214.59
925.04	214.62
925.34	214.61
925.64	214.54
925.94	214.56
926.24	214.71
926.55	214.69
926.85	214.75
927.15	214.75
927.45	214.77
927.75	214.79
928.05	214.81
928.35	214.78
928.65	214.80
928.95	214.84
929.26	214.78
929.56	214.82
929.86	214.84
930.16	214.84
930.46	214.80
930.76	214.84
931.06	214.75
931.36	214.67
931.66	214.69
931.96	214.71
932.26	214.75
932.56	214.62
932.86	214.64
933.16	214.60
933.46	214.54
933.76	214.51
934.06	214.54
934.36	214.61
934.66	214.63
934.96	214.60
935.26	214.56
935.56	214.57
935.86	214.50
936.16	214.46
936.46	214.46
936.76	214.46
937.06	214.40
937.36	214.43
937.66	214.45
937.96	214.47
938.26	214.41
938.56	214.36
938.86	214.37
939.16	214.43
939.46	214.44
939.76	214.47
940.06	214.44
940.35	214.37
940.65	214.23
940.95	214.25
941.25	214.21
941.55	214.18
941.85	214.18
942.15	214.22
942.45	214.27
942.75	214.25
943.04	214.27
943.34	214.33
943.64	214.31
943.94	214.30
944.24	214.27
944.54	214.27
944.84	214.27
945.13	214.22
945.43	214.18
945.73	214.17
946.03	214.15
946.33	214.15
946.62	214.16
946.92	214.19
947.22	214.20
947.52	214.21
947.82	214.24
948.11	214.21
948.41	214.17
948.71	214.13
949.01	214.14
949.31	214.15
949.60	214.11
949.90	214.15
950.20	214.13
950.50	214.12
950.79	214.13
951.09	214.16
951.39	214.18
951.69	214.17
951.98	214.20
952.28	214.21
952.58	214.19
952.87	214.19
953.17	214.22
953.47	214.18
953.76	214.16
954.06	214.13
954.36	214.13
954.66	214.10
954.95	214.16
955.25	214.16
955.55	214.13
955.84	214.13
956.14	214.14
956.44	214.18
956.73	214.17
957.03	214.17
957.32	214.18
957.62	214.17
957.92	214.21
958.21	214.21
958.51	214.44
958.81	214.48
959.10	214.54
959.40	214.61
959.69	214.64
959.99	214.67
960.29	214.65
960.58	214.64
960.88	214.76
961.17	214.73
961.47	214.76
961.76	214.75
962.06	214.75
962.36	214.75
962.65	214.74
962.95	214.78
963.24	214.76
963.54	214.77
963.83	214.79
964.13	214.75
964.42	214.71
964.72	214.54
965.01	214.53
965.31	214.49
965.60	214.40
965.90	214.52
966.19	214.50
966.49	214.57
966.78	214.59
967.08	214.57
967.37	214.56
967.67	214.56
967.96	214.62
968.26	214.65
968.55	214.64
968.85	214.63
969.14	214.59
969.43	214.61
969.73	214.60
970.02	214.58
970.32	214.57
970.61	214.54
970.91	214.51
971.20	214.48
971.49	214.49
971.79	214.52
972.08	214.35
972.38	214.38
972.67	214.36
972.96	214.39
973.26	214.32
973.55	214.40
973.85	214.36
974.14	214.30
974.43	214.29
974.73	214.24
975.02	214.21
975.31	214.21
975.61	214.21
975.90	214.17
976.19	214.13
976.49	214.17
976.78	214.21
977.07	214.20
977.37	214.21
977.66	214.21
977.95	214.18
978.24	214.19
978.54	214.22
978.83	214.18
979.12	214.15
979.42	214.13
979.71	214.09
980.00	214.09
980.29	214.10
980.59	214.05
980.88	214.12
981.17	214.15
981.46	214.16
981.76	214.16
982.05	214.25
982.34	214.28
982.63	214.25
982.93	214.24
983.22	214.30
983.51	214.31
983.80	214.34
984.09	214.34
984.39	214.36
984.68	214.30
984.97	214.31
985.26	214.30
985.55	214.34
985.85	214.30
986.14	214.32
986.43	214.36
986.72	214.38
987.01	214.33
987.30	214.31
987.59	214.28
987.89	214.26
988.18	214.18
988.47	214.17
988.76	214.18
989.05	214.14
989.34	214.04
989.63	214.11
989.92	214.08
990.22	214.09
990.51	214.07
990.80	214.05
991.09	214.10
991.38	214.12
991.67	214.10
991.96	214.07
992.25	214.09
992.54	214.03
992.83	214.02
993.12	214.00
993.41	214.05
993.70	214.18
993.99	214.24
994.28	214.28
994.58	214.30
994.87	214.29
995.16	214.34
995.45	214.35
995.74	214.29
996.03	214.33
996.32	214.35
996.61	214.41
996.90	214.42
997.19	214.40
997.48	214.42
997.77	214.39
998.06	214.41
998.34	214.39
998.63	214.41
998.92	214.40
999.21	214.41
999.50	214.40
999.79	214.29
1000.08	214.25
1000.37	214.26
1000.66	214.24
1000.95	214.31
1001.24	214.28
1001.53	214.30
1001.82	214.30
1002.11	214.24
1002.40	214.25
1002.68	214.28
1002.97	214.42
1003.26	214.38
1003.55	214.36
1003.84	214.42
1004.13	214.50
1004.42	214.50
1004.71	214.51
1004.99	214.51
1005.28	214.55
1005.57	214.57
1005.86	214.57
1006.15	214.56
1006.44	214.53
1006.72	214.55
1007.01	214.47
1007.30	214.48
1007.59	214.46
1007.88	214.45
1008.17	214.45
1008.45	214.37
1008.74	214.29
1009.03	214.18
1009.32	214.17
1009.60	214.14
1009.89	214.11
1010.18	214.00
1010.47	214.00
1010.76	213.99
1011.04	214.00
1011.33	214.01
1011.62	214.02
1011.91	214.00
1012.19	214.03
1012.48	214.02
1012.77	214.02
1013.05	214.13
1013.34	214.13
1013.63	214.11
1013.92	214.12
1014.20	214.11
1014.49	214.13
1014.78	214.18
1015.06	214.14
1015.35	214.16
1015.64	214.16
1015.92	214.18
1016.21	214.21
1016.50	214.18
1016.78	214.18
1017.07	214.21
1017.36	214.15
1017.64	214.12
1017.93	214.14
1018.22	214.10
1018.50	214.12
1018.79	214.11
1019.08	213.99
1019.36	214.01
1019.65	214.01
1019.93	214.07
1020.22	214.11
1020.51	214.23
1020.79	214.18
1021.08	213.55
1021.36	213.87
1021.65	214.05
1021.94	213.70
1022.22	214.42
1022.51	213.76
1022.79	215.11
1023.08	214.67
1023.36	216.79
1023.65	213.40
>>>>>End Processed Spectral Data<<<<<
