SpectraSuite Data File
++++++++++++++++++++++++++++++++++++
Date: Tue Jan 29 16:45:25 EST 2013
User: group
Dark Spectrum Present: No
Reference Spectrum Present: No
Number of Sampled Component Spectra: 1
Spectrometers: USB2E7196
Integration Time (usec): 65000 (USB2E7196)
Spectra Averaged: 100 (USB2E7196)
Boxcar Smoothing: 10 (USB2E7196)
Correct for Electrical Dark: No (USB2E7196)
Strobe/Lamp Enabled: No (USB2E7196)
Correct for Detector Non-linearity: No (USB2E7196)
Correct for Stray Light: No (USB2E7196)
Number of Pixels in Processed Spectrum: 2048
>>>>>Begin Processed Spectral Data<<<<<
339.09	0.00
339.48	201.28
339.86	202.96
340.24	204.44
340.63	205.47
341.01	211.07
341.39	208.71
341.78	210.44
342.16	211.78
342.54	212.05
342.93	201.05
343.31	211.19
343.69	211.77
344.07	212.24
344.46	212.72
344.84	213.19
345.22	213.36
345.60	213.64
345.99	213.85
346.37	213.99
346.75	214.11
347.13	214.19
347.52	214.28
347.90	214.40
348.28	214.44
348.66	214.54
349.05	214.49
349.43	214.55
349.81	214.61
350.19	214.70
350.57	214.79
350.96	214.91
351.34	215.02
351.72	215.12
352.10	215.24
352.48	215.31
352.87	215.32
353.25	215.38
353.63	215.46
354.01	215.50
354.39	215.58
354.77	215.65
355.15	215.77
355.54	215.81
355.92	215.81
356.30	215.89
356.68	216.07
357.06	216.15
357.44	216.15
357.82	216.21
358.20	216.28
358.58	216.29
358.97	216.34
359.35	216.44
359.73	216.54
360.11	216.58
360.49	216.64
360.87	216.70
361.25	216.76
361.63	216.82
362.01	216.85
362.39	216.89
362.77	216.89
363.15	216.88
363.53	216.90
363.91	216.90
364.29	216.94
364.67	216.76
365.05	216.78
365.43	216.83
365.81	216.86
366.19	216.97
366.57	217.07
366.95	217.07
367.33	217.01
367.71	216.97
368.09	216.99
368.47	216.99
368.85	216.92
369.23	216.92
369.61	216.84
369.99	216.92
370.37	216.90
370.75	216.99
371.13	216.95
371.51	216.90
371.89	216.94
372.27	216.91
372.65	216.90
373.03	216.85
373.41	216.81
373.78	216.77
374.16	216.61
374.54	216.50
374.92	216.44
375.30	216.42
375.68	216.34
376.06	216.32
376.44	216.25
376.82	216.26
377.19	216.22
377.57	216.20
377.95	216.08
378.33	216.03
378.71	215.86
379.09	215.86
379.47	215.84
379.84	215.76
380.22	215.69
380.60	215.59
380.98	215.56
381.36	215.54
381.73	215.47
382.11	215.46
382.49	215.43
382.87	215.35
383.25	215.30
383.62	215.54
384.00	215.46
384.38	215.42
384.76	215.44
385.13	215.48
385.51	215.43
385.89	215.39
386.27	215.37
386.64	215.41
387.02	215.37
387.40	215.33
387.78	215.34
388.15	215.36
388.53	215.37
388.91	215.37
389.29	215.31
389.66	215.34
390.04	215.31
390.42	215.34
390.79	215.36
391.17	215.34
391.55	215.09
391.92	215.07
392.30	215.09
392.68	215.05
393.05	215.02
393.43	215.03
393.81	215.02
394.18	214.99
394.56	214.97
394.94	215.02
395.31	215.01
395.69	215.05
396.06	215.07
396.44	215.13
396.82	215.12
397.19	215.24
397.57	215.23
397.95	215.29
398.32	215.24
398.70	215.30
399.07	215.37
399.45	215.41
399.82	215.48
400.20	215.49
400.58	215.56
400.95	215.53
401.33	215.66
401.70	215.90
402.08	216.02
402.45	216.11
402.83	216.23
403.20	216.38
403.58	216.45
403.95	216.56
404.33	216.70
404.71	216.86
405.08	217.13
405.46	217.30
405.83	217.47
406.21	217.69
406.58	217.93
406.96	218.18
407.33	218.43
407.70	218.73
408.08	219.21
408.45	219.57
408.83	219.93
409.20	220.21
409.58	220.48
409.95	220.95
410.33	221.43
410.70	221.88
411.08	222.40
411.45	222.98
411.82	223.58
412.20	224.27
412.57	225.08
412.95	225.64
413.32	226.48
413.69	227.35
414.07	228.26
414.44	229.23
414.82	230.27
415.19	231.47
415.56	232.66
415.94	233.85
416.31	235.26
416.68	236.72
417.06	238.38
417.43	239.96
417.81	241.71
418.18	243.50
418.55	245.44
418.93	247.50
419.30	249.65
419.67	251.89
420.04	254.19
420.42	256.58
420.79	259.43
421.16	262.20
421.54	265.11
421.91	268.15
422.28	271.28
422.66	274.63
423.03	277.91
423.40	281.27
423.77	284.86
424.15	288.53
424.52	292.37
424.89	296.53
425.26	300.62
425.64	304.49
426.01	308.79
426.38	313.28
426.75	317.81
427.13	322.55
427.50	327.57
427.87	332.81
428.24	338.01
428.61	342.97
428.99	348.52
429.36	354.56
429.73	360.45
430.10	366.34
430.47	372.44
430.85	378.77
431.22	385.51
431.59	392.68
431.96	399.49
432.33	407.00
432.70	414.32
433.08	422.84
433.45	430.90
433.82	438.91
434.19	447.81
434.56	456.58
434.93	464.90
435.30	473.18
435.68	482.36
436.05	491.39
436.42	500.37
436.79	508.57
437.16	517.34
437.53	526.62
437.90	535.79
438.27	544.69
438.64	553.86
439.01	562.46
439.38	570.04
439.75	577.44
440.13	585.93
440.50	593.93
440.87	600.47
441.24	607.26
441.61	614.68
441.98	620.07
442.35	626.45
442.72	632.78
443.09	638.88
443.46	642.58
443.83	645.12
444.20	647.33
444.57	650.46
444.94	651.98
445.31	653.48
445.68	654.87
446.05	655.52
446.42	654.81
446.79	653.87
447.16	652.80
447.53	652.02
447.90	648.72
448.27	645.43
448.64	640.74
449.01	637.34
449.37	631.44
449.74	625.80
450.11	618.88
450.48	611.53
450.85	604.04
451.22	597.58
451.59	591.42
451.96	585.59
452.33	577.76
452.70	570.60
453.07	562.05
453.43	553.40
453.80	545.08
454.17	537.00
454.54	529.40
454.91	521.25
455.28	513.25
455.65	505.85
456.02	498.29
456.38	491.91
456.75	484.00
457.12	477.34
457.49	470.82
457.86	464.54
458.23	459.15
458.59	453.18
458.96	447.14
459.33	441.80
459.70	436.38
460.07	432.06
460.43	427.14
460.80	422.55
461.17	418.53
461.54	414.31
461.91	410.33
462.27	406.18
462.64	402.69
463.01	398.87
463.38	395.10
463.74	391.40
464.11	388.11
464.48	385.32
464.85	382.26
465.21	379.80
465.58	377.16
465.95	373.99
466.32	371.36
466.68	368.73
467.05	366.14
467.42	363.61
467.78	360.88
468.15	358.29
468.52	356.35
468.88	353.87
469.25	351.70
469.62	349.87
469.98	347.90
470.35	346.07
470.72	344.38
471.08	342.56
471.45	341.02
471.82	339.51
472.18	337.80
472.55	336.54
472.92	335.12
473.28	333.94
473.65	332.78
474.02	331.63
474.38	330.75
474.75	330.00
475.11	329.15
475.48	328.58
475.85	328.14
476.21	327.67
476.58	327.33
476.94	327.02
477.31	326.65
477.67	326.37
478.04	326.17
478.41	326.09
478.77	326.20
479.14	326.13
479.50	326.26
479.87	326.52
480.23	326.84
480.60	327.09
480.96	327.37
481.33	327.93
481.69	328.52
482.06	329.03
482.42	329.52
482.79	330.08
483.15	330.90
483.52	331.86
483.88	332.72
484.25	333.59
484.61	334.61
484.98	335.72
485.34	337.05
485.71	338.41
486.07	339.88
486.44	341.19
486.80	342.77
487.17	344.43
487.53	346.22
487.90	348.10
488.26	350.14
488.62	352.32
488.99	354.38
489.35	356.56
489.72	358.92
490.08	361.41
490.44	364.01
490.81	366.70
491.17	369.34
491.54	372.31
491.90	375.36
492.26	378.62
492.63	382.04
492.99	385.50
493.36	389.21
493.72	393.07
494.08	397.15
494.45	401.40
494.81	405.75
495.17	410.22
495.54	414.92
495.90	419.71
496.26	424.57
496.63	429.76
496.99	435.16
497.35	440.76
497.72	446.53
498.08	452.45
498.44	458.60
498.80	465.08
499.17	471.56
499.53	478.28
499.89	485.15
500.26	492.11
500.62	499.29
500.98	506.66
501.34	514.12
501.71	521.80
502.07	529.61
502.43	537.62
502.79	545.75
503.16	554.07
503.52	562.64
503.88	571.37
504.24	580.37
504.60	589.39
504.97	598.59
505.33	607.97
505.69	617.85
506.05	627.70
506.41	637.57
506.78	647.55
507.14	657.79
507.50	668.29
507.86	678.89
508.22	689.56
508.59	700.23
508.95	711.22
509.31	722.40
509.67	733.83
510.03	745.26
510.39	756.97
510.75	768.89
511.12	780.80
511.48	792.89
511.84	805.17
512.20	817.53
512.56	830.15
512.92	842.93
513.28	855.62
513.64	868.33
514.00	881.18
514.37	894.26
514.73	907.33
515.09	920.41
515.45	933.36
515.81	946.49
516.17	959.92
516.53	973.22
516.89	986.43
517.25	999.65
517.61	1013.18
517.97	1026.60
518.33	1039.77
518.69	1053.35
519.05	1067.01
519.41	1080.71
519.77	1094.64
520.13	1107.95
520.49	1121.05
520.85	1134.53
521.21	1147.92
521.57	1161.65
521.93	1174.74
522.29	1188.63
522.65	1202.20
523.01	1216.04
523.37	1229.31
523.73	1242.68
524.09	1255.92
524.45	1269.43
524.81	1282.94
525.17	1296.35
525.53	1309.69
525.89	1323.01
526.25	1336.23
526.61	1349.25
526.97	1362.30
527.33	1375.28
527.68	1388.89
528.04	1402.53
528.40	1415.51
528.76	1429.01
529.12	1442.02
529.48	1455.44
529.84	1467.78
530.20	1480.71
530.56	1493.27
530.91	1506.51
531.27	1519.50
531.63	1532.37
531.99	1545.28
532.35	1557.59
532.71	1569.99
533.07	1582.91
533.42	1595.28
533.78	1607.56
534.14	1619.62
534.50	1630.96
534.86	1642.62
535.21	1653.61
535.57	1665.30
535.93	1676.79
536.29	1687.92
536.65	1699.42
537.00	1710.56
537.36	1721.98
537.72	1732.96
538.08	1744.43
538.44	1755.55
538.79	1766.75
539.15	1777.87
539.51	1788.60
539.87	1800.11
540.22	1811.15
540.58	1822.20
540.94	1833.24
541.29	1843.68
541.65	1853.68
542.01	1864.26
542.37	1874.36
542.72	1884.54
543.08	1894.35
543.44	1904.90
543.79	1914.33
544.15	1923.78
544.51	1933.72
544.87	1943.68
545.22	1952.91
545.58	1961.86
545.94	1970.81
546.29	1979.36
546.65	1987.75
547.01	1996.16
547.36	2003.77
547.72	2011.57
548.07	2019.28
548.43	2027.12
548.79	2034.94
549.14	2043.16
549.50	2051.66
549.86	2059.80
550.21	2067.19
550.57	2074.86
550.92	2081.84
551.28	2089.35
551.64	2096.73
551.99	2104.24
552.35	2111.47
552.70	2118.50
553.06	2125.29
553.41	2131.69
553.77	2138.25
554.13	2144.56
554.48	2151.58
554.84	2158.87
555.19	2165.49
555.55	2171.82
555.90	2178.04
556.26	2184.88
556.61	2190.96
556.97	2195.88
557.32	2201.55
557.68	2208.11
558.03	2213.93
558.39	2219.18
558.74	2225.07
559.10	2230.66
559.45	2236.26
559.81	2241.86
560.16	2247.32
560.52	2253.20
560.87	2259.44
561.23	2265.23
561.58	2271.86
561.94	2277.03
562.29	2281.59
562.64	2287.44
563.00	2293.14
563.35	2298.63
563.71	2304.15
564.06	2309.84
564.42	2315.70
564.77	2320.73
565.12	2325.96
565.48	2331.02
565.83	2336.39
566.19	2341.73
566.54	2346.94
566.89	2351.44
567.25	2355.88
567.60	2361.56
567.96	2366.64
568.31	2371.07
568.66	2375.34
569.02	2379.20
569.37	2382.86
569.72	2387.41
570.08	2390.86
570.43	2393.76
570.78	2396.86
571.14	2399.38
571.49	2402.30
571.84	2405.77
572.20	2408.64
572.55	2411.39
572.90	2413.62
573.26	2416.42
573.61	2418.93
573.96	2420.95
574.31	2423.01
574.67	2424.85
575.02	2425.52
575.37	2426.57
575.72	2427.13
576.08	2428.41
576.43	2428.38
576.78	2428.67
577.13	2429.78
577.49	2430.80
577.84	2431.72
578.19	2432.88
578.54	2433.47
578.90	2433.90
579.25	2433.64
579.60	2433.38
579.95	2432.50
580.30	2432.36
580.66	2431.49
581.01	2429.62
581.36	2427.12
581.71	2425.44
582.06	2424.04
582.42	2422.92
582.77	2420.77
583.12	2419.03
583.47	2417.48
583.82	2416.68
584.17	2415.31
584.53	2413.20
584.88	2411.01
585.23	2409.01
585.58	2406.50
585.93	2404.24
586.28	2402.13
586.63	2399.34
586.98	2397.07
587.34	2394.92
587.69	2392.34
588.04	2389.98
588.39	2388.40
588.74	2385.90
589.09	2383.02
589.44	2379.78
589.79	2377.10
590.14	2374.95
590.49	2372.15
590.84	2368.12
591.19	2364.99
591.54	2361.56
591.89	2357.25
592.25	2353.95
592.60	2349.68
592.95	2345.59
593.30	2341.29
593.65	2336.70
594.00	2332.27
594.35	2329.00
594.70	2324.49
595.05	2319.83
595.40	2314.51
595.75	2308.55
596.10	2304.70
596.45	2299.77
596.80	2295.22
597.15	2290.07
597.50	2284.01
597.85	2278.85
598.19	2273.76
598.54	2267.91
598.89	2262.70
599.24	2258.17
599.59	2251.85
599.94	2246.01
600.29	2239.93
600.64	2233.94
600.99	2227.04
601.34	2221.61
601.69	2214.64
602.04	2208.06
602.39	2201.32
602.74	2195.17
603.08	2189.80
603.43	2183.37
603.78	2176.44
604.13	2169.25
604.48	2161.90
604.83	2155.84
605.18	2149.73
605.53	2142.66
605.87	2135.52
606.22	2128.76
606.57	2120.84
606.92	2112.83
607.27	2105.76
607.62	2099.11
607.96	2092.15
608.31	2085.71
608.66	2077.93
609.01	2070.34
609.36	2063.24
609.70	2055.61
610.05	2047.78
610.40	2039.30
610.75	2030.81
611.10	2023.12
611.44	2014.08
611.79	2005.35
612.14	1995.34
612.49	1984.51
612.83	1975.17
613.18	1965.89
613.53	1956.46
613.88	1946.99
614.22	1938.46
614.57	1928.57
614.92	1917.92
615.27	1907.71
615.61	1897.58
615.96	1887.91
616.31	1878.33
616.65	1868.88
617.00	1859.16
617.35	1849.40
617.70	1839.77
618.04	1829.80
618.39	1819.73
618.74	1810.13
619.08	1800.56
619.43	1791.90
619.78	1783.84
620.12	1775.17
620.47	1765.72
620.82	1755.54
621.16	1745.83
621.51	1735.93
621.85	1726.20
622.20	1715.98
622.55	1705.51
622.89	1695.46
623.24	1685.87
623.59	1676.02
623.93	1665.95
624.28	1656.25
624.62	1646.34
624.97	1636.13
625.32	1626.36
625.66	1617.51
626.01	1608.90
626.35	1599.68
626.70	1589.79
627.04	1579.70
627.39	1569.72
627.73	1560.48
628.08	1551.62
628.43	1541.92
628.77	1532.86
629.12	1524.05
629.46	1516.27
629.81	1507.97
630.15	1498.75
630.50	1489.03
630.84	1478.66
631.19	1468.91
631.53	1459.75
631.88	1449.64
632.22	1439.67
632.57	1430.46
632.91	1420.36
633.26	1410.53
633.60	1400.94
633.95	1391.73
634.29	1382.28
634.64	1373.09
634.98	1363.21
635.32	1353.93
635.67	1345.61
636.01	1336.36
636.36	1326.79
636.70	1317.25
637.05	1307.90
637.39	1299.09
637.73	1290.51
638.08	1283.00
638.42	1274.92
638.77	1266.21
639.11	1258.02
639.45	1250.45
639.80	1241.96
640.14	1233.36
640.49	1224.66
640.83	1215.91
641.17	1207.72
641.52	1199.65
641.86	1191.15
642.20	1183.30
642.55	1174.63
642.89	1165.83
643.23	1157.21
643.58	1149.09
643.92	1140.18
644.26	1131.55
644.61	1123.11
644.95	1114.34
645.29	1105.17
645.64	1096.01
645.98	1087.43
646.32	1079.53
646.66	1070.88
647.01	1062.66
647.35	1054.53
647.69	1046.21
648.04	1038.05
648.38	1029.27
648.72	1020.59
649.06	1012.21
649.41	1004.01
649.75	996.27
650.09	988.43
650.43	980.40
650.78	972.10
651.12	964.38
651.46	956.93
651.80	949.72
652.14	942.47
652.49	935.01
652.83	927.66
653.17	920.10
653.51	912.48
653.85	905.24
654.20	897.97
654.54	890.61
654.88	883.36
655.22	876.08
655.56	869.01
655.90	862.17
656.25	855.39
656.59	848.62
656.93	841.56
657.27	834.37
657.61	827.41
657.95	821.37
658.29	815.47
658.64	809.40
658.98	802.88
659.32	796.30
659.66	790.07
660.00	783.77
660.34	777.63
660.68	771.50
661.02	765.18
661.36	759.17
661.70	753.35
662.05	747.77
662.39	742.30
662.73	736.87
663.07	731.49
663.41	725.90
663.75	720.17
664.09	714.49
664.43	709.08
664.77	703.79
665.11	697.95
665.45	692.00
665.79	686.15
666.13	680.48
666.47	674.94
666.81	669.50
667.15	664.10
667.49	658.92
667.83	653.68
668.17	648.44
668.51	643.28
668.85	638.36
669.19	633.43
669.53	628.35
669.87	623.27
670.21	618.49
670.55	613.79
670.89	609.27
671.23	604.87
671.57	600.45
671.91	596.13
672.25	591.99
672.58	587.87
672.92	583.81
673.26	579.85
673.60	575.97
673.94	572.16
674.28	568.53
674.62	564.78
674.96	561.03
675.30	557.55
675.64	553.89
675.97	550.22
676.31	546.55
676.65	543.03
676.99	539.54
677.33	535.70
677.67	532.04
678.01	528.23
678.34	524.64
678.68	521.09
679.02	517.46
679.36	513.73
679.70	510.02
680.04	506.43
680.37	503.02
680.71	499.66
681.05	496.39
681.39	493.07
681.73	489.78
682.06	486.75
682.40	483.59
682.74	480.40
683.08	477.16
683.42	473.98
683.75	470.94
684.09	467.90
684.43	465.07
684.77	462.14
685.10	459.26
685.44	456.32
685.78	453.42
686.12	450.61
686.45	447.83
686.79	445.16
687.13	442.57
687.46	439.86
687.80	437.14
688.14	434.27
688.48	431.56
688.81	428.97
689.15	426.32
689.49	423.71
689.82	421.16
690.16	418.53
690.50	416.04
690.83	413.43
691.17	410.86
691.51	408.37
691.84	406.02
692.18	403.75
692.52	401.53
692.85	399.33
693.19	397.17
693.52	395.01
693.86	392.78
694.20	390.56
694.53	388.43
694.87	386.24
695.21	384.10
695.54	381.98
695.88	379.71
696.21	377.51
696.55	375.33
696.88	373.18
697.22	371.22
697.56	369.33
697.89	367.46
698.23	365.68
698.56	363.80
698.90	362.07
699.23	360.12
699.57	358.24
699.90	356.35
700.24	354.46
700.58	352.66
700.91	350.95
701.25	349.35
701.58	347.70
701.92	346.13
702.25	344.51
702.59	342.81
702.92	341.27
703.26	339.66
703.59	338.17
703.93	336.91
704.26	335.47
704.60	333.94
704.93	332.43
705.26	330.91
705.60	329.45
705.93	327.84
706.27	326.53
706.60	325.24
706.94	324.03
707.27	322.71
707.61	321.36
707.94	320.02
708.27	318.53
708.61	317.07
708.94	315.65
709.28	314.36
709.61	313.12
709.94	311.92
710.28	310.68
710.61	309.47
710.95	308.04
711.28	306.91
711.61	305.65
711.95	304.49
712.28	303.27
712.61	302.05
712.95	300.99
713.28	299.92
713.61	298.71
713.95	297.45
714.28	296.36
714.61	295.29
714.95	294.28
715.28	293.25
715.61	292.20
715.95	291.22
716.28	290.23
716.61	289.25
716.95	288.24
717.28	287.31
717.61	286.34
717.94	285.44
718.28	284.39
718.61	283.51
718.94	282.58
719.27	281.74
719.61	280.95
719.94	280.07
720.27	279.08
720.60	278.20
720.94	277.47
721.27	276.69
721.60	275.99
721.93	275.21
722.27	274.60
722.60	273.94
722.93	273.24
723.26	272.58
723.59	271.84
723.93	271.20
724.26	270.52
724.59	269.84
724.92	269.22
725.25	268.70
725.59	268.14
725.92	267.59
726.25	267.01
726.58	266.41
726.91	265.86
727.24	265.34
727.57	264.80
727.91	264.15
728.24	263.61
728.57	262.98
728.90	262.42
729.23	261.71
729.56	261.25
729.89	260.68
730.22	260.09
730.55	259.58
730.89	259.03
731.22	258.48
731.55	258.02
731.88	257.46
732.21	256.89
732.54	256.31
732.87	255.82
733.20	255.32
733.53	254.82
733.86	254.30
734.19	253.78
734.52	253.35
734.85	253.06
735.18	252.56
735.51	252.17
735.84	251.76
736.17	251.39
736.50	250.85
736.83	250.69
737.16	250.29
737.49	249.87
737.82	249.45
738.15	249.09
738.48	248.65
738.81	248.27
739.14	247.84
739.47	247.46
739.80	247.01
740.13	246.67
740.46	246.27
740.79	245.93
741.12	245.57
741.45	245.19
741.78	244.72
742.11	244.46
742.44	244.10
742.77	243.79
743.10	243.43
743.43	243.10
743.75	242.54
744.08	242.46
744.41	242.08
744.74	241.74
745.07	241.37
745.40	241.08
745.73	240.84
746.06	240.53
746.39	240.24
746.71	239.95
747.04	239.57
747.37	239.24
747.70	238.89
748.03	238.56
748.36	238.29
748.68	238.01
749.01	237.63
749.34	237.36
749.67	237.04
750.00	236.77
750.33	236.62
750.65	236.36
750.98	235.84
751.31	235.62
751.64	235.41
751.97	235.26
752.29	234.99
752.62	234.66
752.95	234.39
753.28	234.12
753.60	233.83
753.93	233.64
754.26	233.45
754.59	233.21
754.91	232.99
755.24	232.68
755.57	232.41
755.90	232.21
756.22	231.94
756.55	231.72
756.88	231.46
757.20	231.12
757.53	230.84
757.86	230.62
758.19	230.41
758.51	230.17
758.84	229.85
759.17	229.63
759.49	229.44
759.82	229.36
760.15	229.17
760.47	229.00
760.80	228.77
761.13	228.61
761.45	228.41
761.78	228.23
762.11	228.09
762.43	227.91
762.76	227.70
763.08	227.54
763.41	227.36
763.74	227.23
764.06	227.05
764.39	226.90
764.71	226.73
765.04	226.55
765.37	226.40
765.69	226.24
766.02	226.11
766.34	225.98
766.67	225.76
767.00	225.67
767.32	225.66
767.65	225.64
767.97	225.49
768.30	225.37
768.62	225.26
768.95	225.08
769.27	224.98
769.60	224.89
769.92	224.76
770.25	224.58
770.57	224.37
770.90	224.26
771.22	224.12
771.55	224.03
771.87	223.95
772.20	223.81
772.52	223.90
772.85	224.01
773.17	223.88
773.50	223.77
773.82	223.63
774.15	223.41
774.47	223.19
774.80	223.06
775.12	222.98
775.45	222.85
775.77	222.79
776.09	222.72
776.42	222.60
776.74	222.55
777.07	222.47
777.39	222.44
777.72	222.32
778.04	222.24
778.36	222.18
778.69	222.13
779.01	222.05
779.33	221.79
779.66	221.49
779.98	221.42
780.31	221.36
780.63	221.35
780.95	221.31
781.28	221.26
781.60	221.15
781.92	221.06
782.25	221.03
782.57	220.94
782.89	220.84
783.22	220.77
783.54	220.66
783.86	220.61
784.19	220.56
784.51	220.60
784.83	220.52
785.16	220.40
785.48	220.29
785.80	220.24
786.12	220.22
786.45	220.16
786.77	220.13
787.09	220.04
787.42	219.89
787.74	219.81
788.06	219.74
788.38	219.73
788.71	219.66
789.03	219.57
789.35	219.55
789.67	219.48
789.99	219.45
790.32	219.37
790.64	219.37
790.96	219.48
791.28	219.35
791.61	219.30
791.93	219.26
792.25	219.22
792.57	219.33
792.89	219.25
793.21	219.20
793.54	219.12
793.86	219.04
794.18	219.03
794.50	218.94
794.82	218.92
795.14	218.85
795.47	218.84
795.79	218.80
796.11	218.70
796.43	218.64
796.75	218.58
797.07	218.56
797.39	218.46
797.71	218.24
798.04	218.20
798.36	218.20
798.68	218.17
799.00	218.14
799.32	217.98
799.64	217.96
799.96	217.94
800.28	217.93
800.60	217.90
800.92	217.87
801.24	217.83
801.56	217.80
801.89	217.74
802.21	217.72
802.53	217.65
802.85	217.67
803.17	217.74
803.49	217.67
803.81	217.63
804.13	217.58
804.45	217.55
804.77	217.53
805.09	217.47
805.41	217.39
805.73	217.33
806.05	217.23
806.37	217.18
806.69	217.10
807.01	217.05
807.33	217.06
807.65	216.94
807.97	217.04
808.28	216.98
808.60	216.97
808.92	216.92
809.24	217.02
809.56	216.95
809.88	216.83
810.20	216.83
810.52	216.83
810.84	216.78
811.16	216.69
811.48	216.60
811.80	216.65
812.12	216.65
812.43	216.67
812.75	216.64
813.07	216.55
813.39	216.55
813.71	216.49
814.03	216.44
814.35	216.43
814.67	216.28
814.98	216.26
815.30	216.20
815.62	216.15
815.94	215.99
816.26	215.97
816.58	215.94
816.89	215.94
817.21	215.85
817.53	215.86
817.85	215.90
818.17	215.93
818.48	215.82
818.80	215.84
819.12	215.78
819.44	215.77
819.76	215.78
820.07	215.75
820.39	215.73
820.71	215.73
821.03	215.71
821.34	215.70
821.66	215.70
821.98	215.73
822.30	215.69
822.61	215.83
822.93	215.80
823.25	215.80
823.57	215.74
823.88	215.80
824.20	215.76
824.52	215.74
824.83	215.71
825.15	215.68
825.47	215.64
825.79	215.67
826.10	215.64
826.42	215.63
826.74	215.65
827.05	215.64
827.37	215.63
827.69	215.60
828.00	215.60
828.32	215.58
828.64	215.53
828.95	215.63
829.27	215.55
829.58	215.55
829.90	215.57
830.22	215.59
830.53	215.51
830.85	215.47
831.17	215.45
831.48	215.42
831.80	215.44
832.11	215.40
832.43	215.31
832.75	215.32
833.06	215.41
833.38	215.33
833.69	215.33
834.01	215.35
834.32	215.35
834.64	215.34
834.96	215.33
835.27	215.31
835.59	215.23
835.90	215.20
836.22	215.17
836.53	215.10
836.85	215.07
837.16	215.27
837.48	215.29
837.79	215.32
838.11	215.33
838.42	215.30
838.74	215.35
839.05	215.35
839.37	215.32
839.68	215.21
840.00	215.21
840.31	215.20
840.63	215.14
840.94	215.12
841.26	215.08
841.57	215.09
841.88	215.12
842.20	215.09
842.51	215.04
842.83	215.04
843.14	215.23
843.46	215.21
843.77	215.09
844.08	215.10
844.40	215.05
844.71	215.02
845.03	215.01
845.34	214.97
845.65	214.96
845.97	214.96
846.28	214.96
846.60	214.97
846.91	214.91
847.22	214.91
847.54	214.91
847.85	214.90
848.16	214.90
848.48	214.85
848.79	214.92
849.10	214.93
849.42	214.93
849.73	214.74
850.04	214.75
850.36	214.66
850.67	214.69
850.98	214.66
851.30	214.68
851.61	214.67
851.92	214.68
852.23	214.75
852.55	214.75
852.86	214.73
853.17	214.75
853.49	214.80
853.80	214.83
854.11	214.89
854.42	214.92
854.74	214.84
855.05	214.85
855.36	214.75
855.67	214.77
855.99	214.77
856.30	215.02
856.61	215.03
856.92	215.03
857.23	215.01
857.55	215.00
857.86	214.99
858.17	215.04
858.48	215.02
858.79	214.98
859.11	214.97
859.42	214.97
859.73	214.96
860.04	214.97
860.35	214.92
860.66	214.84
860.98	214.85
861.29	214.89
861.60	214.86
861.91	214.87
862.22	214.81
862.53	214.77
862.84	214.49
863.16	214.54
863.47	214.47
863.78	214.45
864.09	214.49
864.40	214.51
864.71	214.47
865.02	214.46
865.33	214.41
865.64	214.38
865.95	214.38
866.27	214.50
866.58	214.48
866.89	214.49
867.20	214.49
867.51	214.45
867.82	214.45
868.13	214.53
868.44	214.51
868.75	214.55
869.06	214.59
869.37	214.60
869.68	214.53
869.99	214.61
870.30	214.61
870.61	214.61
870.92	214.56
871.23	214.56
871.54	214.57
871.85	214.65
872.16	214.68
872.47	214.65
872.78	214.50
873.09	214.53
873.40	214.50
873.71	214.51
874.02	214.52
874.33	214.51
874.64	214.44
874.95	214.49
875.26	214.50
875.56	214.46
875.87	214.47
876.18	214.46
876.49	214.62
876.80	214.60
877.11	214.56
877.42	214.58
877.73	214.54
878.04	214.53
878.35	214.54
878.66	214.51
878.96	214.51
879.27	214.53
879.58	214.47
879.89	214.45
880.20	214.50
880.51	214.48
880.82	214.45
881.12	214.45
881.43	214.38
881.74	214.33
882.05	214.34
882.36	214.34
882.67	214.35
882.97	214.16
883.28	214.15
883.59	214.17
883.90	214.20
884.21	214.23
884.51	214.21
884.82	214.14
885.13	214.13
885.44	214.14
885.74	214.15
886.05	214.15
886.36	214.18
886.67	214.11
886.98	214.20
887.28	214.22
887.59	214.23
887.90	214.25
888.20	214.25
888.51	214.31
888.82	214.26
889.13	214.28
889.43	214.46
889.74	214.47
890.05	214.45
890.35	214.41
890.66	214.37
890.97	214.37
891.28	214.36
891.58	214.34
891.89	214.35
892.20	214.32
892.50	214.29
892.81	214.27
893.12	214.28
893.42	214.16
893.73	214.19
894.04	214.21
894.34	214.21
894.65	214.20
894.95	214.14
895.26	214.18
895.57	214.27
895.87	214.05
896.18	214.07
896.48	214.09
896.79	214.09
897.10	214.14
897.40	214.13
897.71	214.18
898.01	214.20
898.32	214.20
898.63	214.20
898.93	214.24
899.24	214.27
899.54	214.29
899.85	214.30
900.15	214.29
900.46	214.25
900.76	214.27
901.07	214.28
901.38	214.30
901.68	214.31
901.99	214.21
902.29	214.24
902.60	214.20
902.90	214.17
903.21	214.16
903.51	214.13
903.82	214.21
904.12	214.18
904.43	214.21
904.73	214.24
905.03	214.27
905.34	214.46
905.64	214.41
905.95	214.39
906.25	214.39
906.56	214.40
906.86	214.42
907.17	214.38
907.47	214.38
907.77	214.34
908.08	214.25
908.38	214.28
908.69	214.27
908.99	214.32
909.30	214.36
909.60	214.36
909.90	214.37
910.21	214.28
910.51	214.25
910.81	214.21
911.12	214.18
911.42	214.15
911.73	213.92
912.03	213.95
912.33	213.99
912.64	213.99
912.94	214.00
913.24	213.95
913.55	213.96
913.85	213.94
914.15	213.99
914.46	214.04
914.76	214.02
915.06	214.00
915.37	213.96
915.67	213.93
915.97	213.94
916.27	213.88
916.58	213.90
916.88	213.89
917.18	213.89
917.49	214.05
917.79	214.06
918.09	214.11
918.39	214.17
918.70	214.18
919.00	214.16
919.30	214.22
919.60	214.23
919.91	214.20
920.21	214.25
920.51	214.20
920.81	214.20
921.12	214.20
921.42	214.19
921.72	214.20
922.02	214.22
922.32	214.25
922.63	214.31
922.93	214.40
923.23	214.44
923.53	214.40
923.83	214.27
924.13	214.31
924.44	214.33
924.74	214.35
925.04	214.40
925.34	214.38
925.64	214.30
925.94	214.30
926.24	214.43
926.55	214.39
926.85	214.43
927.15	214.47
927.45	214.51
927.75	214.50
928.05	214.48
928.35	214.47
928.65	214.50
928.95	214.51
929.26	214.43
929.56	214.45
929.86	214.50
930.16	214.49
930.46	214.44
930.76	214.40
931.06	214.28
931.36	214.25
931.66	214.31
931.96	214.36
932.26	214.40
932.56	214.33
932.86	214.34
933.16	214.35
933.46	214.32
933.76	214.28
934.06	214.38
934.36	214.48
934.66	214.46
934.96	214.48
935.26	214.46
935.56	214.48
935.86	214.42
936.16	214.37
936.46	214.37
936.76	214.37
937.06	214.36
937.36	214.39
937.66	214.38
937.96	214.36
938.26	214.29
938.56	214.27
938.86	214.25
939.16	214.28
939.46	214.28
939.76	214.29
940.06	214.26
940.35	214.16
940.65	214.05
940.95	214.07
941.25	213.99
941.55	213.97
941.85	213.96
942.15	214.00
942.45	214.07
942.75	214.05
943.04	214.05
943.34	214.08
943.64	214.08
943.94	214.05
944.24	214.02
944.54	214.03
944.84	213.99
945.13	213.97
945.43	213.94
945.73	213.95
946.03	213.92
946.33	213.91
946.62	213.91
946.92	213.90
947.22	213.92
947.52	213.95
947.82	213.98
948.11	213.99
948.41	213.96
948.71	213.90
949.01	213.91
949.31	213.87
949.60	213.87
949.90	213.89
950.20	213.88
950.50	213.90
950.79	213.90
951.09	213.97
951.39	213.96
951.69	213.94
951.98	214.00
952.28	214.00
952.58	214.01
952.87	214.06
953.17	214.09
953.47	214.05
953.76	214.03
954.06	213.97
954.36	213.94
954.66	213.93
954.95	213.97
955.25	213.97
955.55	213.98
955.84	213.94
956.14	213.93
956.44	213.94
956.73	213.93
957.03	213.92
957.32	213.89
957.62	213.92
957.92	213.94
958.21	213.84
958.51	214.11
958.81	214.14
959.10	214.13
959.40	214.19
959.69	214.20
959.99	214.23
960.29	214.23
960.58	214.19
960.88	214.28
961.17	214.27
961.47	214.29
961.76	214.27
962.06	214.34
962.36	214.33
962.65	214.32
962.95	214.30
963.24	214.28
963.54	214.29
963.83	214.27
964.13	214.27
964.42	214.25
964.72	214.06
965.01	214.06
965.31	214.03
965.60	213.97
965.90	214.11
966.19	214.06
966.49	214.08
966.78	214.08
967.08	214.05
967.37	214.06
967.67	214.03
967.96	214.09
968.26	214.04
968.55	214.07
968.85	214.07
969.14	214.09
969.43	214.12
969.73	214.10
970.02	214.09
970.32	214.05
970.61	214.04
970.91	213.95
971.20	213.94
971.49	213.90
971.79	213.93
972.08	213.80
972.38	213.79
972.67	213.75
972.96	213.80
973.26	213.76
973.55	213.81
973.85	213.80
974.14	213.79
974.43	213.84
974.73	213.79
975.02	213.79
975.31	213.80
975.61	213.76
975.90	213.76
976.19	213.74
976.49	213.78
976.78	213.78
977.07	213.81
977.37	213.82
977.66	213.85
977.95	213.82
978.24	213.84
978.54	213.91
978.83	213.91
979.12	213.91
979.42	213.87
979.71	213.82
980.00	213.83
980.29	213.85
980.59	213.79
980.88	213.85
981.17	213.86
981.46	213.84
981.76	213.84
982.05	213.91
982.34	213.92
982.63	213.91
982.93	213.95
983.22	214.01
983.51	214.00
983.80	214.02
984.09	214.03
984.39	213.99
984.68	213.92
984.97	213.95
985.26	213.94
985.55	214.05
985.85	214.02
986.14	214.03
986.43	214.03
986.72	214.03
987.01	213.97
987.30	213.99
987.59	214.00
987.89	213.99
988.18	213.90
988.47	213.91
988.76	213.88
989.05	213.85
989.34	213.82
989.63	213.88
989.92	213.87
990.22	213.87
990.51	213.88
990.80	213.87
991.09	213.86
991.38	213.86
991.67	213.79
991.96	213.76
992.25	213.76
992.54	213.71
992.83	213.73
993.12	213.74
993.41	213.75
993.70	213.80
993.99	213.84
994.28	213.89
994.58	213.89
994.87	213.91
995.16	213.91
995.45	213.90
995.74	213.83
996.03	213.86
996.32	213.90
996.61	213.96
996.90	213.98
997.19	214.00
997.48	214.01
997.77	214.01
998.06	214.06
998.34	214.03
998.63	214.03
998.92	214.03
999.21	214.03
999.50	214.00
999.79	213.93
1000.08	213.93
1000.37	213.92
1000.66	213.93
1000.95	213.98
1001.24	213.98
1001.53	214.00
1001.82	214.00
1002.11	213.94
1002.40	213.93
1002.68	213.99
1002.97	214.14
1003.26	214.14
1003.55	214.14
1003.84	214.21
1004.13	214.25
1004.42	214.28
1004.71	214.31
1004.99	214.28
1005.28	214.35
1005.57	214.36
1005.86	214.34
1006.15	214.34
1006.44	214.30
1006.72	214.33
1007.01	214.24
1007.30	214.22
1007.59	214.18
1007.88	214.17
1008.17	214.21
1008.45	214.17
1008.74	214.08
1009.03	213.98
1009.32	213.95
1009.60	213.90
1009.89	213.83
1010.18	213.74
1010.47	213.68
1010.76	213.69
1011.04	213.68
1011.33	213.67
1011.62	213.67
1011.91	213.69
1012.19	213.68
1012.48	213.69
1012.77	213.68
1013.05	213.84
1013.34	213.86
1013.63	213.86
1013.92	213.86
1014.20	213.83
1014.49	213.81
1014.78	213.83
1015.06	213.74
1015.35	213.73
1015.64	213.78
1015.92	213.80
1016.21	213.83
1016.50	213.85
1016.78	213.86
1017.07	213.89
1017.36	213.86
1017.64	213.80
1017.93	213.83
1018.22	213.81
1018.50	213.82
1018.79	213.85
1019.08	213.73
1019.36	213.73
1019.65	213.71
1019.93	213.75
1020.22	213.76
1020.51	213.87
1020.79	213.82
1021.08	213.45
1021.36	213.72
1021.65	214.45
1021.94	213.91
1022.22	213.74
1022.51	213.27
1022.79	214.10
1023.08	213.63
1023.36	216.16
1023.65	212.95
>>>>>End Processed Spectral Data<<<<<
