SpectraSuite Data File
++++++++++++++++++++++++++++++++++++
Date: Tue Jan 29 15:54:36 EST 2013
User: group
Dark Spectrum Present: No
Reference Spectrum Present: No
Number of Sampled Component Spectra: 1
Spectrometers: USB2E7196
Integration Time (usec): 65000 (USB2E7196)
Spectra Averaged: 100 (USB2E7196)
Boxcar Smoothing: 10 (USB2E7196)
Correct for Electrical Dark: No (USB2E7196)
Strobe/Lamp Enabled: No (USB2E7196)
Correct for Detector Non-linearity: No (USB2E7196)
Correct for Stray Light: No (USB2E7196)
Number of Pixels in Processed Spectrum: 2048
>>>>>Begin Processed Spectral Data<<<<<
339.09	0.00
339.48	202.86
339.86	204.63
340.24	206.06
340.63	207.62
341.01	211.90
341.39	210.60
341.78	211.61
342.16	212.46
342.54	212.93
342.93	202.28
343.31	212.47
343.69	213.04
344.07	213.49
344.46	213.91
344.84	214.30
345.22	214.44
345.60	214.67
345.99	214.87
346.37	215.04
346.75	215.19
347.13	215.25
347.52	215.31
347.90	215.39
348.28	215.40
348.66	215.44
349.05	215.40
349.43	215.46
349.81	215.52
350.19	215.58
350.57	215.64
350.96	215.73
351.34	215.86
351.72	215.94
352.10	216.08
352.48	216.17
352.87	216.21
353.25	216.31
353.63	216.36
354.01	216.42
354.39	216.48
354.77	216.54
355.15	216.70
355.54	216.73
355.92	216.78
356.30	216.88
356.68	217.11
357.06	217.24
357.44	217.27
357.82	217.34
358.20	217.41
358.58	217.49
358.97	217.57
359.35	217.66
359.73	217.75
360.11	217.79
360.49	217.84
360.87	217.92
361.25	217.96
361.63	218.08
362.01	218.13
362.39	218.16
362.77	218.18
363.15	218.21
363.53	218.24
363.91	218.27
364.29	218.29
364.67	218.13
365.05	218.11
365.43	218.16
365.81	218.16
366.19	218.25
366.57	218.33
366.95	218.33
367.33	218.29
367.71	218.30
368.09	218.35
368.47	218.37
368.85	218.34
369.23	218.41
369.61	218.32
369.99	218.37
370.37	218.37
370.75	218.49
371.13	218.42
371.51	218.41
371.89	218.40
372.27	218.38
372.65	218.36
373.03	218.34
373.41	218.31
373.78	218.27
374.16	218.16
374.54	218.04
374.92	217.99
375.30	217.96
375.68	217.91
376.06	217.87
376.44	217.81
376.82	217.76
377.19	217.70
377.57	217.70
377.95	217.59
378.33	217.53
378.71	217.36
379.09	217.38
379.47	217.35
379.84	217.27
380.22	217.22
380.60	217.15
380.98	217.09
381.36	217.02
381.73	216.99
382.11	216.99
382.49	216.99
382.87	216.91
383.25	216.87
383.62	217.04
384.00	216.95
384.38	216.90
384.76	216.94
385.13	217.00
385.51	216.93
385.89	216.91
386.27	216.87
386.64	216.88
387.02	216.83
387.40	216.81
387.78	216.82
388.15	216.82
388.53	216.78
388.91	216.77
389.29	216.75
389.66	216.74
390.04	216.68
390.42	216.66
390.79	216.66
391.17	216.63
391.55	216.39
391.92	216.40
392.30	216.38
392.68	216.31
393.05	216.23
393.43	216.24
393.81	216.24
394.18	216.21
394.56	216.19
394.94	216.23
395.31	216.20
395.69	216.25
396.06	216.26
396.44	216.31
396.82	216.30
397.19	216.40
397.57	216.42
397.95	216.48
398.32	216.47
398.70	216.53
399.07	216.63
399.45	216.66
399.82	216.71
400.20	216.74
400.58	216.80
400.95	216.80
401.33	216.92
401.70	217.13
402.08	217.24
402.45	217.34
402.83	217.45
403.20	217.56
403.58	217.66
403.95	217.79
404.33	217.92
404.71	218.13
405.08	218.38
405.46	218.53
405.83	218.68
406.21	218.85
406.58	219.07
406.96	219.26
407.33	219.48
407.70	219.76
408.08	220.24
408.45	220.57
408.83	220.94
409.20	221.27
409.58	221.53
409.95	221.94
410.33	222.41
410.70	222.80
411.08	223.33
411.45	223.87
411.82	224.42
412.20	225.08
412.57	225.84
412.95	226.37
413.32	227.18
413.69	228.02
414.07	228.89
414.44	229.83
414.82	230.83
415.19	231.99
415.56	233.15
415.94	234.27
416.31	235.65
416.68	236.99
417.06	238.49
417.43	239.95
417.81	241.63
418.18	243.32
418.55	245.17
418.93	247.07
419.30	249.11
419.67	251.25
420.04	253.40
420.42	255.67
420.79	258.41
421.16	261.03
421.54	263.84
421.91	266.69
422.28	269.63
422.66	272.77
423.03	275.84
423.40	279.05
423.77	282.48
424.15	285.96
424.52	289.64
424.89	293.64
425.26	297.53
425.64	301.20
426.01	305.30
426.38	309.57
426.75	313.90
427.13	318.41
427.50	323.15
427.87	328.13
428.24	333.10
428.61	337.85
428.99	343.19
429.36	348.92
429.73	354.60
430.10	360.28
430.47	366.05
430.85	372.14
431.22	378.47
431.59	385.26
431.96	391.80
432.33	398.98
432.70	405.91
433.08	414.09
433.45	421.80
433.82	429.43
434.19	438.02
434.56	446.43
434.93	454.42
435.30	462.31
435.68	471.08
436.05	479.71
436.42	488.27
436.79	496.02
437.16	504.41
437.53	513.27
437.90	521.99
438.27	530.58
438.64	539.39
439.01	547.57
439.38	554.81
439.75	561.77
440.13	569.80
440.50	577.36
440.87	583.47
441.24	589.87
441.61	596.86
441.98	601.94
442.35	607.92
442.72	613.96
443.09	619.80
443.46	623.31
443.83	625.66
444.20	627.72
444.57	630.75
444.94	632.06
445.31	633.46
445.68	634.74
446.05	635.30
446.42	634.53
446.79	633.62
447.16	632.55
447.53	631.86
447.90	628.72
448.27	625.56
448.64	621.11
449.01	617.90
449.37	612.26
449.74	606.80
450.11	600.16
450.48	593.06
450.85	585.85
451.22	579.66
451.59	573.76
451.96	568.15
452.33	560.60
452.70	553.81
453.07	545.69
453.43	537.52
453.80	529.63
454.17	521.97
454.54	514.80
454.91	507.09
455.28	499.49
455.65	492.45
456.02	485.37
456.38	479.32
456.75	471.86
457.12	465.70
457.49	459.55
457.86	453.70
458.23	448.60
458.59	443.06
458.96	437.38
459.33	432.42
459.70	427.33
460.07	423.26
460.43	418.66
460.80	414.30
461.17	410.45
461.54	406.46
461.91	402.67
462.27	398.77
462.64	395.47
463.01	391.78
463.38	388.19
463.74	384.63
464.11	381.58
464.48	378.85
464.85	375.87
465.21	373.51
465.58	371.06
465.95	368.05
466.32	365.54
466.68	363.00
467.05	360.50
467.42	358.06
467.78	355.54
468.15	353.09
468.52	351.30
468.88	348.97
469.25	346.88
469.62	345.16
469.98	343.29
470.35	341.54
470.72	339.97
471.08	338.26
471.45	336.87
471.82	335.43
472.18	333.86
472.55	332.73
472.92	331.46
473.28	330.27
473.65	329.22
474.02	328.16
474.38	327.38
474.75	326.69
475.11	325.95
475.48	325.43
475.85	325.00
476.21	324.55
476.58	324.23
476.94	324.03
477.31	323.76
477.67	323.58
478.04	323.47
478.41	323.42
478.77	323.63
479.14	323.61
479.50	323.79
479.87	324.11
480.23	324.48
480.60	324.76
480.96	325.09
481.33	325.71
481.69	326.30
482.06	326.88
482.42	327.36
482.79	328.02
483.15	328.83
483.52	329.84
483.88	330.77
484.25	331.71
484.61	332.67
484.98	333.75
485.34	335.04
485.71	336.43
486.07	337.88
486.44	339.21
486.80	340.80
487.17	342.42
487.53	344.27
487.90	346.09
488.26	348.13
488.62	350.26
488.99	352.31
489.35	354.45
489.72	356.76
490.08	359.32
490.44	361.86
490.81	364.49
491.17	367.19
491.54	370.12
491.90	373.15
492.26	376.43
492.63	379.81
492.99	383.31
493.36	387.02
493.72	390.86
494.08	394.84
494.45	399.05
494.81	403.41
495.17	407.84
495.54	412.52
495.90	417.26
496.26	422.18
496.63	427.34
496.99	432.71
497.35	438.32
497.72	444.12
498.08	450.07
498.44	456.15
498.80	462.53
499.17	468.98
499.53	475.64
499.89	482.53
500.26	489.50
500.62	496.58
500.98	503.89
501.34	511.34
501.71	519.08
502.07	526.78
502.43	534.77
502.79	542.87
503.16	551.21
503.52	559.82
503.88	568.44
504.24	577.32
504.60	586.32
504.97	595.53
505.33	604.71
505.69	614.46
506.05	624.30
506.41	634.05
506.78	644.08
507.14	654.34
507.50	664.69
507.86	675.36
508.22	686.05
508.59	696.70
508.95	707.71
509.31	718.86
509.67	730.41
510.03	741.76
510.39	753.48
510.75	765.29
511.12	777.11
511.48	789.17
511.84	801.34
512.20	813.66
512.56	826.09
512.92	838.76
513.28	851.25
513.64	863.89
514.00	876.53
514.37	889.30
514.73	902.22
515.09	914.98
515.45	927.61
515.81	940.44
516.17	953.54
516.53	966.61
516.89	979.56
517.25	992.44
517.61	1005.75
517.97	1018.77
518.33	1031.66
518.69	1044.92
519.05	1058.40
519.41	1071.79
519.77	1085.46
520.13	1098.54
520.49	1111.55
520.85	1124.63
521.21	1137.70
521.57	1151.28
521.93	1164.20
522.29	1177.80
522.65	1191.32
523.01	1204.65
523.37	1217.59
523.73	1230.65
524.09	1243.48
524.45	1256.66
524.81	1269.90
525.17	1282.86
525.53	1295.74
525.89	1308.81
526.25	1321.67
526.61	1334.09
526.97	1346.91
527.33	1359.41
527.68	1372.56
528.04	1385.62
528.40	1398.42
528.76	1411.46
529.12	1423.96
529.48	1436.74
529.84	1448.47
530.20	1460.71
530.56	1472.91
530.91	1485.79
531.27	1498.25
531.63	1510.64
531.99	1522.87
532.35	1534.64
532.71	1546.58
533.07	1559.03
533.42	1570.70
533.78	1582.25
534.14	1593.98
534.50	1604.79
534.86	1615.81
535.21	1626.15
535.57	1637.18
535.93	1648.02
536.29	1658.68
536.65	1669.61
537.00	1680.21
537.36	1691.23
537.72	1701.82
538.08	1712.77
538.44	1723.28
538.79	1733.93
539.15	1744.42
539.51	1754.81
539.87	1765.79
540.22	1776.18
540.58	1786.69
540.94	1797.27
541.29	1807.16
541.65	1816.54
542.01	1826.80
542.37	1836.69
542.72	1846.48
543.08	1855.88
543.44	1866.14
543.79	1875.02
544.15	1884.20
544.51	1893.76
544.87	1903.09
545.22	1911.79
545.58	1920.39
545.94	1928.74
546.29	1936.85
546.65	1944.68
547.01	1952.48
547.36	1959.62
547.72	1967.05
548.07	1974.16
548.43	1981.44
548.79	1988.99
549.14	1996.78
549.50	2004.64
549.86	2012.16
550.21	2019.26
550.57	2026.59
550.92	2032.91
551.28	2039.85
551.64	2046.53
551.99	2053.76
552.35	2060.67
552.70	2067.43
553.06	2073.74
553.41	2079.85
553.77	2086.19
554.13	2092.51
554.48	2099.45
554.84	2106.35
555.19	2112.77
555.55	2118.98
555.90	2125.12
556.26	2131.77
556.61	2137.61
556.97	2142.26
557.32	2147.71
557.68	2154.09
558.03	2159.80
558.39	2164.89
558.74	2170.94
559.10	2176.52
559.45	2181.94
559.81	2187.32
560.16	2192.77
560.52	2198.58
560.87	2204.85
561.23	2210.76
561.58	2217.38
561.94	2222.43
562.29	2227.21
562.64	2233.36
563.00	2239.22
563.35	2244.85
563.71	2250.62
564.06	2256.24
564.42	2262.30
564.77	2267.51
565.12	2272.72
565.48	2277.84
565.83	2283.57
566.19	2289.10
566.54	2294.62
566.89	2299.20
567.25	2303.97
567.60	2309.81
567.96	2315.04
568.31	2319.75
568.66	2324.09
569.02	2328.05
569.37	2332.01
569.72	2336.49
570.08	2339.89
570.43	2343.10
570.78	2346.21
571.14	2348.86
571.49	2352.23
571.84	2356.02
572.20	2358.95
572.55	2362.14
572.90	2364.51
573.26	2367.46
573.61	2370.16
573.96	2372.37
574.31	2374.56
574.67	2376.52
575.02	2377.50
575.37	2379.11
575.72	2380.17
576.08	2381.64
576.43	2381.94
576.78	2382.70
577.13	2384.47
577.49	2385.85
577.84	2387.10
578.19	2388.87
578.54	2389.75
578.90	2390.64
579.25	2390.72
579.60	2391.18
579.95	2390.72
580.30	2391.13
580.66	2390.72
581.01	2389.31
581.36	2387.46
581.71	2386.59
582.06	2385.85
582.42	2385.30
582.77	2383.39
583.12	2382.17
583.47	2381.27
583.82	2381.05
584.17	2380.12
584.53	2378.44
584.88	2376.77
585.23	2375.31
585.58	2373.16
585.93	2371.41
586.28	2369.63
586.63	2367.54
586.98	2365.55
587.34	2364.00
587.69	2361.94
588.04	2360.16
588.39	2358.88
588.74	2356.59
589.09	2354.26
589.44	2351.40
589.79	2349.15
590.14	2347.54
590.49	2344.84
590.84	2341.17
591.19	2338.45
591.54	2335.46
591.89	2331.73
592.25	2328.73
592.60	2324.72
592.95	2320.94
593.30	2317.02
593.65	2312.87
594.00	2308.60
594.35	2305.90
594.70	2301.18
595.05	2296.87
595.40	2291.76
595.75	2286.42
596.10	2283.04
596.45	2278.36
596.80	2274.05
597.15	2268.97
597.50	2263.29
597.85	2258.44
598.19	2253.45
598.54	2247.65
598.89	2242.51
599.24	2237.85
599.59	2231.89
599.94	2226.32
600.29	2220.50
600.64	2214.59
600.99	2207.94
601.34	2202.71
601.69	2195.70
602.04	2189.58
602.39	2183.03
602.74	2176.92
603.08	2171.42
603.43	2164.95
603.78	2158.27
604.13	2151.17
604.48	2144.09
604.83	2138.02
605.18	2132.01
605.53	2125.29
605.87	2118.45
606.22	2111.79
606.57	2104.12
606.92	2096.36
607.27	2089.61
607.62	2083.20
607.96	2076.40
608.31	2070.02
608.66	2062.26
609.01	2054.88
609.36	2047.95
609.70	2040.50
610.05	2032.98
610.40	2024.82
610.75	2016.66
611.10	2008.93
611.44	2000.35
611.79	1991.79
612.14	1981.97
612.49	1971.35
612.83	1962.07
613.18	1952.95
613.53	1943.80
613.88	1934.33
614.22	1925.78
614.57	1915.95
614.92	1905.31
615.27	1895.40
615.61	1885.39
615.96	1875.86
616.31	1866.35
616.65	1856.79
617.00	1846.97
617.35	1837.28
617.70	1827.52
618.04	1817.59
618.39	1807.52
618.74	1797.87
619.08	1788.30
619.43	1779.67
619.78	1771.50
620.12	1762.86
620.47	1753.24
620.82	1742.93
621.16	1733.21
621.51	1723.27
621.85	1713.33
622.20	1702.84
622.55	1692.12
622.89	1682.35
623.24	1672.66
623.59	1662.83
623.93	1652.83
624.28	1642.96
624.62	1632.79
624.97	1622.61
625.32	1612.75
625.66	1603.84
626.01	1595.09
626.35	1585.56
626.70	1575.30
627.04	1565.14
627.39	1555.11
627.73	1545.71
628.08	1536.70
628.43	1527.07
628.77	1517.87
629.12	1508.93
629.46	1501.21
629.81	1492.86
630.15	1483.15
630.50	1473.15
630.84	1462.51
631.19	1452.59
631.53	1443.37
631.88	1433.17
632.22	1423.13
632.57	1413.64
632.91	1403.38
633.26	1393.23
633.60	1383.59
633.95	1374.36
634.29	1364.98
634.64	1355.58
634.98	1345.63
635.32	1336.33
635.67	1327.85
636.01	1318.36
636.36	1308.64
636.70	1299.12
637.05	1289.79
637.39	1280.84
637.73	1272.30
638.08	1264.75
638.42	1256.51
638.77	1247.65
639.11	1239.46
639.45	1231.58
639.80	1223.05
640.14	1214.53
640.49	1205.89
640.83	1197.14
641.17	1189.00
641.52	1180.91
641.86	1172.36
642.20	1164.40
642.55	1155.65
642.89	1146.67
643.23	1138.13
643.58	1130.05
643.92	1121.00
644.26	1112.27
644.61	1103.91
644.95	1095.07
645.29	1085.94
645.64	1076.75
645.98	1068.32
646.32	1060.41
646.66	1051.88
647.01	1043.63
647.35	1035.30
647.69	1026.92
648.04	1018.58
648.38	1009.75
648.72	1000.79
649.06	992.34
649.41	984.30
649.75	976.43
650.09	968.61
650.43	960.60
650.78	952.32
651.12	944.71
651.46	937.41
651.80	930.17
652.14	922.90
652.49	915.34
652.83	908.12
653.17	900.43
653.51	892.83
653.85	885.72
654.20	878.43
654.54	870.99
654.88	863.81
655.22	856.73
655.56	849.77
655.90	843.09
656.25	836.49
656.59	829.63
656.93	822.69
657.27	815.63
657.61	808.77
657.95	802.73
658.29	796.78
658.64	790.54
658.98	784.18
659.32	777.66
659.66	771.53
660.00	765.24
660.34	759.33
660.68	753.36
661.02	746.99
661.36	741.16
661.70	735.55
662.05	730.00
662.39	724.58
662.73	719.28
663.07	713.93
663.41	708.42
663.75	702.78
664.09	697.18
664.43	691.89
664.77	686.61
665.11	680.87
665.45	675.08
665.79	669.41
666.13	663.80
666.47	658.52
666.81	653.12
667.15	647.84
667.49	642.67
667.83	637.46
668.17	632.37
668.51	627.33
668.85	622.49
669.19	617.65
669.53	612.70
669.87	607.64
670.21	602.96
670.55	598.26
670.89	593.89
671.23	589.66
671.57	585.33
671.91	581.14
672.25	576.96
672.58	572.93
672.92	568.88
673.26	564.99
673.60	561.11
673.94	557.39
674.28	553.88
674.62	550.20
674.96	546.49
675.30	543.06
675.64	539.42
675.97	535.84
676.31	532.31
676.65	528.83
676.99	525.50
677.33	521.77
677.67	518.24
678.01	514.55
678.34	510.94
678.68	507.44
679.02	503.88
679.36	500.36
679.70	496.82
680.04	493.42
680.37	490.08
680.71	486.85
681.05	483.73
681.39	480.50
681.73	477.42
682.06	474.46
682.40	471.42
682.74	468.33
683.08	465.23
683.42	462.14
683.75	459.20
684.09	456.21
684.43	453.48
684.77	450.62
685.10	447.80
685.44	444.96
685.78	442.12
686.12	439.45
686.45	436.79
686.79	434.14
687.13	431.69
687.46	429.13
687.80	426.56
688.14	423.79
688.48	421.25
688.81	418.62
689.15	416.11
689.49	413.55
689.82	411.12
690.16	408.59
690.50	406.20
690.83	403.75
691.17	401.27
691.51	398.91
691.84	396.70
692.18	394.55
692.52	392.42
692.85	390.37
693.19	388.25
693.52	386.15
693.86	384.06
694.20	381.89
694.53	379.76
694.87	377.59
695.21	375.54
695.54	373.47
695.88	371.38
696.21	369.27
696.55	367.22
696.88	365.27
697.22	363.39
697.56	361.54
697.89	359.72
698.23	358.07
698.56	356.31
698.90	354.63
699.23	352.78
699.57	350.98
699.90	349.19
700.24	347.50
700.58	345.79
700.91	344.16
701.25	342.65
701.58	341.12
701.92	339.64
702.25	338.07
702.59	336.51
702.92	335.03
703.26	333.56
703.59	332.16
703.93	330.97
704.26	329.56
704.60	328.14
704.93	326.77
705.26	325.27
705.60	323.82
705.93	322.36
706.27	321.07
706.60	319.89
706.94	318.71
707.27	317.36
707.61	316.12
707.94	314.82
708.27	313.41
708.61	312.03
708.94	310.70
709.28	309.48
709.61	308.30
709.94	307.12
710.28	305.93
710.61	304.79
710.95	303.37
711.28	302.32
711.61	301.12
711.95	300.00
712.28	298.89
712.61	297.77
712.95	296.75
713.28	295.79
713.61	294.71
713.95	293.58
714.28	292.56
714.61	291.51
714.95	290.54
715.28	289.53
715.61	288.58
715.95	287.64
716.28	286.72
716.61	285.80
716.95	284.86
717.28	283.98
717.61	283.05
717.94	282.19
718.28	281.21
718.61	280.38
718.94	279.49
719.27	278.63
719.61	277.89
719.94	277.06
720.27	276.10
720.60	275.24
720.94	274.52
721.27	273.83
721.60	273.20
721.93	272.51
722.27	271.90
722.60	271.27
722.93	270.62
723.26	270.02
723.59	269.33
723.93	268.75
724.26	268.11
724.59	267.49
724.92	266.95
725.25	266.41
725.59	265.88
725.92	265.41
726.25	264.92
726.58	264.34
726.91	263.76
727.24	263.30
727.57	262.76
727.91	262.16
728.24	261.61
728.57	261.03
728.90	260.51
729.23	259.87
729.56	259.46
729.89	258.92
730.22	258.38
730.55	257.89
730.89	257.37
731.22	256.87
731.55	256.37
731.88	255.85
732.21	255.34
732.54	254.85
732.87	254.36
733.20	253.87
733.53	253.46
733.86	253.03
734.19	252.54
734.52	252.14
734.85	251.86
735.18	251.38
735.51	251.01
735.84	250.62
736.17	250.31
736.50	249.79
736.83	249.66
737.16	249.27
737.49	248.90
737.82	248.49
738.15	248.15
738.48	247.80
738.81	247.45
739.14	247.06
739.47	246.70
739.80	246.33
740.13	246.00
740.46	245.62
740.79	245.21
741.12	244.88
741.45	244.51
741.78	244.10
742.11	243.89
742.44	243.54
742.77	243.20
743.10	242.85
743.43	242.50
743.75	241.93
744.08	241.84
744.41	241.45
744.74	241.15
745.07	240.79
745.40	240.50
745.73	240.26
746.06	239.96
746.39	239.63
746.71	239.28
747.04	238.94
747.37	238.60
747.70	238.35
748.03	238.07
748.36	237.85
748.68	237.55
749.01	237.20
749.34	236.91
749.67	236.68
750.00	236.47
750.33	236.37
750.65	236.15
750.98	235.67
751.31	235.48
751.64	235.26
751.97	235.13
752.29	234.89
752.62	234.56
752.95	234.31
753.28	234.06
753.60	233.87
753.93	233.75
754.26	233.58
754.59	233.32
754.91	233.06
755.24	232.79
755.57	232.59
755.90	232.36
756.22	232.16
756.55	231.90
756.88	231.61
757.20	231.26
757.53	231.01
757.86	230.84
758.19	230.68
758.51	230.45
758.84	230.16
759.17	229.94
759.49	229.78
759.82	229.72
760.15	229.57
760.47	229.38
760.80	229.10
761.13	228.95
761.45	228.77
761.78	228.62
762.11	228.44
762.43	228.22
762.76	228.07
763.08	227.91
763.41	227.75
763.74	227.59
764.06	227.46
764.39	227.32
764.71	227.14
765.04	226.96
765.37	226.84
765.69	226.70
766.02	226.58
766.34	226.43
766.67	226.19
767.00	226.08
767.32	226.06
767.65	226.11
767.97	225.96
768.30	225.86
768.62	225.69
768.95	225.58
769.27	225.51
769.60	225.41
769.92	225.25
770.25	225.13
770.57	225.00
770.90	224.88
771.22	224.73
771.55	224.63
771.87	224.52
772.20	224.39
772.52	224.45
772.85	224.59
773.17	224.49
773.50	224.41
773.82	224.28
774.15	224.10
774.47	223.82
774.80	223.71
775.12	223.62
775.45	223.55
775.77	223.45
776.09	223.35
776.42	223.28
776.74	223.25
777.07	223.12
777.39	223.06
777.72	222.95
778.04	222.91
778.36	222.83
778.69	222.77
779.01	222.72
779.33	222.47
779.66	222.14
779.98	222.05
780.31	221.98
780.63	221.99
780.95	221.95
781.28	221.89
781.60	221.81
781.92	221.73
782.25	221.69
782.57	221.61
782.89	221.52
783.22	221.44
783.54	221.32
783.86	221.29
784.19	221.20
784.51	221.19
784.83	221.11
785.16	221.04
785.48	220.98
785.80	220.89
786.12	220.83
786.45	220.78
786.77	220.74
787.09	220.69
787.42	220.57
787.74	220.51
788.06	220.45
788.38	220.39
788.71	220.33
789.03	220.30
789.35	220.29
789.67	220.20
789.99	220.16
790.32	220.11
790.64	220.09
790.96	220.23
791.28	220.16
791.61	220.08
791.93	220.05
792.25	219.98
792.57	220.10
792.89	220.06
793.21	220.04
793.54	219.95
793.86	219.84
794.18	219.81
794.50	219.73
794.82	219.70
795.14	219.71
795.47	219.67
795.79	219.61
796.11	219.55
796.43	219.49
796.75	219.43
797.07	219.41
797.39	219.35
797.71	219.14
798.04	219.11
798.36	219.14
798.68	219.09
799.00	219.08
799.32	218.92
799.64	218.92
799.96	218.88
800.28	218.92
800.60	218.90
800.92	218.84
801.24	218.82
801.56	218.81
801.89	218.72
802.21	218.68
802.53	218.59
802.85	218.56
803.17	218.67
803.49	218.63
803.81	218.54
804.13	218.51
804.45	218.45
804.77	218.40
805.09	218.33
805.41	218.31
805.73	218.25
806.05	218.17
806.37	218.12
806.69	218.05
807.01	217.99
807.33	218.02
807.65	217.94
807.97	217.97
808.28	217.93
808.60	217.93
808.92	217.89
809.24	218.05
809.56	218.01
809.88	217.91
810.20	217.89
810.52	217.90
810.84	217.86
811.16	217.82
811.48	217.81
811.80	217.86
812.12	217.81
812.43	217.81
812.75	217.81
813.07	217.76
813.39	217.77
813.71	217.72
814.03	217.63
814.35	217.62
814.67	217.54
814.98	217.48
815.30	217.46
815.62	217.43
815.94	217.28
816.26	217.28
816.58	217.23
816.89	217.23
817.21	217.21
817.53	217.21
817.85	217.22
818.17	217.22
818.48	217.14
818.80	217.16
819.12	217.14
819.44	217.10
819.76	217.06
820.07	217.03
820.39	217.01
820.71	217.02
821.03	217.00
821.34	217.00
821.66	217.00
821.98	217.01
822.30	216.96
822.61	217.06
822.93	217.00
823.25	216.98
823.57	216.93
823.88	216.96
824.20	216.93
824.52	216.96
824.83	216.91
825.15	216.86
825.47	216.80
825.79	216.80
826.10	216.75
826.42	216.73
826.74	216.76
827.05	216.75
827.37	216.76
827.69	216.77
828.00	216.76
828.32	216.77
828.64	216.73
828.95	216.83
829.27	216.77
829.58	216.75
829.90	216.76
830.22	216.78
830.53	216.71
830.85	216.69
831.17	216.65
831.48	216.68
831.80	216.69
832.11	216.68
832.43	216.64
832.75	216.68
833.06	216.81
833.38	216.74
833.69	216.72
834.01	216.69
834.32	216.67
834.64	216.61
834.96	216.58
835.27	216.56
835.59	216.49
835.90	216.44
836.22	216.43
836.53	216.38
836.85	216.36
837.16	216.58
837.48	216.56
837.79	216.59
838.11	216.59
838.42	216.58
838.74	216.61
839.05	216.60
839.37	216.57
839.68	216.43
840.00	216.43
840.31	216.46
840.63	216.48
840.94	216.45
841.26	216.43
841.57	216.42
841.88	216.44
842.20	216.42
842.51	216.41
842.83	216.37
843.14	216.55
843.46	216.54
843.77	216.39
844.08	216.37
844.40	216.33
844.71	216.27
845.03	216.24
845.34	216.18
845.65	216.17
845.97	216.16
846.28	216.17
846.60	216.17
846.91	216.13
847.22	216.09
847.54	216.16
847.85	216.14
848.16	216.13
848.48	216.08
848.79	216.13
849.10	216.16
849.42	216.20
849.73	216.00
850.04	215.96
850.36	215.88
850.67	215.92
850.98	215.88
851.30	215.90
851.61	215.89
851.92	215.93
852.23	215.99
852.55	215.98
852.86	216.00
853.17	216.03
853.49	216.07
853.80	216.12
854.11	216.11
854.42	216.18
854.74	216.14
855.05	216.16
855.36	216.07
855.67	216.06
855.99	216.07
856.30	216.33
856.61	216.34
856.92	216.36
857.23	216.35
857.55	216.37
857.86	216.35
858.17	216.40
858.48	216.36
858.79	216.29
859.11	216.32
859.42	216.28
859.73	216.22
860.04	216.21
860.35	216.12
860.66	216.03
860.98	216.00
861.29	216.05
861.60	216.03
861.91	216.07
862.22	216.05
862.53	215.99
862.84	215.76
863.16	215.82
863.47	215.78
863.78	215.74
864.09	215.74
864.40	215.76
864.71	215.74
865.02	215.72
865.33	215.71
865.64	215.65
865.95	215.66
866.27	215.80
866.58	215.78
866.89	215.81
867.20	215.83
867.51	215.79
867.82	215.76
868.13	215.83
868.44	215.75
868.75	215.78
869.06	215.79
869.37	215.76
869.68	215.71
869.99	215.72
870.30	215.76
870.61	215.78
870.92	215.71
871.23	215.72
871.54	215.76
871.85	215.80
872.16	215.85
872.47	215.86
872.78	215.72
873.09	215.73
873.40	215.72
873.71	215.72
874.02	215.76
874.33	215.73
874.64	215.67
874.95	215.71
875.26	215.66
875.56	215.67
875.87	215.67
876.18	215.65
876.49	215.86
876.80	215.85
877.11	215.81
877.42	215.85
877.73	215.84
878.04	215.81
878.35	215.79
878.66	215.81
878.96	215.77
879.27	215.76
879.58	215.73
879.89	215.70
880.20	215.78
880.51	215.78
880.82	215.83
881.12	215.84
881.43	215.83
881.74	215.82
882.05	215.83
882.36	215.85
882.67	215.86
882.97	215.67
883.28	215.61
883.59	215.58
883.90	215.56
884.21	215.60
884.51	215.60
884.82	215.59
885.13	215.58
885.44	215.59
885.74	215.59
886.05	215.58
886.36	215.63
886.67	215.54
886.98	215.63
887.28	215.63
887.59	215.61
887.90	215.62
888.20	215.63
888.51	215.65
888.82	215.61
889.13	215.63
889.43	215.78
889.74	215.78
890.05	215.75
890.35	215.77
890.66	215.70
890.97	215.67
891.28	215.65
891.58	215.63
891.89	215.62
892.20	215.58
892.50	215.56
892.81	215.54
893.12	215.53
893.42	215.42
893.73	215.42
894.04	215.42
894.34	215.41
894.65	215.41
894.95	215.35
895.26	215.37
895.57	215.45
895.87	215.25
896.18	215.29
896.48	215.35
896.79	215.34
897.10	215.38
897.40	215.40
897.71	215.41
898.01	215.38
898.32	215.44
898.63	215.44
898.93	215.46
899.24	215.44
899.54	215.45
899.85	215.44
900.15	215.39
900.46	215.39
900.76	215.41
901.07	215.38
901.38	215.42
901.68	215.43
901.99	215.33
902.29	215.34
902.60	215.29
902.90	215.28
903.21	215.27
903.51	215.24
903.82	215.26
904.12	215.28
904.43	215.30
904.73	215.26
905.03	215.26
905.34	215.47
905.64	215.47
905.95	215.46
906.25	215.44
906.56	215.43
906.86	215.42
907.17	215.41
907.47	215.45
907.77	215.41
908.08	215.40
908.38	215.41
908.69	215.40
908.99	215.48
909.30	215.48
909.60	215.50
909.90	215.52
910.21	215.47
910.51	215.41
910.81	215.40
911.12	215.40
911.42	215.43
911.73	215.22
912.03	215.24
912.33	215.27
912.64	215.29
912.94	215.29
913.24	215.26
913.55	215.24
913.85	215.24
914.15	215.26
914.46	215.26
914.76	215.24
915.06	215.26
915.37	215.17
915.67	215.16
915.97	215.16
916.27	215.14
916.58	215.16
916.88	215.18
917.18	215.16
917.49	215.31
917.79	215.30
918.09	215.34
918.39	215.37
918.70	215.33
919.00	215.32
919.30	215.42
919.60	215.41
919.91	215.39
920.21	215.39
920.51	215.34
920.81	215.34
921.12	215.34
921.42	215.33
921.72	215.37
922.02	215.39
922.32	215.42
922.63	215.40
922.93	215.51
923.23	215.51
923.53	215.54
923.83	215.40
924.13	215.41
924.44	215.41
924.74	215.48
925.04	215.57
925.34	215.57
925.64	215.48
925.94	215.52
926.24	215.65
926.55	215.60
926.85	215.65
927.15	215.65
927.45	215.67
927.75	215.68
928.05	215.69
928.35	215.64
928.65	215.67
928.95	215.69
929.26	215.60
929.56	215.63
929.86	215.61
930.16	215.61
930.46	215.58
930.76	215.59
931.06	215.47
931.36	215.39
931.66	215.46
931.96	215.48
932.26	215.47
932.56	215.32
932.86	215.34
933.16	215.32
933.46	215.32
933.76	215.30
934.06	215.35
934.36	215.43
934.66	215.41
934.96	215.39
935.26	215.38
935.56	215.42
935.86	215.40
936.16	215.37
936.46	215.35
936.76	215.37
937.06	215.34
937.36	215.35
937.66	215.36
937.96	215.32
938.26	215.30
938.56	215.31
938.86	215.37
939.16	215.41
939.46	215.44
939.76	215.43
940.06	215.41
940.35	215.35
940.65	215.24
940.95	215.31
941.25	215.26
941.55	215.24
941.85	215.21
942.15	215.23
942.45	215.32
942.75	215.30
943.04	215.30
943.34	215.33
943.64	215.32
943.94	215.29
944.24	215.26
944.54	215.27
944.84	215.27
945.13	215.22
945.43	215.17
945.73	215.17
946.03	215.18
946.33	215.16
946.62	215.15
946.92	215.15
947.22	215.13
947.52	215.12
947.82	215.13
948.11	215.12
948.41	215.06
948.71	215.00
949.01	215.05
949.31	215.02
949.60	215.00
949.90	215.01
950.20	215.02
950.50	215.06
950.79	215.04
951.09	215.02
951.39	215.03
951.69	215.04
951.98	215.06
952.28	215.07
952.58	215.08
952.87	215.08
953.17	215.09
953.47	215.07
953.76	215.08
954.06	215.07
954.36	215.03
954.66	215.00
954.95	215.04
955.25	215.02
955.55	215.06
955.84	215.00
956.14	215.04
956.44	215.08
956.73	215.01
957.03	215.00
957.32	215.01
957.62	215.01
957.92	215.05
958.21	215.08
958.51	215.30
958.81	215.32
959.10	215.34
959.40	215.38
959.69	215.39
959.99	215.43
960.29	215.40
960.58	215.44
960.88	215.57
961.17	215.57
961.47	215.59
961.76	215.57
962.06	215.64
962.36	215.60
962.65	215.58
962.95	215.62
963.24	215.62
963.54	215.63
963.83	215.64
964.13	215.61
964.42	215.52
964.72	215.32
965.01	215.30
965.31	215.28
965.60	215.24
965.90	215.39
966.19	215.34
966.49	215.39
966.78	215.38
967.08	215.33
967.37	215.30
967.67	215.28
967.96	215.30
968.26	215.28
968.55	215.33
968.85	215.33
969.14	215.32
969.43	215.33
969.73	215.28
970.02	215.29
970.32	215.30
970.61	215.31
970.91	215.27
971.20	215.22
971.49	215.24
971.79	215.28
972.08	215.12
972.38	215.13
972.67	215.10
972.96	215.12
973.26	215.10
973.55	215.11
973.85	215.10
974.14	215.12
974.43	215.11
974.73	215.04
975.02	215.02
975.31	215.03
975.61	215.01
975.90	215.00
976.19	214.98
976.49	215.00
976.78	215.01
977.07	215.01
977.37	215.06
977.66	215.04
977.95	214.99
978.24	214.99
978.54	215.06
978.83	215.07
979.12	215.03
979.42	215.02
979.71	215.01
980.00	214.99
980.29	214.96
980.59	214.92
980.88	214.99
981.17	214.96
981.46	214.96
981.76	214.95
982.05	215.04
982.34	215.03
982.63	215.02
982.93	215.00
983.22	215.05
983.51	215.08
983.80	215.11
984.09	215.13
984.39	215.13
984.68	215.07
984.97	215.07
985.26	215.04
985.55	215.06
985.85	215.04
986.14	215.08
986.43	215.12
986.72	215.14
987.01	215.08
987.30	215.10
987.59	215.06
987.89	215.09
988.18	215.00
988.47	215.01
988.76	215.00
989.05	215.00
989.34	214.98
989.63	215.02
989.92	215.01
990.22	214.99
990.51	214.99
990.80	214.97
991.09	215.01
991.38	215.05
991.67	215.05
991.96	215.04
992.25	215.02
992.54	214.97
992.83	214.99
993.12	214.96
993.41	215.00
993.70	215.12
993.99	215.19
994.28	215.22
994.58	215.25
994.87	215.22
995.16	215.27
995.45	215.24
995.74	215.14
996.03	215.19
996.32	215.22
996.61	215.27
996.90	215.29
997.19	215.25
997.48	215.27
997.77	215.24
998.06	215.25
998.34	215.23
998.63	215.22
998.92	215.18
999.21	215.25
999.50	215.24
999.79	215.15
1000.08	215.12
1000.37	215.12
1000.66	215.08
1000.95	215.14
1001.24	215.12
1001.53	215.16
1001.82	215.15
1002.11	215.10
1002.40	215.11
1002.68	215.14
1002.97	215.28
1003.26	215.26
1003.55	215.22
1003.84	215.25
1004.13	215.32
1004.42	215.32
1004.71	215.33
1004.99	215.36
1005.28	215.43
1005.57	215.43
1005.86	215.41
1006.15	215.39
1006.44	215.37
1006.72	215.38
1007.01	215.35
1007.30	215.31
1007.59	215.27
1007.88	215.28
1008.17	215.29
1008.45	215.24
1008.74	215.14
1009.03	215.07
1009.32	215.07
1009.60	215.05
1009.89	215.02
1010.18	214.93
1010.47	214.95
1010.76	214.96
1011.04	214.96
1011.33	214.91
1011.62	214.93
1011.91	214.95
1012.19	214.97
1012.48	214.99
1012.77	214.99
1013.05	215.12
1013.34	215.15
1013.63	215.14
1013.92	215.15
1014.20	215.12
1014.49	215.14
1014.78	215.21
1015.06	215.13
1015.35	215.16
1015.64	215.22
1015.92	215.26
1016.21	215.27
1016.50	215.28
1016.78	215.28
1017.07	215.27
1017.36	215.26
1017.64	215.19
1017.93	215.25
1018.22	215.23
1018.50	215.22
1018.79	215.22
1019.08	215.11
1019.36	215.13
1019.65	215.10
1019.93	215.16
1020.22	215.20
1020.51	215.32
1020.79	215.26
1021.08	214.79
1021.36	214.79
1021.65	214.87
1021.94	215.27
1022.22	215.25
1022.51	214.24
1022.79	215.98
1023.08	215.45
1023.36	217.90
1023.65	214.54
>>>>>End Processed Spectral Data<<<<<
