SpectraSuite Data File
++++++++++++++++++++++++++++++++++++
Date: Tue Jan 29 16:11:16 EST 2013
User: group
Dark Spectrum Present: No
Reference Spectrum Present: No
Number of Sampled Component Spectra: 1
Spectrometers: USB2E7196
Integration Time (usec): 65000 (USB2E7196)
Spectra Averaged: 100 (USB2E7196)
Boxcar Smoothing: 10 (USB2E7196)
Correct for Electrical Dark: No (USB2E7196)
Strobe/Lamp Enabled: No (USB2E7196)
Correct for Detector Non-linearity: No (USB2E7196)
Correct for Stray Light: No (USB2E7196)
Number of Pixels in Processed Spectrum: 2048
>>>>>Begin Processed Spectral Data<<<<<
339.09	0.00
339.48	202.47
339.86	203.82
340.24	204.92
340.63	206.25
341.01	211.13
341.39	209.13
341.78	210.64
342.16	212.28
342.54	212.51
342.93	201.53
343.31	211.70
343.69	212.27
344.07	212.73
344.46	213.21
344.84	213.62
345.22	213.79
345.60	214.08
345.99	214.30
346.37	214.47
346.75	214.58
347.13	214.66
347.52	214.75
347.90	214.90
348.28	214.93
348.66	215.02
349.05	214.99
349.43	215.07
349.81	215.13
350.19	215.21
350.57	215.27
350.96	215.37
351.34	215.50
351.72	215.55
352.10	215.67
352.48	215.71
352.87	215.73
353.25	215.80
353.63	215.85
354.01	215.90
354.39	215.95
354.77	216.05
355.15	216.20
355.54	216.26
355.92	216.28
356.30	216.35
356.68	216.54
357.06	216.65
357.44	216.70
357.82	216.75
358.20	216.82
358.58	216.90
358.97	216.95
359.35	217.03
359.73	217.15
360.11	217.20
360.49	217.28
360.87	217.38
361.25	217.47
361.63	217.56
362.01	217.63
362.39	217.64
362.77	217.67
363.15	217.67
363.53	217.65
363.91	217.68
364.29	217.72
364.67	217.55
365.05	217.53
365.43	217.55
365.81	217.56
366.19	217.64
366.57	217.71
366.95	217.71
367.33	217.70
367.71	217.69
368.09	217.71
368.47	217.72
368.85	217.68
369.23	217.69
369.61	217.64
369.99	217.67
370.37	217.68
370.75	217.75
371.13	217.65
371.51	217.63
371.89	217.60
372.27	217.58
372.65	217.57
373.03	217.56
373.41	217.54
373.78	217.50
374.16	217.37
374.54	217.28
374.92	217.21
375.30	217.16
375.68	217.06
376.06	217.05
376.44	216.97
376.82	216.96
377.19	216.92
377.57	216.87
377.95	216.77
378.33	216.72
378.71	216.56
379.09	216.57
379.47	216.58
379.84	216.54
380.22	216.48
380.60	216.38
380.98	216.33
381.36	216.27
381.73	216.21
382.11	216.21
382.49	216.18
382.87	216.16
383.25	216.12
383.62	216.33
384.00	216.26
384.38	216.24
384.76	216.25
385.13	216.28
385.51	216.22
385.89	216.16
386.27	216.13
386.64	216.15
387.02	216.12
387.40	216.05
387.78	216.02
388.15	216.02
388.53	216.02
388.91	216.03
389.29	216.02
389.66	216.02
390.04	215.98
390.42	216.02
390.79	215.99
391.17	216.00
391.55	215.76
391.92	215.74
392.30	215.77
392.68	215.71
393.05	215.70
393.43	215.69
393.81	215.71
394.18	215.70
394.56	215.72
394.94	215.73
395.31	215.72
395.69	215.78
396.06	215.83
396.44	215.85
396.82	215.82
397.19	215.94
397.57	215.95
397.95	216.00
398.32	215.93
398.70	216.00
399.07	216.09
399.45	216.10
399.82	216.14
400.20	216.16
400.58	216.25
400.95	216.21
401.33	216.33
401.70	216.56
402.08	216.64
402.45	216.70
402.83	216.86
403.20	217.00
403.58	217.05
403.95	217.20
404.33	217.37
404.71	217.54
405.08	217.76
405.46	217.94
405.83	218.17
406.21	218.41
406.58	218.63
406.96	218.79
407.33	219.09
407.70	219.38
408.08	219.82
408.45	220.15
408.83	220.56
409.20	220.91
409.58	221.16
409.95	221.62
410.33	222.09
410.70	222.50
411.08	223.00
411.45	223.59
411.82	224.12
412.20	224.77
412.57	225.58
412.95	226.13
413.32	226.92
413.69	227.67
414.07	228.50
414.44	229.42
414.82	230.42
415.19	231.56
415.56	232.67
415.94	233.82
416.31	235.20
416.68	236.52
417.06	238.05
417.43	239.58
417.81	241.24
418.18	242.98
418.55	244.85
418.93	246.81
419.30	248.84
419.67	251.00
420.04	253.20
420.42	255.48
420.79	258.24
421.16	260.93
421.54	263.77
421.91	266.68
422.28	269.68
422.66	272.89
423.03	276.02
423.40	279.31
423.77	282.79
424.15	286.28
424.52	289.99
424.89	294.05
425.26	297.99
425.64	301.73
426.01	305.89
426.38	310.21
426.75	314.62
427.13	319.19
427.50	324.00
427.87	329.10
428.24	334.09
428.61	338.90
428.99	344.23
429.36	349.99
429.73	355.69
430.10	361.35
430.47	367.18
430.85	373.28
431.22	379.77
431.59	386.65
431.96	393.26
432.33	400.52
432.70	407.50
433.08	415.67
433.45	423.44
433.82	431.15
434.19	439.72
434.56	448.13
434.93	456.23
435.30	464.22
435.68	472.94
436.05	481.59
436.42	490.17
436.79	497.99
437.16	506.48
437.53	515.38
437.90	524.21
438.27	532.86
438.64	541.77
439.01	549.97
439.38	557.32
439.75	564.41
440.13	572.53
440.50	580.16
440.87	586.40
441.24	592.79
441.61	599.87
441.98	605.10
442.35	611.16
442.72	617.23
443.09	623.03
443.46	626.62
443.83	629.04
444.20	631.13
444.57	634.20
444.94	635.51
445.31	636.92
445.68	638.30
446.05	638.93
446.42	638.07
446.79	637.16
447.16	636.05
447.53	635.25
447.90	632.00
448.27	628.84
448.64	624.36
449.01	621.20
449.37	615.52
449.74	610.04
450.11	603.37
450.48	596.18
450.85	588.98
451.22	582.70
451.59	576.86
451.96	571.24
452.33	563.73
452.70	556.95
453.07	548.79
453.43	540.47
453.80	532.43
454.17	524.81
454.54	517.59
454.91	509.74
455.28	502.04
455.65	494.95
456.02	487.79
456.38	481.69
456.75	474.09
457.12	467.76
457.49	461.44
457.86	455.54
458.23	450.42
458.59	444.74
458.96	438.99
459.33	433.91
459.70	428.77
460.07	424.62
460.43	419.92
460.80	415.50
461.17	411.66
461.54	407.62
461.91	403.71
462.27	399.69
462.64	396.35
463.01	392.73
463.38	389.15
463.74	385.53
464.11	382.47
464.48	379.77
464.85	376.80
465.21	374.51
465.58	371.94
465.95	368.88
466.32	366.34
466.68	363.86
467.05	361.32
467.42	358.86
467.78	356.26
468.15	353.77
468.52	351.95
468.88	349.54
469.25	347.40
469.62	345.70
469.98	343.86
470.35	342.15
470.72	340.50
471.08	338.77
471.45	337.35
471.82	335.83
472.18	334.20
472.55	333.02
472.92	331.70
473.28	330.57
473.65	329.48
474.02	328.45
474.38	327.61
474.75	326.92
475.11	326.18
475.48	325.63
475.85	325.21
476.21	324.74
476.58	324.44
476.94	324.27
477.31	323.99
477.67	323.78
478.04	323.66
478.41	323.71
478.77	323.91
479.14	323.88
479.50	324.02
479.87	324.37
480.23	324.71
480.60	324.95
480.96	325.23
481.33	325.88
481.69	326.43
482.06	326.98
482.42	327.47
482.79	328.08
483.15	328.92
483.52	329.91
483.88	330.81
484.25	331.82
484.61	332.82
484.98	333.92
485.34	335.20
485.71	336.56
486.07	337.93
486.44	339.24
486.80	340.82
487.17	342.51
487.53	344.31
487.90	346.18
488.26	348.20
488.62	350.37
488.99	352.34
489.35	354.54
489.72	356.87
490.08	359.38
490.44	361.90
490.81	364.57
491.17	367.24
491.54	370.21
491.90	373.18
492.26	376.34
492.63	379.71
492.99	383.23
493.36	386.88
493.72	390.76
494.08	394.72
494.45	398.93
494.81	403.23
495.17	407.67
495.54	412.37
495.90	417.17
496.26	422.07
496.63	427.30
496.99	432.64
497.35	438.20
497.72	443.96
498.08	449.92
498.44	456.05
498.80	462.40
499.17	468.85
499.53	475.52
499.89	482.43
500.26	489.37
500.62	496.36
500.98	503.74
501.34	511.23
501.71	519.00
502.07	526.75
502.43	534.70
502.79	542.83
503.16	551.17
503.52	559.66
503.88	568.31
504.24	577.22
504.60	586.17
504.97	595.28
505.33	604.49
505.69	614.22
506.05	623.93
506.41	633.74
506.78	643.73
507.14	653.90
507.50	664.32
507.86	674.91
508.22	685.63
508.59	696.24
508.95	707.15
509.31	718.29
509.67	729.71
510.03	741.07
510.39	752.80
510.75	764.50
511.12	776.38
511.48	788.38
511.84	800.55
512.20	812.89
512.56	825.40
512.92	838.16
513.28	850.76
513.64	863.40
514.00	876.13
514.37	888.91
514.73	901.85
515.09	914.67
515.45	927.46
515.81	940.30
516.17	953.49
516.53	966.58
516.89	979.58
517.25	992.59
517.61	1005.93
517.97	1019.00
518.33	1032.00
518.69	1045.39
519.05	1058.97
519.41	1072.42
519.77	1086.02
520.13	1099.25
520.49	1112.20
520.85	1125.37
521.21	1138.58
521.57	1152.07
521.93	1165.08
522.29	1178.62
522.65	1191.97
523.01	1205.38
523.37	1218.35
523.73	1231.33
524.09	1244.23
524.45	1257.39
524.81	1270.58
525.17	1283.74
525.53	1296.74
525.89	1309.75
526.25	1322.57
526.61	1334.97
526.97	1347.67
527.33	1360.38
527.68	1373.55
528.04	1386.77
528.40	1399.60
528.76	1412.52
529.12	1425.05
529.48	1438.08
529.84	1450.11
530.20	1462.66
530.56	1474.84
530.91	1487.83
531.27	1500.40
531.63	1512.86
531.99	1525.22
532.35	1537.20
532.71	1549.21
533.07	1561.68
533.42	1573.58
533.78	1585.40
534.14	1597.23
534.50	1608.19
534.86	1619.48
535.21	1630.00
535.57	1641.18
535.93	1652.02
536.29	1662.85
536.65	1673.91
537.00	1684.37
537.36	1695.28
537.72	1706.06
538.08	1717.20
538.44	1727.88
538.79	1738.64
539.15	1749.13
539.51	1759.58
539.87	1770.54
540.22	1781.05
540.58	1791.68
540.94	1802.30
541.29	1812.18
541.65	1821.61
542.01	1831.91
542.37	1841.72
542.72	1851.65
543.08	1860.96
543.44	1871.17
543.79	1880.27
544.15	1889.40
544.51	1899.25
544.87	1908.94
545.22	1917.59
545.58	1926.19
545.94	1934.65
546.29	1942.94
546.65	1951.25
547.01	1959.30
547.36	1966.92
547.72	1974.46
548.07	1981.87
548.43	1989.20
548.79	1996.84
549.14	2004.73
549.50	2012.83
549.86	2020.18
550.21	2027.26
550.57	2034.75
550.92	2041.33
551.28	2048.55
551.64	2055.68
551.99	2062.83
552.35	2069.81
552.70	2076.70
553.06	2083.17
553.41	2089.35
553.77	2095.72
554.13	2101.66
554.48	2108.44
554.84	2115.10
555.19	2121.46
555.55	2127.82
555.90	2134.12
556.26	2140.74
556.61	2146.56
556.97	2151.37
557.32	2157.30
557.68	2163.50
558.03	2169.16
558.39	2174.36
558.74	2180.24
559.10	2185.72
559.45	2191.27
559.81	2196.78
560.16	2202.09
560.52	2208.02
560.87	2214.35
561.23	2220.27
561.58	2226.97
561.94	2232.22
562.29	2237.03
562.64	2243.05
563.00	2248.49
563.35	2253.99
563.71	2259.89
564.06	2265.70
564.42	2271.64
564.77	2276.68
565.12	2281.86
565.48	2287.10
565.83	2292.75
566.19	2298.27
566.54	2303.76
566.89	2308.36
567.25	2312.92
567.60	2318.83
567.96	2323.91
568.31	2328.40
568.66	2332.58
569.02	2336.59
569.37	2340.49
569.72	2344.93
570.08	2348.56
570.43	2351.69
570.78	2354.78
571.14	2357.49
571.49	2360.56
571.84	2364.24
572.20	2367.22
572.55	2370.48
572.90	2372.79
573.26	2375.63
573.61	2378.18
573.96	2380.37
574.31	2382.50
574.67	2384.43
575.02	2385.34
575.37	2386.93
575.72	2388.00
576.08	2389.65
576.43	2390.03
576.78	2390.64
577.13	2392.53
577.49	2393.67
577.84	2395.21
578.19	2396.84
578.54	2397.61
578.90	2398.78
579.25	2398.74
579.60	2399.00
579.95	2398.55
580.30	2398.93
580.66	2398.43
581.01	2396.88
581.36	2394.96
581.71	2393.83
582.06	2393.16
582.42	2392.50
582.77	2390.63
583.12	2389.24
583.47	2388.11
583.82	2387.61
584.17	2386.52
584.53	2384.38
584.88	2382.50
585.23	2380.69
585.58	2378.67
585.93	2376.57
586.28	2374.51
586.63	2372.32
586.98	2370.30
587.34	2368.45
587.69	2366.25
588.04	2364.50
588.39	2363.21
588.74	2360.76
589.09	2358.31
589.44	2355.20
589.79	2352.76
590.14	2350.82
590.49	2348.09
590.84	2344.48
591.19	2341.68
591.54	2338.51
591.89	2334.71
592.25	2331.73
592.60	2327.66
592.95	2323.60
593.30	2319.70
593.65	2315.43
594.00	2311.08
594.35	2307.99
594.70	2303.28
595.05	2298.73
595.40	2293.25
595.75	2287.75
596.10	2284.34
596.45	2279.53
596.80	2275.09
597.15	2270.08
597.50	2264.38
597.85	2259.53
598.19	2254.41
598.54	2248.56
598.89	2243.57
599.24	2239.16
599.59	2233.07
599.94	2227.43
600.29	2221.67
600.64	2215.85
600.99	2209.35
601.34	2204.05
601.69	2197.19
602.04	2191.09
602.39	2184.62
602.74	2178.74
603.08	2173.32
603.43	2166.81
603.78	2160.13
604.13	2153.18
604.48	2146.08
604.83	2140.08
605.18	2133.92
605.53	2126.86
605.87	2120.09
606.22	2113.37
606.57	2105.54
606.92	2097.93
607.27	2091.01
607.62	2084.33
607.96	2077.40
608.31	2070.76
608.66	2063.12
609.01	2055.53
609.36	2048.56
609.70	2040.87
610.05	2033.21
610.40	2024.93
610.75	2016.56
611.10	2009.02
611.44	2000.22
611.79	1991.51
612.14	1981.42
612.49	1970.97
612.83	1961.99
613.18	1952.82
613.53	1943.48
613.88	1933.99
614.22	1925.34
614.57	1915.58
614.92	1905.18
615.27	1895.19
615.61	1885.22
615.96	1875.74
616.31	1866.33
616.65	1857.02
617.00	1847.31
617.35	1837.61
617.70	1827.98
618.04	1818.07
618.39	1807.75
618.74	1798.15
619.08	1788.72
619.43	1780.17
619.78	1771.93
620.12	1763.32
620.47	1753.55
620.82	1743.33
621.16	1733.65
621.51	1723.79
621.85	1713.89
622.20	1703.47
622.55	1692.83
622.89	1683.01
623.24	1673.07
623.59	1663.31
623.93	1653.19
624.28	1643.50
624.62	1633.49
624.97	1623.14
625.32	1613.53
625.66	1604.74
626.01	1595.89
626.35	1586.42
626.70	1576.35
627.04	1566.18
627.39	1556.09
627.73	1546.95
628.08	1537.97
628.43	1528.25
628.77	1518.98
629.12	1510.12
629.46	1502.34
629.81	1493.95
630.15	1484.38
630.50	1474.60
630.84	1464.28
631.19	1454.38
631.53	1445.04
631.88	1434.88
632.22	1424.93
632.57	1415.49
632.91	1405.36
633.26	1395.57
633.60	1385.99
633.95	1376.69
634.29	1367.28
634.64	1357.93
634.98	1347.78
635.32	1338.45
635.67	1329.92
636.01	1320.65
636.36	1310.78
636.70	1301.19
637.05	1291.75
637.39	1282.85
637.73	1274.28
638.08	1266.60
638.42	1258.29
638.77	1249.52
639.11	1241.26
639.45	1233.42
639.80	1224.80
640.14	1216.13
640.49	1207.17
640.83	1198.35
641.17	1190.29
641.52	1182.04
641.86	1173.46
642.20	1165.77
642.55	1157.29
642.89	1148.45
643.23	1139.78
643.58	1131.81
643.92	1122.77
644.26	1114.21
644.61	1105.78
644.95	1097.09
645.29	1087.90
645.64	1078.83
645.98	1070.44
646.32	1062.55
646.66	1054.18
647.01	1045.92
647.35	1037.74
647.69	1029.42
648.04	1021.08
648.38	1012.13
648.72	1003.47
649.06	995.06
649.41	986.86
649.75	978.91
650.09	971.13
650.43	963.12
650.78	954.92
651.12	947.41
651.46	940.12
651.80	932.99
652.14	925.69
652.49	918.25
652.83	910.95
653.17	903.32
653.51	895.77
653.85	888.53
654.20	881.35
654.54	873.97
654.88	866.93
655.22	859.82
655.56	852.92
655.90	846.16
656.25	839.59
656.59	832.70
656.93	825.70
657.27	818.65
657.61	811.82
657.95	805.79
658.29	799.87
658.64	793.76
658.98	787.27
659.32	780.77
659.66	774.55
660.00	768.29
660.34	762.32
660.68	756.25
661.02	749.97
661.36	744.13
661.70	738.35
662.05	732.70
662.39	727.24
662.73	721.99
663.07	716.72
663.41	711.16
663.75	705.59
664.09	700.03
664.43	694.73
664.77	689.42
665.11	683.58
665.45	677.78
665.79	672.04
666.13	666.42
666.47	661.00
666.81	655.66
667.15	650.35
667.49	645.19
667.83	639.99
668.17	634.87
668.51	629.74
668.85	624.94
669.19	620.11
669.53	615.25
669.87	610.15
670.21	605.39
670.55	600.72
670.89	596.45
671.23	592.29
671.57	587.88
671.91	583.73
672.25	579.71
672.58	575.59
672.92	571.60
673.26	567.78
673.60	563.98
673.94	560.23
674.28	556.73
674.62	553.02
674.96	549.35
675.30	545.91
675.64	542.35
675.97	538.74
676.31	535.23
676.65	531.66
676.99	528.30
677.33	524.55
677.67	521.03
678.01	517.18
678.34	513.56
678.68	510.16
679.02	506.52
679.36	502.92
679.70	499.36
680.04	495.90
680.37	492.46
680.71	489.19
681.05	486.04
681.39	482.77
681.73	479.69
682.06	476.70
682.40	473.62
682.74	470.45
683.08	467.35
683.42	464.17
683.75	461.30
684.09	458.31
684.43	455.54
684.77	452.65
685.10	449.85
685.44	446.99
685.78	444.10
686.12	441.42
686.45	438.75
686.79	436.15
687.13	433.63
687.46	431.02
687.80	428.43
688.14	425.67
688.48	423.16
688.81	420.50
689.15	418.01
689.49	415.46
689.82	413.05
690.16	410.51
690.50	408.17
690.83	405.62
691.17	403.14
691.51	400.82
691.84	398.61
692.18	396.43
692.52	394.28
692.85	392.18
693.19	390.07
693.52	387.95
693.86	385.79
694.20	383.66
694.53	381.60
694.87	379.45
695.21	377.35
695.54	375.23
695.88	373.16
696.21	370.98
696.55	368.89
696.88	366.86
697.22	364.98
697.56	363.09
697.89	361.37
698.23	359.71
698.56	357.94
698.90	356.25
699.23	354.38
699.57	352.50
699.90	350.71
700.24	349.00
700.58	347.24
700.91	345.63
701.25	344.13
701.58	342.60
701.92	341.04
702.25	339.51
702.59	337.94
702.92	336.45
703.26	334.96
703.59	333.56
703.93	332.31
704.26	330.92
704.60	329.47
704.93	328.00
705.26	326.54
705.60	325.05
705.93	323.52
706.27	322.23
706.60	321.06
706.94	319.83
707.27	318.47
707.61	317.18
707.94	315.88
708.27	314.36
708.61	312.96
708.94	311.65
709.28	310.38
709.61	309.13
709.94	307.94
710.28	306.77
710.61	305.61
710.95	304.23
711.28	303.15
711.61	301.99
711.95	300.86
712.28	299.69
712.61	298.58
712.95	297.58
713.28	296.56
713.61	295.40
713.95	294.27
714.28	293.26
714.61	292.24
714.95	291.21
715.28	290.24
715.61	289.22
715.95	288.27
716.28	287.33
716.61	286.39
716.95	285.43
717.28	284.54
717.61	283.59
717.94	282.71
718.28	281.74
718.61	280.90
718.94	280.04
719.27	279.20
719.61	278.39
719.94	277.51
720.27	276.59
720.60	275.81
720.94	275.06
721.27	274.31
721.60	273.61
721.93	272.94
722.27	272.32
722.60	271.68
722.93	271.02
723.26	270.40
723.59	269.77
723.93	269.14
724.26	268.46
724.59	267.82
724.92	267.24
725.25	266.67
725.59	266.12
725.92	265.60
726.25	265.03
726.58	264.46
726.91	263.88
727.24	263.38
727.57	262.79
727.91	262.19
728.24	261.67
728.57	261.11
728.90	260.58
729.23	260.00
729.56	259.57
729.89	259.00
730.22	258.43
730.55	257.93
730.89	257.42
731.22	256.91
731.55	256.42
731.88	255.93
732.21	255.43
732.54	254.86
732.87	254.34
733.20	253.89
733.53	253.45
733.86	253.03
734.19	252.52
734.52	252.13
734.85	251.88
735.18	251.39
735.51	251.05
735.84	250.61
736.17	250.23
736.50	249.68
736.83	249.55
737.16	249.21
737.49	248.78
737.82	248.37
738.15	247.99
738.48	247.65
738.81	247.28
739.14	246.87
739.47	246.52
739.80	246.15
740.13	245.81
740.46	245.40
740.79	245.05
741.12	244.72
741.45	244.35
741.78	243.90
742.11	243.65
742.44	243.27
742.77	243.02
743.10	242.69
743.43	242.40
743.75	241.84
744.08	241.73
744.41	241.40
744.74	241.05
745.07	240.71
745.40	240.44
745.73	240.22
746.06	239.91
746.39	239.61
746.71	239.28
747.04	238.91
747.37	238.64
747.70	238.36
748.03	238.04
748.36	237.82
748.68	237.54
749.01	237.16
749.34	236.90
749.67	236.57
750.00	236.31
750.33	236.18
750.65	235.95
750.98	235.45
751.31	235.22
751.64	235.04
751.97	234.93
752.29	234.61
752.62	234.25
752.95	234.01
753.28	233.77
753.60	233.55
753.93	233.43
754.26	233.20
754.59	232.92
754.91	232.71
755.24	232.46
755.57	232.21
755.90	232.00
756.22	231.74
756.55	231.50
756.88	231.26
757.20	230.94
757.53	230.69
757.86	230.47
758.19	230.31
758.51	230.08
758.84	229.79
759.17	229.60
759.49	229.45
759.82	229.38
760.15	229.22
760.47	229.05
760.80	228.74
761.13	228.59
761.45	228.40
761.78	228.21
762.11	228.00
762.43	227.84
762.76	227.69
763.08	227.56
763.41	227.39
763.74	227.25
764.06	227.08
764.39	226.92
764.71	226.77
765.04	226.61
765.37	226.49
765.69	226.33
766.02	226.19
766.34	226.03
766.67	225.80
767.00	225.71
767.32	225.68
767.65	225.72
767.97	225.57
768.30	225.47
768.62	225.36
768.95	225.26
769.27	225.11
769.60	225.02
769.92	224.86
770.25	224.72
770.57	224.57
770.90	224.44
771.22	224.32
771.55	224.23
771.87	224.11
772.20	223.98
772.52	224.05
772.85	224.21
773.17	224.12
773.50	224.01
773.82	223.86
774.15	223.66
774.47	223.43
774.80	223.34
775.12	223.25
775.45	223.14
775.77	223.05
776.09	223.00
776.42	222.91
776.74	222.89
777.07	222.82
777.39	222.75
777.72	222.68
778.04	222.60
778.36	222.49
778.69	222.41
779.01	222.33
779.33	222.07
779.66	221.73
779.98	221.65
780.31	221.57
780.63	221.59
780.95	221.54
781.28	221.47
781.60	221.40
781.92	221.34
782.25	221.31
782.57	221.22
782.89	221.10
783.22	221.05
783.54	220.97
783.86	220.93
784.19	220.87
784.51	220.84
784.83	220.78
785.16	220.73
785.48	220.69
785.80	220.63
786.12	220.58
786.45	220.54
786.77	220.44
787.09	220.39
787.42	220.26
787.74	220.20
788.06	220.15
788.38	220.04
788.71	219.93
789.03	219.87
789.35	219.87
789.67	219.85
789.99	219.79
790.32	219.72
790.64	219.70
790.96	219.80
791.28	219.68
791.61	219.62
791.93	219.57
792.25	219.50
792.57	219.62
792.89	219.55
793.21	219.51
793.54	219.50
793.86	219.42
794.18	219.40
794.50	219.31
794.82	219.27
795.14	219.25
795.47	219.25
795.79	219.21
796.11	219.13
796.43	219.09
796.75	219.04
797.07	218.99
797.39	218.89
797.71	218.74
798.04	218.75
798.36	218.72
798.68	218.68
799.00	218.67
799.32	218.53
799.64	218.52
799.96	218.53
800.28	218.54
800.60	218.50
800.92	218.49
801.24	218.46
801.56	218.43
801.89	218.40
802.21	218.40
802.53	218.31
802.85	218.33
803.17	218.36
803.49	218.28
803.81	218.22
804.13	218.21
804.45	218.11
804.77	218.11
805.09	218.09
805.41	218.06
805.73	218.01
806.05	217.93
806.37	217.90
806.69	217.85
807.01	217.78
807.33	217.77
807.65	217.66
807.97	217.71
808.28	217.69
808.60	217.67
808.92	217.61
809.24	217.74
809.56	217.68
809.88	217.59
810.20	217.59
810.52	217.61
810.84	217.55
811.16	217.55
811.48	217.49
811.80	217.53
812.12	217.47
812.43	217.45
812.75	217.43
813.07	217.39
813.39	217.36
813.71	217.35
814.03	217.32
814.35	217.31
814.67	217.23
814.98	217.20
815.30	217.20
815.62	217.16
815.94	216.99
816.26	216.98
816.58	216.92
816.89	216.92
817.21	216.87
817.53	216.87
817.85	216.82
818.17	216.80
818.48	216.71
818.80	216.73
819.12	216.70
819.44	216.64
819.76	216.58
820.07	216.56
820.39	216.47
820.71	216.51
821.03	216.45
821.34	216.42
821.66	216.39
821.98	216.36
822.30	216.34
822.61	216.48
822.93	216.42
823.25	216.42
823.57	216.36
823.88	216.40
824.20	216.37
824.52	216.42
824.83	216.41
825.15	216.37
825.47	216.34
825.79	216.35
826.10	216.35
826.42	216.38
826.74	216.40
827.05	216.42
827.37	216.37
827.69	216.38
828.00	216.35
828.32	216.36
828.64	216.34
828.95	216.42
829.27	216.34
829.58	216.31
829.90	216.33
830.22	216.34
830.53	216.25
830.85	216.26
831.17	216.18
831.48	216.18
831.80	216.20
832.11	216.18
832.43	216.12
832.75	216.09
833.06	216.21
833.38	216.11
833.69	216.11
834.01	216.11
834.32	216.09
834.64	216.09
834.96	216.05
835.27	216.06
835.59	216.01
835.90	215.95
836.22	215.98
836.53	215.93
836.85	215.90
837.16	216.09
837.48	216.04
837.79	216.09
838.11	216.07
838.42	216.06
838.74	216.09
839.05	216.09
839.37	216.09
839.68	215.93
840.00	215.92
840.31	215.93
840.63	215.92
840.94	215.91
841.26	215.89
841.57	215.90
841.88	215.91
842.20	215.86
842.51	215.85
842.83	215.84
843.14	215.98
843.46	215.98
843.77	215.84
844.08	215.85
844.40	215.77
844.71	215.77
845.03	215.73
845.34	215.70
845.65	215.66
845.97	215.67
846.28	215.67
846.60	215.70
846.91	215.66
847.22	215.65
847.54	215.70
847.85	215.73
848.16	215.68
848.48	215.62
848.79	215.71
849.10	215.74
849.42	215.74
849.73	215.57
850.04	215.55
850.36	215.50
850.67	215.55
850.98	215.58
851.30	215.58
851.61	215.58
851.92	215.57
852.23	215.70
852.55	215.69
852.86	215.68
853.17	215.69
853.49	215.71
853.80	215.73
854.11	215.74
854.42	215.76
854.74	215.73
855.05	215.76
855.36	215.63
855.67	215.60
855.99	215.61
856.30	215.87
856.61	215.89
856.92	215.93
857.23	215.92
857.55	215.89
857.86	215.87
858.17	215.90
858.48	215.90
858.79	215.79
859.11	215.82
859.42	215.81
859.73	215.75
860.04	215.76
860.35	215.69
860.66	215.58
860.98	215.53
861.29	215.55
861.60	215.52
861.91	215.56
862.22	215.53
862.53	215.48
862.84	215.24
863.16	215.26
863.47	215.19
863.78	215.17
864.09	215.18
864.40	215.18
864.71	215.17
865.02	215.14
865.33	215.13
865.64	215.07
865.95	215.06
866.27	215.23
866.58	215.21
866.89	215.25
867.20	215.29
867.51	215.23
867.82	215.20
868.13	215.25
868.44	215.20
868.75	215.24
869.06	215.24
869.37	215.26
869.68	215.22
869.99	215.26
870.30	215.23
870.61	215.26
870.92	215.24
871.23	215.21
871.54	215.27
871.85	215.31
872.16	215.33
872.47	215.33
872.78	215.18
873.09	215.18
873.40	215.17
873.71	215.16
874.02	215.20
874.33	215.22
874.64	215.19
874.95	215.22
875.26	215.14
875.56	215.17
875.87	215.15
876.18	215.13
876.49	215.32
876.80	215.29
877.11	215.25
877.42	215.26
877.73	215.28
878.04	215.22
878.35	215.22
878.66	215.22
878.96	215.21
879.27	215.21
879.58	215.20
879.89	215.20
880.20	215.26
880.51	215.27
880.82	215.26
881.12	215.29
881.43	215.23
881.74	215.24
882.05	215.21
882.36	215.25
882.67	215.27
882.97	215.06
883.28	215.08
883.59	215.06
883.90	215.05
884.21	215.07
884.51	215.09
884.82	215.07
885.13	215.05
885.44	215.04
885.74	215.04
886.05	215.05
886.36	215.06
886.67	214.98
886.98	215.07
887.28	215.08
887.59	215.06
887.90	215.10
888.20	215.13
888.51	215.16
888.82	215.11
889.13	215.14
889.43	215.29
889.74	215.28
890.05	215.29
890.35	215.26
890.66	215.20
890.97	215.13
891.28	215.13
891.58	215.17
891.89	215.17
892.20	215.13
892.50	215.09
892.81	215.04
893.12	215.07
893.42	214.96
893.73	214.98
894.04	214.97
894.34	214.98
894.65	214.99
894.95	214.96
895.26	214.94
895.57	215.02
895.87	214.82
896.18	214.88
896.48	214.90
896.79	214.92
897.10	214.99
897.40	215.04
897.71	215.06
898.01	215.05
898.32	215.08
898.63	215.10
898.93	215.15
899.24	215.17
899.54	215.14
899.85	215.11
900.15	215.10
900.46	215.06
900.76	215.06
901.07	215.04
901.38	215.02
901.68	215.08
901.99	214.95
902.29	214.98
902.60	214.94
902.90	214.91
903.21	214.89
903.51	214.90
903.82	214.95
904.12	214.92
904.43	214.92
904.73	214.91
905.03	214.93
905.34	215.10
905.64	215.10
905.95	215.10
906.25	215.16
906.56	215.14
906.86	215.17
907.17	215.16
907.47	215.13
907.77	215.10
908.08	215.06
908.38	215.10
908.69	215.09
908.99	215.13
909.30	215.16
909.60	215.17
909.90	215.18
910.21	215.08
910.51	215.06
910.81	215.08
911.12	215.07
911.42	215.07
911.73	214.86
912.03	214.86
912.33	214.88
912.64	214.82
912.94	214.80
913.24	214.81
913.55	214.80
913.85	214.82
914.15	214.89
914.46	214.92
914.76	214.91
915.06	214.89
915.37	214.86
915.67	214.82
915.97	214.81
916.27	214.76
916.58	214.79
916.88	214.77
917.18	214.75
917.49	214.89
917.79	214.88
918.09	214.90
918.39	214.96
918.70	214.97
919.00	214.99
919.30	215.11
919.60	215.06
919.91	215.04
920.21	215.06
920.51	215.00
920.81	214.97
921.12	214.97
921.42	214.99
921.72	214.99
922.02	215.02
922.32	215.05
922.63	215.04
922.93	215.13
923.23	215.17
923.53	215.14
923.83	214.96
924.13	214.98
924.44	214.97
924.74	215.00
925.04	215.03
925.34	215.02
925.64	214.93
925.94	214.93
926.24	215.05
926.55	215.00
926.85	215.04
927.15	215.06
927.45	215.11
927.75	215.10
928.05	215.11
928.35	215.07
928.65	215.10
928.95	215.14
929.26	215.07
929.56	215.11
929.86	215.12
930.16	215.13
930.46	215.09
930.76	215.12
931.06	215.03
931.36	214.97
931.66	215.02
931.96	215.00
932.26	215.02
932.56	214.95
932.86	215.00
933.16	215.04
933.46	215.01
933.76	214.96
934.06	215.04
934.36	215.10
934.66	215.12
934.96	215.11
935.26	215.11
935.56	215.16
935.86	215.12
936.16	215.11
936.46	215.09
936.76	215.09
937.06	215.06
937.36	215.06
937.66	215.07
937.96	215.01
938.26	215.01
938.56	214.98
938.86	214.96
939.16	214.96
939.46	214.96
939.76	214.96
940.06	214.96
940.35	214.88
940.65	214.77
940.95	214.81
941.25	214.74
941.55	214.72
941.85	214.68
942.15	214.72
942.45	214.78
942.75	214.80
943.04	214.81
943.34	214.86
943.64	214.85
943.94	214.83
944.24	214.86
944.54	214.86
944.84	214.87
945.13	214.86
945.43	214.86
945.73	214.84
946.03	214.81
946.33	214.79
946.62	214.79
946.92	214.79
947.22	214.76
947.52	214.79
947.82	214.80
948.11	214.75
948.41	214.65
948.71	214.58
949.01	214.58
949.31	214.56
949.60	214.53
949.90	214.56
950.20	214.57
950.50	214.56
950.79	214.54
951.09	214.60
951.39	214.59
951.69	214.56
951.98	214.60
952.28	214.62
952.58	214.59
952.87	214.58
953.17	214.61
953.47	214.61
953.76	214.59
954.06	214.58
954.36	214.54
954.66	214.57
954.95	214.63
955.25	214.64
955.55	214.66
955.84	214.64
956.14	214.65
956.44	214.65
956.73	214.64
957.03	214.67
957.32	214.67
957.62	214.69
957.92	214.75
958.21	214.70
958.51	214.92
958.81	214.97
959.10	215.00
959.40	215.05
959.69	215.06
959.99	215.10
960.29	215.12
960.58	215.14
960.88	215.21
961.17	215.20
961.47	215.24
961.76	215.23
962.06	215.25
962.36	215.23
962.65	215.26
962.95	215.27
963.24	215.22
963.54	215.24
963.83	215.27
964.13	215.22
964.42	215.17
964.72	215.02
965.01	214.98
965.31	214.97
965.60	214.93
965.90	215.07
966.19	215.02
966.49	215.05
966.78	215.04
967.08	215.04
967.37	215.02
967.67	214.99
967.96	215.02
968.26	215.00
968.55	215.02
968.85	215.00
969.14	215.02
969.43	215.06
969.73	215.00
970.02	214.96
970.32	214.96
970.61	214.95
970.91	214.88
971.20	214.87
971.49	214.86
971.79	214.86
972.08	214.70
972.38	214.73
972.67	214.71
972.96	214.74
973.26	214.72
973.55	214.78
973.85	214.75
974.14	214.74
974.43	214.78
974.73	214.75
975.02	214.73
975.31	214.69
975.61	214.68
975.90	214.71
976.19	214.70
976.49	214.72
976.78	214.77
977.07	214.77
977.37	214.81
977.66	214.82
977.95	214.79
978.24	214.82
978.54	214.85
978.83	214.82
979.12	214.81
979.42	214.80
979.71	214.76
980.00	214.78
980.29	214.80
980.59	214.78
980.88	214.83
981.17	214.85
981.46	214.88
981.76	214.86
982.05	214.91
982.34	214.90
982.63	214.87
982.93	214.85
983.22	214.92
983.51	214.91
983.80	214.94
984.09	214.97
984.39	214.94
984.68	214.89
984.97	214.88
985.26	214.84
985.55	214.86
985.85	214.82
986.14	214.85
986.43	214.86
986.72	214.83
987.01	214.77
987.30	214.73
987.59	214.70
987.89	214.73
988.18	214.63
988.47	214.64
988.76	214.64
989.05	214.64
989.34	214.59
989.63	214.64
989.92	214.60
990.22	214.58
990.51	214.56
990.80	214.58
991.09	214.62
991.38	214.67
991.67	214.61
991.96	214.61
992.25	214.61
992.54	214.54
992.83	214.54
993.12	214.52
993.41	214.57
993.70	214.65
993.99	214.68
994.28	214.71
994.58	214.71
994.87	214.69
995.16	214.66
995.45	214.65
995.74	214.58
996.03	214.60
996.32	214.64
996.61	214.70
996.90	214.69
997.19	214.66
997.48	214.66
997.77	214.66
998.06	214.66
998.34	214.65
998.63	214.66
998.92	214.67
999.21	214.71
999.50	214.70
999.79	214.63
1000.08	214.62
1000.37	214.66
1000.66	214.64
1000.95	214.68
1001.24	214.69
1001.53	214.72
1001.82	214.73
1002.11	214.71
1002.40	214.75
1002.68	214.79
1002.97	214.93
1003.26	214.92
1003.55	214.87
1003.84	214.90
1004.13	214.98
1004.42	214.95
1004.71	214.97
1004.99	214.97
1005.28	215.02
1005.57	215.02
1005.86	215.02
1006.15	214.99
1006.44	214.93
1006.72	214.93
1007.01	214.92
1007.30	214.95
1007.59	214.90
1007.88	214.90
1008.17	214.87
1008.45	214.80
1008.74	214.73
1009.03	214.63
1009.32	214.63
1009.60	214.66
1009.89	214.64
1010.18	214.53
1010.47	214.51
1010.76	214.50
1011.04	214.49
1011.33	214.47
1011.62	214.49
1011.91	214.48
1012.19	214.51
1012.48	214.53
1012.77	214.53
1013.05	214.61
1013.34	214.61
1013.63	214.64
1013.92	214.63
1014.20	214.60
1014.49	214.60
1014.78	214.61
1015.06	214.55
1015.35	214.52
1015.64	214.54
1015.92	214.55
1016.21	214.59
1016.50	214.61
1016.78	214.61
1017.07	214.61
1017.36	214.56
1017.64	214.53
1017.93	214.60
1018.22	214.56
1018.50	214.57
1018.79	214.61
1019.08	214.54
1019.36	214.57
1019.65	214.53
1019.93	214.59
1020.22	214.65
1020.51	214.78
1020.79	214.77
1021.08	214.31
1021.36	214.73
1021.65	215.15
1021.94	214.88
1022.22	215.09
1022.51	214.22
1022.79	215.41
1023.08	214.69
1023.36	217.17
1023.65	214.53
>>>>>End Processed Spectral Data<<<<<
