SpectraSuite Data File
++++++++++++++++++++++++++++++++++++
Date: Tue Jan 29 16:40:10 EST 2013
User: group
Dark Spectrum Present: No
Reference Spectrum Present: No
Number of Sampled Component Spectra: 1
Spectrometers: USB2E7196
Integration Time (usec): 65000 (USB2E7196)
Spectra Averaged: 100 (USB2E7196)
Boxcar Smoothing: 10 (USB2E7196)
Correct for Electrical Dark: No (USB2E7196)
Strobe/Lamp Enabled: No (USB2E7196)
Correct for Detector Non-linearity: No (USB2E7196)
Correct for Stray Light: No (USB2E7196)
Number of Pixels in Processed Spectrum: 2048
>>>>>Begin Processed Spectral Data<<<<<
339.09	0.00
339.48	202.39
339.86	203.11
340.24	204.61
340.63	206.27
341.01	210.42
341.39	208.91
341.78	210.75
342.16	212.18
342.54	212.75
342.93	201.19
343.31	211.33
343.69	211.83
344.07	212.31
344.46	212.77
344.84	213.17
345.22	213.35
345.60	213.61
345.99	213.79
346.37	213.92
346.75	213.99
347.13	214.06
347.52	214.07
347.90	214.20
348.28	214.22
348.66	214.30
349.05	214.28
349.43	214.37
349.81	214.44
350.19	214.47
350.57	214.53
350.96	214.64
351.34	214.73
351.72	214.85
352.10	214.90
352.48	214.94
352.87	214.97
353.25	215.02
353.63	215.06
354.01	215.11
354.39	215.17
354.77	215.22
355.15	215.35
355.54	215.42
355.92	215.38
356.30	215.46
356.68	215.63
357.06	215.66
357.44	215.70
357.82	215.73
358.20	215.83
358.58	215.92
358.97	215.96
359.35	216.08
359.73	216.17
360.11	216.25
360.49	216.31
360.87	216.36
361.25	216.43
361.63	216.53
362.01	216.59
362.39	216.64
362.77	216.70
363.15	216.70
363.53	216.76
363.91	216.78
364.29	216.80
364.67	216.66
365.05	216.70
365.43	216.76
365.81	216.82
366.19	216.91
366.57	216.96
366.95	216.92
367.33	216.89
367.71	216.87
368.09	216.93
368.47	216.93
368.85	216.95
369.23	217.01
369.61	216.97
369.99	217.01
370.37	217.02
370.75	217.13
371.13	217.07
371.51	217.04
371.89	217.06
372.27	217.04
372.65	217.04
373.03	217.00
373.41	216.91
373.78	216.88
374.16	216.75
374.54	216.68
374.92	216.65
375.30	216.62
375.68	216.56
376.06	216.54
376.44	216.51
376.82	216.48
377.19	216.41
377.57	216.36
377.95	216.26
378.33	216.19
378.71	216.01
379.09	216.02
379.47	215.95
379.84	215.88
380.22	215.84
380.60	215.77
380.98	215.74
381.36	215.74
381.73	215.67
382.11	215.69
382.49	215.65
382.87	215.59
383.25	215.54
383.62	215.75
384.00	215.65
384.38	215.63
384.76	215.63
385.13	215.67
385.51	215.63
385.89	215.61
386.27	215.59
386.64	215.61
387.02	215.57
387.40	215.56
387.78	215.55
388.15	215.52
388.53	215.50
388.91	215.51
389.29	215.48
389.66	215.51
390.04	215.45
390.42	215.46
390.79	215.49
391.17	215.48
391.55	215.19
391.92	215.19
392.30	215.19
392.68	215.11
393.05	215.10
393.43	215.09
393.81	215.08
394.18	215.04
394.56	215.02
394.94	215.09
395.31	215.07
395.69	215.12
396.06	215.18
396.44	215.21
396.82	215.20
397.19	215.31
397.57	215.28
397.95	215.34
398.32	215.35
398.70	215.39
399.07	215.47
399.45	215.54
399.82	215.59
400.20	215.60
400.58	215.65
400.95	215.64
401.33	215.75
401.70	215.98
402.08	216.10
402.45	216.17
402.83	216.30
403.20	216.38
403.58	216.46
403.95	216.62
404.33	216.80
404.71	216.93
405.08	217.20
405.46	217.38
405.83	217.60
406.21	217.78
406.58	218.00
406.96	218.23
407.33	218.51
407.70	218.85
408.08	219.32
408.45	219.74
408.83	220.13
409.20	220.49
409.58	220.74
409.95	221.17
410.33	221.66
410.70	222.08
411.08	222.66
411.45	223.28
411.82	223.84
412.20	224.50
412.57	225.35
412.95	225.90
413.32	226.76
413.69	227.58
414.07	228.52
414.44	229.50
414.82	230.53
415.19	231.74
415.56	232.91
415.94	234.10
416.31	235.47
416.68	236.88
417.06	238.50
417.43	240.07
417.81	241.85
418.18	243.62
418.55	245.61
418.93	247.65
419.30	249.75
419.67	251.96
420.04	254.27
420.42	256.66
420.79	259.50
421.16	262.30
421.54	265.24
421.91	268.19
422.28	271.31
422.66	274.58
423.03	277.80
423.40	281.15
423.77	284.77
424.15	288.46
424.52	292.32
424.89	296.51
425.26	300.61
425.64	304.51
426.01	308.80
426.38	313.24
426.75	317.76
427.13	322.51
427.50	327.54
427.87	332.74
428.24	337.97
428.61	342.98
428.99	348.48
429.36	354.52
429.73	360.48
430.10	366.36
430.47	372.49
430.85	378.85
431.22	385.60
431.59	392.74
431.96	399.59
432.33	407.12
432.70	414.35
433.08	422.87
433.45	430.90
433.82	439.03
434.19	447.99
434.56	456.85
434.93	465.17
435.30	473.49
435.68	482.65
436.05	491.67
436.42	500.61
436.79	508.76
437.16	517.54
437.53	526.81
437.90	536.00
438.27	544.99
438.64	554.21
439.01	562.69
439.38	570.28
439.75	577.65
440.13	586.07
440.50	594.08
440.87	600.54
441.24	607.31
441.61	614.64
441.98	620.05
442.35	626.29
442.72	632.64
443.09	638.71
443.46	642.43
443.83	644.95
444.20	647.16
444.57	650.36
444.94	651.80
445.31	653.28
445.68	654.66
446.05	655.31
446.42	654.56
446.79	653.66
447.16	652.60
447.53	651.79
447.90	648.51
448.27	645.18
448.64	640.55
449.01	637.14
449.37	631.23
449.74	625.48
450.11	618.59
450.48	611.22
450.85	603.77
451.22	597.30
451.59	591.17
451.96	585.30
452.33	577.42
452.70	570.30
453.07	561.76
453.43	553.16
453.80	544.84
454.17	536.77
454.54	529.24
454.91	521.02
455.28	513.01
455.65	505.56
456.02	498.07
456.38	491.67
456.75	483.77
457.12	477.15
457.49	470.66
457.86	464.45
458.23	459.07
458.59	453.09
458.96	447.03
459.33	441.64
459.70	436.23
460.07	431.94
460.43	427.01
460.80	422.41
461.17	418.35
461.54	414.11
461.91	410.10
462.27	405.94
462.64	402.49
463.01	398.69
463.38	394.99
463.74	391.23
464.11	387.95
464.48	385.13
464.85	382.03
465.21	379.53
465.58	376.87
465.95	373.68
466.32	371.06
466.68	368.45
467.05	365.85
467.42	363.31
467.78	360.61
468.15	358.11
468.52	356.25
468.88	353.74
469.25	351.53
469.62	349.71
469.98	347.76
470.35	345.91
470.72	344.21
471.08	342.36
471.45	340.83
471.82	339.31
472.18	337.61
472.55	336.39
472.92	335.01
473.28	333.77
473.65	332.60
474.02	331.45
474.38	330.60
474.75	329.89
475.11	329.03
475.48	328.45
475.85	327.92
476.21	327.38
476.58	327.07
476.94	326.78
477.31	326.45
477.67	326.20
478.04	326.05
478.41	326.00
478.77	326.16
479.14	326.11
479.50	326.24
479.87	326.53
480.23	326.81
480.60	327.06
480.96	327.35
481.33	327.95
481.69	328.50
482.06	328.98
482.42	329.44
482.79	330.04
483.15	330.83
483.52	331.79
483.88	332.62
484.25	333.52
484.61	334.57
484.98	335.62
485.34	336.93
485.71	338.31
486.07	339.73
486.44	341.07
486.80	342.67
487.17	344.34
487.53	346.17
487.90	348.03
488.26	350.05
488.62	352.22
488.99	354.30
489.35	356.49
489.72	358.87
490.08	361.34
490.44	363.88
490.81	366.61
491.17	369.29
491.54	372.30
491.90	375.41
492.26	378.67
492.63	382.09
492.99	385.54
493.36	389.18
493.72	393.10
494.08	397.12
494.45	401.40
494.81	405.80
495.17	410.25
495.54	414.98
495.90	419.81
496.26	424.72
496.63	429.92
496.99	435.30
497.35	440.88
497.72	446.71
498.08	452.71
498.44	458.78
498.80	465.27
499.17	471.79
499.53	478.47
499.89	485.39
500.26	492.38
500.62	499.50
500.98	506.90
501.34	514.38
501.71	522.21
502.07	530.02
502.43	538.00
502.79	546.21
503.16	554.63
503.52	563.23
503.88	572.03
504.24	580.98
504.60	590.13
504.97	599.43
505.33	608.80
505.69	618.68
506.05	628.57
506.41	638.46
506.78	648.53
507.14	658.76
507.50	669.30
507.86	680.05
508.22	690.84
508.59	701.53
508.95	712.57
509.31	723.78
509.67	735.27
510.03	746.65
510.39	758.41
510.75	770.24
511.12	782.18
511.48	794.20
511.84	806.47
512.20	818.81
512.56	831.44
512.92	844.27
513.28	856.95
513.64	869.79
514.00	882.66
514.37	895.70
514.73	908.86
515.09	921.88
515.45	934.81
515.81	947.96
516.17	961.42
516.53	974.75
516.89	987.96
517.25	1001.20
517.61	1014.80
517.97	1028.17
518.33	1041.46
518.69	1055.11
519.05	1068.97
519.41	1082.64
519.77	1096.67
520.13	1110.03
520.49	1123.20
520.85	1136.69
521.21	1150.13
521.57	1163.86
521.93	1176.98
522.29	1190.68
522.65	1204.32
523.01	1217.97
523.37	1231.15
523.73	1244.57
524.09	1257.82
524.45	1271.38
524.81	1284.97
525.17	1298.55
525.53	1311.94
525.89	1325.38
526.25	1338.54
526.61	1351.41
526.97	1364.78
527.33	1377.74
527.68	1391.39
528.04	1404.97
528.40	1418.17
528.76	1431.56
529.12	1444.57
529.48	1458.03
529.84	1470.65
530.20	1483.60
530.56	1496.34
530.91	1509.66
531.27	1522.59
531.63	1535.46
531.99	1548.16
532.35	1560.38
532.71	1572.73
533.07	1585.76
533.42	1598.03
533.78	1610.22
534.14	1622.37
534.50	1633.64
534.86	1645.36
535.21	1656.24
535.57	1667.94
535.93	1679.39
536.29	1690.68
536.65	1702.14
537.00	1713.17
537.36	1724.59
537.72	1735.58
538.08	1747.14
538.44	1758.34
538.79	1769.47
539.15	1780.40
539.51	1791.33
539.87	1802.89
540.22	1813.90
540.58	1824.75
540.94	1835.77
541.29	1846.22
541.65	1856.30
542.01	1866.85
542.37	1876.91
542.72	1887.21
543.08	1897.09
543.44	1907.51
543.79	1916.82
544.15	1926.40
544.51	1936.55
544.87	1946.61
545.22	1955.94
545.58	1964.81
545.94	1973.74
546.29	1982.39
546.65	1990.88
547.01	1999.29
547.36	2006.98
547.72	2014.90
548.07	2022.77
548.43	2030.55
548.79	2038.45
549.14	2046.52
549.50	2055.12
549.86	2063.15
550.21	2070.63
550.57	2078.36
550.92	2085.28
551.28	2092.90
551.64	2100.29
551.99	2107.81
552.35	2114.95
552.70	2121.96
553.06	2128.79
553.41	2135.12
553.77	2141.75
554.13	2148.15
554.48	2155.08
554.84	2162.37
555.19	2168.83
555.55	2175.19
555.90	2181.59
556.26	2188.48
556.61	2194.62
556.97	2199.36
557.32	2205.16
557.68	2211.67
558.03	2217.36
558.39	2222.74
558.74	2228.62
559.10	2234.10
559.45	2239.68
559.81	2245.24
560.16	2250.73
560.52	2256.58
560.87	2262.97
561.23	2268.85
561.58	2275.51
561.94	2280.89
562.29	2285.41
562.64	2291.47
563.00	2297.24
563.35	2302.75
563.71	2308.43
564.06	2314.06
564.42	2320.04
564.77	2325.05
565.12	2330.32
565.48	2335.44
565.83	2340.98
566.19	2346.31
566.54	2351.68
566.89	2356.16
567.25	2360.71
567.60	2366.40
567.96	2371.42
568.31	2376.00
568.66	2380.18
569.02	2384.20
569.37	2387.86
569.72	2392.23
570.08	2395.76
570.43	2398.72
570.78	2401.75
571.14	2404.23
571.49	2407.37
571.84	2410.92
572.20	2413.87
572.55	2416.69
572.90	2418.93
573.26	2421.49
573.61	2424.13
573.96	2426.20
574.31	2428.21
574.67	2429.97
575.02	2430.58
575.37	2431.91
575.72	2432.53
576.08	2433.97
576.43	2433.89
576.78	2434.22
577.13	2435.82
577.49	2436.83
577.84	2437.85
578.19	2439.09
578.54	2439.51
578.90	2440.02
579.25	2439.63
579.60	2439.26
579.95	2438.39
580.30	2438.28
580.66	2437.61
581.01	2435.73
581.36	2433.14
581.71	2431.54
582.06	2430.14
582.42	2429.22
582.77	2426.86
583.12	2425.07
583.47	2423.48
583.82	2422.87
584.17	2421.49
584.53	2419.14
584.88	2416.94
585.23	2414.94
585.58	2412.45
585.93	2410.35
586.28	2407.98
586.63	2405.40
586.98	2403.15
587.34	2401.05
587.69	2398.60
588.04	2396.32
588.39	2394.81
588.74	2392.43
589.09	2389.54
589.44	2386.33
589.79	2383.76
590.14	2381.61
590.49	2378.66
590.84	2374.77
591.19	2371.49
591.54	2368.14
591.89	2363.94
592.25	2360.51
592.60	2355.98
592.95	2351.85
593.30	2347.60
593.65	2343.10
594.00	2338.69
594.35	2335.75
594.70	2331.05
595.05	2326.40
595.40	2320.79
595.75	2314.89
596.10	2311.14
596.45	2306.18
596.80	2301.63
597.15	2296.13
597.50	2290.24
597.85	2285.20
598.19	2280.01
598.54	2274.07
598.89	2268.79
599.24	2264.35
599.59	2258.13
599.94	2252.29
600.29	2246.23
600.64	2240.25
600.99	2233.50
601.34	2227.93
601.69	2220.82
602.04	2214.35
602.39	2207.59
602.74	2201.51
603.08	2195.99
603.43	2189.41
603.78	2182.71
604.13	2175.47
604.48	2168.26
604.83	2162.16
605.18	2155.98
605.53	2148.78
605.87	2141.76
606.22	2134.91
606.57	2126.74
606.92	2118.83
607.27	2111.87
607.62	2105.13
607.96	2098.04
608.31	2091.55
608.66	2083.81
609.01	2076.08
609.36	2068.93
609.70	2061.34
610.05	2053.54
610.40	2045.14
610.75	2036.63
611.10	2028.89
611.44	2019.99
611.79	2011.38
612.14	2001.50
612.49	1990.71
612.83	1981.54
613.18	1972.27
613.53	1962.81
613.88	1953.28
614.22	1944.56
614.57	1934.71
614.92	1924.08
615.27	1913.96
615.61	1903.89
615.96	1894.20
616.31	1884.53
616.65	1875.09
617.00	1865.20
617.35	1855.63
617.70	1845.96
618.04	1836.04
618.39	1825.69
618.74	1815.93
619.08	1806.24
619.43	1797.42
619.78	1789.25
620.12	1780.56
620.47	1770.95
620.82	1760.72
621.16	1751.00
621.51	1741.26
621.85	1731.57
622.20	1721.37
622.55	1710.80
622.89	1700.85
623.24	1691.14
623.59	1681.47
623.93	1671.44
624.28	1661.66
624.62	1651.59
624.97	1641.33
625.32	1631.60
625.66	1622.74
626.01	1614.13
626.35	1604.80
626.70	1594.75
627.04	1584.55
627.39	1574.51
627.73	1565.24
628.08	1556.42
628.43	1546.90
628.77	1537.62
629.12	1528.66
629.46	1520.95
629.81	1512.65
630.15	1503.18
630.50	1493.47
630.84	1483.01
631.19	1472.99
631.53	1463.87
631.88	1453.63
632.22	1443.55
632.57	1434.17
632.91	1424.25
633.26	1414.38
633.60	1404.80
633.95	1395.61
634.29	1386.24
634.64	1376.92
634.98	1366.93
635.32	1357.63
635.67	1349.14
636.01	1339.87
636.36	1330.18
636.70	1320.55
637.05	1311.20
637.39	1302.27
637.73	1293.66
638.08	1286.10
638.42	1278.01
638.77	1269.13
639.11	1260.97
639.45	1253.32
639.80	1244.82
640.14	1236.01
640.49	1227.30
640.83	1218.48
641.17	1210.31
641.52	1202.20
641.86	1193.63
642.20	1185.85
642.55	1177.22
642.89	1168.39
643.23	1159.72
643.58	1151.62
643.92	1142.56
644.26	1133.82
644.61	1125.44
644.95	1116.62
645.29	1107.44
645.64	1098.30
645.98	1089.89
646.32	1081.96
646.66	1073.49
647.01	1065.19
647.35	1057.14
647.69	1048.73
648.04	1040.42
648.38	1031.50
648.72	1022.70
649.06	1014.27
649.41	1006.13
649.75	998.22
650.09	990.31
650.43	982.26
650.78	973.99
651.12	966.29
651.46	958.92
651.80	951.64
652.14	944.40
652.49	936.87
652.83	929.52
653.17	921.78
653.51	914.18
653.85	906.88
654.20	899.71
654.54	892.29
654.88	885.03
655.22	877.86
655.56	870.91
655.90	864.06
656.25	857.37
656.59	850.39
656.93	843.25
657.27	836.05
657.61	829.02
657.95	822.87
658.29	816.95
658.64	810.85
658.98	804.29
659.32	797.63
659.66	791.35
660.00	785.03
660.34	778.92
660.68	772.75
661.02	766.29
661.36	760.16
661.70	754.29
662.05	748.68
662.39	743.14
662.73	737.74
663.07	732.43
663.41	726.85
663.75	721.16
664.09	715.46
664.43	710.07
664.77	704.83
665.11	698.98
665.45	692.99
665.79	687.11
666.13	681.44
666.47	675.91
666.81	670.46
667.15	665.02
667.49	659.85
667.83	654.64
668.17	649.41
668.51	644.31
668.85	639.30
669.19	634.34
669.53	629.34
669.87	624.16
670.21	619.35
670.55	614.62
670.89	610.16
671.23	605.89
671.57	601.44
671.91	597.07
672.25	592.91
672.58	588.80
672.92	584.72
673.26	580.75
673.60	576.89
673.94	573.06
674.28	569.46
674.62	565.70
674.96	561.86
675.30	558.37
675.64	554.72
675.97	551.12
676.31	547.48
676.65	543.86
676.99	540.39
677.33	536.49
677.67	532.72
678.01	528.80
678.34	525.12
678.68	521.57
679.02	517.97
679.36	514.21
679.70	510.55
680.04	506.99
680.37	503.53
680.71	500.16
681.05	496.94
681.39	493.58
681.73	490.30
682.06	487.27
682.40	484.16
682.74	480.93
683.08	477.70
683.42	474.46
683.75	471.46
684.09	468.36
684.43	465.56
684.77	462.64
685.10	459.78
685.44	456.81
685.78	453.89
686.12	451.03
686.45	448.26
686.79	445.51
687.13	442.94
687.46	440.23
687.80	437.48
688.14	434.60
688.48	431.90
688.81	429.23
689.15	426.61
689.49	423.91
689.82	421.32
690.16	418.65
690.50	416.17
690.83	413.59
691.17	411.07
691.51	408.53
691.84	406.23
692.18	403.96
692.52	401.72
692.85	399.51
693.19	397.35
693.52	395.16
693.86	392.92
694.20	390.67
694.53	388.54
694.87	386.32
695.21	384.10
695.54	381.93
695.88	379.76
696.21	377.51
696.55	375.33
696.88	373.29
697.22	371.29
697.56	369.39
697.89	367.47
698.23	365.66
698.56	363.84
698.90	362.08
699.23	360.14
699.57	358.27
699.90	356.39
700.24	354.54
700.58	352.80
700.91	351.18
701.25	349.61
701.58	347.95
701.92	346.40
702.25	344.83
702.59	343.25
702.92	341.65
703.26	340.07
703.59	338.60
703.93	337.28
704.26	335.84
704.60	334.32
704.93	332.83
705.26	331.27
705.60	329.81
705.93	328.24
706.27	326.90
706.60	325.59
706.94	324.35
707.27	322.95
707.61	321.56
707.94	320.13
708.27	318.56
708.61	317.13
708.94	315.72
709.28	314.40
709.61	313.06
709.94	311.80
710.28	310.58
710.61	309.34
710.95	307.88
711.28	306.77
711.61	305.51
711.95	304.34
712.28	303.10
712.61	301.88
712.95	300.81
713.28	299.74
713.61	298.57
713.95	297.39
714.28	296.38
714.61	295.32
714.95	294.31
715.28	293.26
715.61	292.22
715.95	291.22
716.28	290.20
716.61	289.28
716.95	288.26
717.28	287.37
717.61	286.39
717.94	285.47
718.28	284.42
718.61	283.55
718.94	282.62
719.27	281.80
719.61	280.94
719.94	279.99
720.27	278.96
720.60	278.08
720.94	277.25
721.27	276.48
721.60	275.77
721.93	275.07
722.27	274.43
722.60	273.76
722.93	273.03
723.26	272.35
723.59	271.63
723.93	271.01
724.26	270.30
724.59	269.65
724.92	269.06
725.25	268.53
725.59	267.93
725.92	267.44
726.25	266.86
726.58	266.29
726.91	265.73
727.24	265.24
727.57	264.69
727.91	264.06
728.24	263.49
728.57	262.88
728.90	262.29
729.23	261.66
729.56	261.20
729.89	260.67
730.22	260.13
730.55	259.58
730.89	259.02
731.22	258.47
731.55	257.94
731.88	257.36
732.21	256.80
732.54	256.23
732.87	255.69
733.20	255.19
733.53	254.72
733.86	254.26
734.19	253.76
734.52	253.33
734.85	253.06
735.18	252.59
735.51	252.21
735.84	251.76
736.17	251.36
736.50	250.83
736.83	250.68
737.16	250.29
737.49	249.89
737.82	249.46
738.15	249.10
738.48	248.74
738.81	248.36
739.14	247.94
739.47	247.59
739.80	247.22
740.13	246.88
740.46	246.45
740.79	246.05
741.12	245.71
741.45	245.35
741.78	244.88
742.11	244.58
742.44	244.16
742.77	243.83
743.10	243.48
743.43	243.13
743.75	242.53
744.08	242.40
744.41	242.03
744.74	241.71
745.07	241.30
745.40	240.97
745.73	240.75
746.06	240.38
746.39	240.06
746.71	239.67
747.04	239.31
747.37	239.02
747.70	238.73
748.03	238.39
748.36	238.10
748.68	237.77
749.01	237.40
749.34	237.13
749.67	236.86
750.00	236.62
750.33	236.46
750.65	236.19
750.98	235.66
751.31	235.45
751.64	235.19
751.97	235.09
752.29	234.83
752.62	234.49
752.95	234.24
753.28	233.99
753.60	233.77
753.93	233.59
754.26	233.37
754.59	233.10
754.91	232.86
755.24	232.62
755.57	232.40
755.90	232.20
756.22	231.93
756.55	231.66
756.88	231.37
757.20	231.06
757.53	230.78
757.86	230.58
758.19	230.37
758.51	230.16
758.84	229.85
759.17	229.64
759.49	229.48
759.82	229.43
760.15	229.28
760.47	229.10
760.80	228.84
761.13	228.64
761.45	228.47
761.78	228.30
762.11	228.10
762.43	227.94
762.76	227.73
763.08	227.60
763.41	227.47
763.74	227.30
764.06	227.12
764.39	226.97
764.71	226.81
765.04	226.63
765.37	226.47
765.69	226.33
766.02	226.18
766.34	225.99
766.67	225.76
767.00	225.65
767.32	225.62
767.65	225.62
767.97	225.51
768.30	225.35
768.62	225.22
768.95	225.08
769.27	224.95
769.60	224.88
769.92	224.70
770.25	224.54
770.57	224.43
770.90	224.30
771.22	224.20
771.55	224.12
771.87	224.04
772.20	223.93
772.52	223.99
772.85	224.15
773.17	224.04
773.50	223.92
773.82	223.75
774.15	223.56
774.47	223.34
774.80	223.25
775.12	223.16
775.45	223.07
775.77	222.99
776.09	222.90
776.42	222.80
776.74	222.76
777.07	222.67
777.39	222.61
777.72	222.49
778.04	222.42
778.36	222.31
778.69	222.21
779.01	222.12
779.33	221.87
779.66	221.52
779.98	221.42
780.31	221.35
780.63	221.37
780.95	221.31
781.28	221.25
781.60	221.15
781.92	221.08
782.25	220.98
782.57	220.89
782.89	220.78
783.22	220.70
783.54	220.59
783.86	220.52
784.19	220.42
784.51	220.44
784.83	220.33
785.16	220.22
785.48	220.18
785.80	220.12
786.12	220.05
786.45	219.99
786.77	219.94
787.09	219.85
787.42	219.72
787.74	219.68
788.06	219.58
788.38	219.52
788.71	219.46
789.03	219.42
789.35	219.41
789.67	219.36
789.99	219.32
790.32	219.29
790.64	219.26
790.96	219.39
791.28	219.23
791.61	219.19
791.93	219.21
792.25	219.13
792.57	219.25
792.89	219.20
793.21	219.17
793.54	219.11
793.86	219.05
794.18	219.00
794.50	218.93
794.82	218.89
795.14	218.87
795.47	218.84
795.79	218.80
796.11	218.71
796.43	218.65
796.75	218.61
797.07	218.56
797.39	218.51
797.71	218.31
798.04	218.33
798.36	218.35
798.68	218.27
799.00	218.26
799.32	218.11
799.64	218.09
799.96	218.05
800.28	218.05
800.60	218.02
800.92	218.02
801.24	217.98
801.56	217.99
801.89	217.96
802.21	217.96
802.53	217.90
802.85	217.95
803.17	217.99
803.49	217.89
803.81	217.86
804.13	217.84
804.45	217.78
804.77	217.76
805.09	217.68
805.41	217.64
805.73	217.57
806.05	217.51
806.37	217.46
806.69	217.44
807.01	217.39
807.33	217.38
807.65	217.25
807.97	217.29
808.28	217.20
808.60	217.14
808.92	217.07
809.24	217.17
809.56	217.09
809.88	217.00
810.20	217.00
810.52	217.00
810.84	216.92
811.16	216.87
811.48	216.82
811.80	216.88
812.12	216.84
812.43	216.86
812.75	216.82
813.07	216.77
813.39	216.73
813.71	216.68
814.03	216.65
814.35	216.66
814.67	216.57
814.98	216.55
815.30	216.54
815.62	216.51
815.94	216.34
816.26	216.33
816.58	216.30
816.89	216.32
817.21	216.23
817.53	216.24
817.85	216.24
818.17	216.22
818.48	216.11
818.80	216.15
819.12	216.09
819.44	216.06
819.76	216.03
820.07	216.04
820.39	216.02
820.71	216.03
821.03	215.99
821.34	215.95
821.66	215.96
821.98	215.95
822.30	215.92
822.61	216.03
822.93	215.99
823.25	215.95
823.57	215.92
823.88	215.97
824.20	215.95
824.52	215.96
824.83	215.91
825.15	215.88
825.47	215.85
825.79	215.85
826.10	215.84
826.42	215.83
826.74	215.84
827.05	215.84
827.37	215.82
827.69	215.81
828.00	215.80
828.32	215.78
828.64	215.74
828.95	215.84
829.27	215.78
829.58	215.78
829.90	215.76
830.22	215.74
830.53	215.66
830.85	215.62
831.17	215.58
831.48	215.59
831.80	215.63
832.11	215.55
832.43	215.53
832.75	215.50
833.06	215.60
833.38	215.50
833.69	215.46
834.01	215.45
834.32	215.43
834.64	215.39
834.96	215.38
835.27	215.38
835.59	215.27
835.90	215.21
836.22	215.17
836.53	215.14
836.85	215.12
837.16	215.33
837.48	215.31
837.79	215.37
838.11	215.35
838.42	215.31
838.74	215.36
839.05	215.34
839.37	215.33
839.68	215.19
840.00	215.19
840.31	215.23
840.63	215.20
840.94	215.19
841.26	215.19
841.57	215.19
841.88	215.17
842.20	215.15
842.51	215.15
842.83	215.13
843.14	215.33
843.46	215.36
843.77	215.19
844.08	215.17
844.40	215.09
844.71	215.10
845.03	215.06
845.34	215.04
845.65	215.03
845.97	215.02
846.28	215.02
846.60	215.03
846.91	214.95
847.22	214.96
847.54	214.97
847.85	214.97
848.16	214.94
848.48	214.93
848.79	215.01
849.10	215.03
849.42	215.08
849.73	214.88
850.04	214.85
850.36	214.83
850.67	214.88
850.98	214.90
851.30	214.93
851.61	214.94
851.92	214.96
852.23	215.02
852.55	215.04
852.86	215.06
853.17	215.08
853.49	215.16
853.80	215.17
854.11	215.15
854.42	215.17
854.74	215.16
855.05	215.15
855.36	215.06
855.67	215.01
855.99	215.00
856.30	215.22
856.61	215.23
856.92	215.20
857.23	215.18
857.55	215.13
857.86	215.09
858.17	215.11
858.48	215.05
858.79	215.01
859.11	215.02
859.42	214.99
859.73	214.91
860.04	214.84
860.35	214.77
860.66	214.73
860.98	214.74
861.29	214.74
861.60	214.73
861.91	214.75
862.22	214.77
862.53	214.72
862.84	214.48
863.16	214.51
863.47	214.48
863.78	214.46
864.09	214.49
864.40	214.48
864.71	214.49
865.02	214.50
865.33	214.49
865.64	214.43
865.95	214.45
866.27	214.63
866.58	214.63
866.89	214.68
867.20	214.71
867.51	214.65
867.82	214.63
868.13	214.69
868.44	214.62
868.75	214.64
869.06	214.63
869.37	214.66
869.68	214.58
869.99	214.64
870.30	214.64
870.61	214.63
870.92	214.63
871.23	214.60
871.54	214.64
871.85	214.66
872.16	214.69
872.47	214.64
872.78	214.49
873.09	214.53
873.40	214.52
873.71	214.48
874.02	214.50
874.33	214.50
874.64	214.44
874.95	214.48
875.26	214.45
875.56	214.45
875.87	214.40
876.18	214.42
876.49	214.59
876.80	214.56
877.11	214.54
877.42	214.52
877.73	214.49
878.04	214.40
878.35	214.40
878.66	214.41
878.96	214.44
879.27	214.42
879.58	214.38
879.89	214.35
880.20	214.41
880.51	214.38
880.82	214.39
881.12	214.40
881.43	214.37
881.74	214.32
882.05	214.31
882.36	214.37
882.67	214.39
882.97	214.13
883.28	214.11
883.59	214.10
883.90	214.13
884.21	214.16
884.51	214.17
884.82	214.12
885.13	214.11
885.44	214.12
885.74	214.13
886.05	214.12
886.36	214.11
886.67	214.05
886.98	214.15
887.28	214.15
887.59	214.14
887.90	214.17
888.20	214.18
888.51	214.25
888.82	214.20
889.13	214.21
889.43	214.41
889.74	214.45
890.05	214.43
890.35	214.43
890.66	214.42
890.97	214.45
891.28	214.44
891.58	214.42
891.89	214.41
892.20	214.42
892.50	214.43
892.81	214.44
893.12	214.43
893.42	214.34
893.73	214.38
894.04	214.40
894.34	214.41
894.65	214.40
894.95	214.36
895.26	214.37
895.57	214.47
895.87	214.27
896.18	214.29
896.48	214.28
896.79	214.30
897.10	214.32
897.40	214.34
897.71	214.39
898.01	214.42
898.32	214.44
898.63	214.41
898.93	214.40
899.24	214.39
899.54	214.40
899.85	214.41
900.15	214.39
900.46	214.40
900.76	214.39
901.07	214.37
901.38	214.38
901.68	214.39
901.99	214.28
902.29	214.34
902.60	214.33
902.90	214.34
903.21	214.32
903.51	214.31
903.82	214.34
904.12	214.32
904.43	214.31
904.73	214.30
905.03	214.31
905.34	214.55
905.64	214.56
905.95	214.56
906.25	214.56
906.56	214.56
906.86	214.51
907.17	214.50
907.47	214.53
907.77	214.49
908.08	214.49
908.38	214.49
908.69	214.47
908.99	214.48
909.30	214.48
909.60	214.51
909.90	214.51
910.21	214.43
910.51	214.41
910.81	214.41
911.12	214.41
911.42	214.40
911.73	214.16
912.03	214.15
912.33	214.21
912.64	214.19
912.94	214.15
913.24	214.15
913.55	214.11
913.85	214.10
914.15	214.14
914.46	214.15
914.76	214.13
915.06	214.15
915.37	214.10
915.67	214.12
915.97	214.09
916.27	214.07
916.58	214.10
916.88	214.08
917.18	214.08
917.49	214.22
917.79	214.21
918.09	214.25
918.39	214.29
918.70	214.27
919.00	214.30
919.30	214.42
919.60	214.43
919.91	214.42
920.21	214.41
920.51	214.39
920.81	214.37
921.12	214.41
921.42	214.40
921.72	214.44
922.02	214.45
922.32	214.46
922.63	214.48
922.93	214.57
923.23	214.60
923.53	214.55
923.83	214.39
924.13	214.44
924.44	214.42
924.74	214.45
925.04	214.51
925.34	214.48
925.64	214.37
925.94	214.36
926.24	214.49
926.55	214.46
926.85	214.46
927.15	214.48
927.45	214.46
927.75	214.47
928.05	214.49
928.35	214.45
928.65	214.51
928.95	214.52
929.26	214.44
929.56	214.48
929.86	214.53
930.16	214.56
930.46	214.54
930.76	214.57
931.06	214.47
931.36	214.39
931.66	214.44
931.96	214.46
932.26	214.50
932.56	214.40
932.86	214.42
933.16	214.44
933.46	214.42
933.76	214.41
934.06	214.44
934.36	214.50
934.66	214.52
934.96	214.47
935.26	214.47
935.56	214.49
935.86	214.43
936.16	214.37
936.46	214.32
936.76	214.30
937.06	214.25
937.36	214.29
937.66	214.29
937.96	214.26
938.26	214.23
938.56	214.16
938.86	214.17
939.16	214.20
939.46	214.17
939.76	214.15
940.06	214.14
940.35	214.07
940.65	213.95
940.95	213.95
941.25	213.91
941.55	213.87
941.85	213.86
942.15	213.91
942.45	213.95
942.75	213.96
943.04	213.94
943.34	213.97
943.64	213.93
943.94	213.91
944.24	213.94
944.54	213.95
944.84	213.96
945.13	213.96
945.43	213.93
945.73	213.94
946.03	213.90
946.33	213.88
946.62	213.88
946.92	213.86
947.22	213.86
947.52	213.88
947.82	213.91
948.11	213.89
948.41	213.83
948.71	213.83
949.01	213.85
949.31	213.84
949.60	213.83
949.90	213.87
950.20	213.87
950.50	213.84
950.79	213.84
951.09	213.87
951.39	213.84
951.69	213.83
951.98	213.90
952.28	213.95
952.58	213.93
952.87	213.93
953.17	213.99
953.47	213.98
953.76	214.00
954.06	213.95
954.36	213.94
954.66	213.93
954.95	213.97
955.25	213.97
955.55	214.01
955.84	213.98
956.14	214.02
956.44	214.04
956.73	214.00
957.03	214.02
957.32	214.03
957.62	214.06
957.92	214.09
958.21	214.06
958.51	214.29
958.81	214.32
959.10	214.36
959.40	214.38
959.69	214.39
959.99	214.43
960.29	214.46
960.58	214.44
960.88	214.53
961.17	214.49
961.47	214.48
961.76	214.47
962.06	214.49
962.36	214.43
962.65	214.43
962.95	214.46
963.24	214.43
963.54	214.45
963.83	214.47
964.13	214.46
964.42	214.42
964.72	214.25
965.01	214.25
965.31	214.20
965.60	214.16
965.90	214.30
966.19	214.21
966.49	214.22
966.78	214.21
967.08	214.17
967.37	214.20
967.67	214.20
967.96	214.24
968.26	214.23
968.55	214.27
968.85	214.27
969.14	214.28
969.43	214.25
969.73	214.20
970.02	214.18
970.32	214.15
970.61	214.13
970.91	214.06
971.20	214.05
971.49	214.05
971.79	214.10
972.08	213.97
972.38	214.02
972.67	214.00
972.96	214.03
973.26	213.99
973.55	214.04
973.85	214.01
974.14	213.97
974.43	214.01
974.73	213.98
975.02	213.99
975.31	213.97
975.61	213.99
975.90	214.00
976.19	213.96
976.49	214.00
976.78	214.01
977.07	214.03
977.37	214.03
977.66	214.06
977.95	213.98
978.24	213.96
978.54	213.97
978.83	213.95
979.12	213.92
979.42	213.94
979.71	213.88
980.00	213.89
980.29	213.91
980.59	213.87
980.88	213.91
981.17	213.87
981.46	213.85
981.76	213.88
982.05	213.97
982.34	213.99
982.63	213.99
982.93	214.04
983.22	214.11
983.51	214.12
983.80	214.15
984.09	214.18
984.39	214.16
984.68	214.16
984.97	214.18
985.26	214.16
985.55	214.17
985.85	214.11
986.14	214.16
986.43	214.18
986.72	214.19
987.01	214.13
987.30	214.12
987.59	214.12
987.89	214.10
988.18	214.00
988.47	213.97
988.76	213.94
989.05	213.92
989.34	213.86
989.63	213.91
989.92	213.86
990.22	213.85
990.51	213.88
990.80	213.85
991.09	213.87
991.38	213.90
991.67	213.90
991.96	213.91
992.25	213.91
992.54	213.87
992.83	213.82
993.12	213.81
993.41	213.85
993.70	213.96
993.99	213.97
994.28	214.03
994.58	214.07
994.87	214.03
995.16	214.03
995.45	214.02
995.74	213.93
996.03	214.01
996.32	214.05
996.61	214.06
996.90	214.10
997.19	214.10
997.48	214.11
997.77	214.08
998.06	214.10
998.34	214.07
998.63	214.09
998.92	214.14
999.21	214.20
999.50	214.21
999.79	214.10
1000.08	214.08
1000.37	214.07
1000.66	214.06
1000.95	214.12
1001.24	214.13
1001.53	214.16
1001.82	214.19
1002.11	214.12
1002.40	214.11
1002.68	214.17
1002.97	214.29
1003.26	214.26
1003.55	214.21
1003.84	214.19
1004.13	214.28
1004.42	214.28
1004.71	214.26
1004.99	214.25
1005.28	214.29
1005.57	214.26
1005.86	214.24
1006.15	214.23
1006.44	214.21
1006.72	214.23
1007.01	214.22
1007.30	214.21
1007.59	214.18
1007.88	214.16
1008.17	214.16
1008.45	214.12
1008.74	214.00
1009.03	213.91
1009.32	213.90
1009.60	213.90
1009.89	213.90
1010.18	213.80
1010.47	213.80
1010.76	213.80
1011.04	213.80
1011.33	213.82
1011.62	213.84
1011.91	213.88
1012.19	213.93
1012.48	213.92
1012.77	213.90
1013.05	214.00
1013.34	214.03
1013.63	214.02
1013.92	214.01
1014.20	213.99
1014.49	213.99
1014.78	214.01
1015.06	213.95
1015.35	213.96
1015.64	213.99
1015.92	214.02
1016.21	214.01
1016.50	214.00
1016.78	214.04
1017.07	214.02
1017.36	213.96
1017.64	213.96
1017.93	213.96
1018.22	213.92
1018.50	213.89
1018.79	213.91
1019.08	213.78
1019.36	213.77
1019.65	213.78
1019.93	213.84
1020.22	213.90
1020.51	214.01
1020.79	213.99
1021.08	213.68
1021.36	213.16
1021.65	214.30
1021.94	213.53
1022.22	214.14
1022.51	213.92
1022.79	214.74
1023.08	214.52
1023.36	216.18
1023.65	213.13
>>>>>End Processed Spectral Data<<<<<
