SpectraSuite Data File
++++++++++++++++++++++++++++++++++++
Date: Tue Jan 29 16:43:57 EST 2013
User: group
Dark Spectrum Present: No
Reference Spectrum Present: No
Number of Sampled Component Spectra: 1
Spectrometers: USB2E7196
Integration Time (usec): 65000 (USB2E7196)
Spectra Averaged: 100 (USB2E7196)
Boxcar Smoothing: 10 (USB2E7196)
Correct for Electrical Dark: No (USB2E7196)
Strobe/Lamp Enabled: No (USB2E7196)
Correct for Detector Non-linearity: No (USB2E7196)
Correct for Stray Light: No (USB2E7196)
Number of Pixels in Processed Spectrum: 2048
>>>>>Begin Processed Spectral Data<<<<<
339.09	0.00
339.48	201.37
339.86	203.16
340.24	204.52
340.63	205.98
341.01	210.59
341.39	208.88
341.78	210.55
342.16	212.36
342.54	212.25
342.93	201.10
343.31	211.28
343.69	211.83
344.07	212.29
344.46	212.76
344.84	213.17
345.22	213.38
345.60	213.64
345.99	213.83
346.37	213.94
346.75	214.02
347.13	214.06
347.52	214.14
347.90	214.26
348.28	214.30
348.66	214.41
349.05	214.35
349.43	214.39
349.81	214.44
350.19	214.49
350.57	214.58
350.96	214.68
351.34	214.78
351.72	214.90
352.10	215.01
352.48	215.07
352.87	215.12
353.25	215.17
353.63	215.21
354.01	215.27
354.39	215.33
354.77	215.42
355.15	215.55
355.54	215.57
355.92	215.57
356.30	215.66
356.68	215.84
357.06	215.92
357.44	215.95
357.82	215.99
358.20	216.08
358.58	216.13
358.97	216.19
359.35	216.26
359.73	216.35
360.11	216.37
360.49	216.43
360.87	216.48
361.25	216.54
361.63	216.66
362.01	216.72
362.39	216.74
362.77	216.79
363.15	216.79
363.53	216.85
363.91	216.90
364.29	216.92
364.67	216.75
365.05	216.79
365.43	216.84
365.81	216.88
366.19	216.98
366.57	217.03
366.95	217.05
367.33	217.00
367.71	217.01
368.09	217.09
368.47	217.08
368.85	217.09
369.23	217.10
369.61	217.06
369.99	217.12
370.37	217.17
370.75	217.28
371.13	217.23
371.51	217.21
371.89	217.21
372.27	217.19
372.65	217.16
373.03	217.14
373.41	217.11
373.78	217.05
374.16	216.90
374.54	216.82
374.92	216.74
375.30	216.72
375.68	216.63
376.06	216.57
376.44	216.55
376.82	216.51
377.19	216.44
377.57	216.36
377.95	216.23
378.33	216.16
378.71	215.97
379.09	215.97
379.47	215.94
379.84	215.87
380.22	215.81
380.60	215.74
380.98	215.67
381.36	215.64
381.73	215.59
382.11	215.58
382.49	215.54
382.87	215.53
383.25	215.47
383.62	215.70
384.00	215.61
384.38	215.59
384.76	215.59
385.13	215.65
385.51	215.61
385.89	215.58
386.27	215.54
386.64	215.56
387.02	215.52
387.40	215.44
387.78	215.40
388.15	215.41
388.53	215.38
388.91	215.34
389.29	215.30
389.66	215.30
390.04	215.27
390.42	215.28
390.79	215.21
391.17	215.20
391.55	214.94
391.92	214.97
392.30	214.96
392.68	214.88
393.05	214.87
393.43	214.88
393.81	214.83
394.18	214.80
394.56	214.77
394.94	214.82
395.31	214.84
395.69	214.91
396.06	214.94
396.44	214.98
396.82	215.02
397.19	215.17
397.57	215.20
397.95	215.28
398.32	215.27
398.70	215.36
399.07	215.46
399.45	215.47
399.82	215.48
400.20	215.49
400.58	215.60
400.95	215.55
401.33	215.64
401.70	215.92
402.08	216.00
402.45	216.11
402.83	216.22
403.20	216.34
403.58	216.44
403.95	216.59
404.33	216.74
404.71	216.88
405.08	217.10
405.46	217.26
405.83	217.44
406.21	217.66
406.58	217.88
406.96	218.10
407.33	218.37
407.70	218.71
408.08	219.20
408.45	219.54
408.83	219.95
409.20	220.29
409.58	220.56
409.95	221.06
410.33	221.58
410.70	222.02
411.08	222.56
411.45	223.14
411.82	223.73
412.20	224.43
412.57	225.27
412.95	225.89
413.32	226.70
413.69	227.53
414.07	228.45
414.44	229.50
414.82	230.54
415.19	231.78
415.56	232.96
415.94	234.13
416.31	235.54
416.68	236.96
417.06	238.61
417.43	240.20
417.81	241.93
418.18	243.71
418.55	245.68
418.93	247.76
419.30	249.88
419.67	252.10
420.04	254.40
420.42	256.82
420.79	259.63
421.16	262.49
421.54	265.43
421.91	268.47
422.28	271.54
422.66	274.87
423.03	278.14
423.40	281.49
423.77	285.17
424.15	288.85
424.52	292.71
424.89	296.87
425.26	300.96
425.64	304.91
426.01	309.22
426.38	313.73
426.75	318.37
427.13	323.14
427.50	328.17
427.87	333.42
428.24	338.66
428.61	343.68
428.99	349.21
429.36	355.30
429.73	361.21
430.10	367.20
430.47	373.34
430.85	379.72
431.22	386.55
431.59	393.72
431.96	400.65
432.33	408.25
432.70	415.60
433.08	424.17
433.45	432.26
433.82	440.36
434.19	449.39
434.56	458.08
434.93	466.55
435.30	474.88
435.68	484.11
436.05	493.20
436.42	502.18
436.79	510.49
437.16	519.27
437.53	528.61
437.90	537.72
438.27	546.75
438.64	556.04
439.01	564.62
439.38	572.27
439.75	579.70
440.13	588.18
440.50	596.22
440.87	602.67
441.24	609.47
441.61	616.82
441.98	622.16
442.35	628.57
442.72	634.91
443.09	641.04
443.46	644.82
443.83	647.38
444.20	649.64
444.57	652.76
444.94	654.32
445.31	655.82
445.68	657.33
446.05	657.98
446.42	657.20
446.79	656.31
447.16	655.23
447.53	654.42
447.90	651.18
448.27	647.88
448.64	643.30
449.01	639.91
449.37	634.01
449.74	628.31
450.11	621.44
450.48	614.01
450.85	606.52
451.22	599.98
451.59	593.78
451.96	587.95
452.33	580.01
452.70	572.83
453.07	564.24
453.43	555.53
453.80	547.12
454.17	539.04
454.54	531.40
454.91	523.15
455.28	515.06
455.65	507.49
456.02	499.86
456.38	493.45
456.75	485.48
457.12	478.85
457.49	472.29
457.86	465.96
458.23	460.47
458.59	454.44
458.96	448.37
459.33	442.99
459.70	437.46
460.07	433.15
460.43	428.16
460.80	423.54
461.17	419.55
461.54	415.30
461.91	411.24
462.27	407.06
462.64	403.58
463.01	399.76
463.38	395.99
463.74	392.29
464.11	389.01
464.48	386.14
464.85	383.02
465.21	380.56
465.58	377.94
465.95	374.81
466.32	372.16
466.68	369.55
467.05	366.93
467.42	364.37
467.78	361.67
468.15	359.06
468.52	357.15
468.88	354.62
469.25	352.36
469.62	350.53
469.98	348.60
470.35	346.76
470.72	345.01
471.08	343.21
471.45	341.67
471.82	340.09
472.18	338.38
472.55	337.14
472.92	335.69
473.28	334.44
473.65	333.26
474.02	332.16
474.38	331.23
474.75	330.45
475.11	329.63
475.48	329.07
475.85	328.64
476.21	328.13
476.58	327.74
476.94	327.55
477.31	327.25
477.67	326.92
478.04	326.72
478.41	326.71
478.77	326.87
479.14	326.78
479.50	326.89
479.87	327.20
480.23	327.50
480.60	327.83
480.96	328.08
481.33	328.62
481.69	329.15
482.06	329.66
482.42	330.14
482.79	330.73
483.15	331.47
483.52	332.38
483.88	333.29
484.25	334.26
484.61	335.23
484.98	336.23
485.34	337.55
485.71	338.96
486.07	340.39
486.44	341.69
486.80	343.37
487.17	345.05
487.53	346.86
487.90	348.73
488.26	350.71
488.62	352.95
488.99	355.11
489.35	357.31
489.72	359.73
490.08	362.26
490.44	364.83
490.81	367.56
491.17	370.27
491.54	373.18
491.90	376.21
492.26	379.46
492.63	382.91
492.99	386.43
493.36	390.10
493.72	394.01
494.08	398.09
494.45	402.28
494.81	406.65
495.17	411.11
495.54	415.90
495.90	420.73
496.26	425.63
496.63	430.79
496.99	436.20
497.35	441.80
497.72	447.64
498.08	453.60
498.44	459.73
498.80	466.16
499.17	472.74
499.53	479.46
499.89	486.41
500.26	493.43
500.62	500.51
500.98	507.95
501.34	515.44
501.71	523.16
502.07	530.99
502.43	539.00
502.79	547.26
503.16	555.62
503.52	564.26
503.88	572.94
504.24	581.99
504.60	591.12
504.97	600.38
505.33	609.71
505.69	619.65
506.05	629.56
506.41	639.47
506.78	649.49
507.14	659.70
507.50	670.16
507.86	680.86
508.22	691.65
508.59	702.33
508.95	713.40
509.31	724.73
509.67	736.26
510.03	747.78
510.39	759.41
510.75	771.26
511.12	783.18
511.48	795.39
511.84	807.59
512.20	819.93
512.56	832.63
512.92	845.42
513.28	858.07
513.64	870.78
514.00	883.76
514.37	896.81
514.73	909.97
515.09	922.94
515.45	935.92
515.81	949.02
516.17	962.49
516.53	975.75
516.89	988.90
517.25	1002.16
517.61	1015.64
517.97	1029.18
518.33	1042.34
518.69	1055.95
519.05	1069.72
519.41	1083.48
519.77	1097.40
520.13	1110.70
520.49	1123.96
520.85	1137.46
521.21	1150.95
521.57	1164.54
521.93	1177.65
522.29	1191.47
522.65	1205.24
523.01	1218.95
523.37	1232.26
523.73	1245.58
524.09	1258.85
524.45	1272.35
524.81	1285.95
525.17	1299.44
525.53	1312.67
525.89	1326.11
526.25	1339.30
526.61	1352.24
526.97	1365.36
527.33	1378.32
527.68	1391.94
528.04	1405.40
528.40	1418.56
528.76	1431.95
529.12	1445.03
529.48	1458.47
529.84	1470.82
530.20	1483.71
530.56	1496.35
530.91	1509.61
531.27	1522.51
531.63	1535.40
531.99	1548.21
532.35	1560.47
532.71	1572.88
533.07	1585.86
533.42	1598.20
533.78	1610.48
534.14	1622.64
534.50	1634.05
534.86	1645.81
535.21	1656.75
535.57	1668.42
535.93	1679.83
536.29	1691.03
536.65	1702.65
537.00	1713.75
537.36	1725.29
537.72	1736.35
538.08	1747.94
538.44	1759.07
538.79	1770.48
539.15	1781.47
539.51	1792.44
539.87	1803.86
540.22	1814.82
540.58	1825.87
540.94	1836.86
541.29	1847.24
541.65	1857.07
542.01	1867.70
542.37	1877.85
542.72	1888.06
543.08	1897.89
543.44	1908.36
543.79	1917.72
544.15	1927.11
544.51	1936.99
544.87	1947.01
545.22	1956.23
545.58	1965.19
545.94	1974.07
546.29	1982.46
546.65	1990.91
547.01	1999.23
547.36	2006.87
547.72	2014.73
548.07	2022.36
548.43	2030.18
548.79	2038.09
549.14	2046.30
549.50	2054.83
549.86	2062.84
550.21	2070.40
550.57	2078.20
550.92	2085.05
551.28	2092.61
551.64	2099.91
551.99	2107.58
552.35	2114.85
552.70	2121.87
553.06	2128.51
553.41	2134.82
553.77	2141.39
554.13	2147.72
554.48	2154.85
554.84	2162.17
555.19	2168.68
555.55	2175.17
555.90	2181.45
556.26	2188.20
556.61	2194.32
556.97	2199.11
557.32	2204.76
557.68	2211.30
558.03	2217.10
558.39	2222.46
558.74	2228.46
559.10	2234.01
559.45	2239.52
559.81	2244.92
560.16	2250.50
560.52	2256.32
560.87	2262.77
561.23	2268.71
561.58	2275.40
561.94	2280.48
562.29	2285.07
562.64	2291.12
563.00	2296.81
563.35	2302.36
563.71	2308.02
564.06	2313.65
564.42	2319.66
564.77	2324.80
565.12	2329.96
565.48	2334.97
565.83	2340.45
566.19	2345.74
566.54	2350.96
566.89	2355.45
567.25	2360.02
567.60	2365.56
567.96	2370.72
568.31	2375.26
568.66	2379.43
569.02	2383.19
569.37	2386.83
569.72	2391.12
570.08	2394.57
570.43	2397.58
570.78	2400.72
571.14	2403.18
571.49	2406.12
571.84	2409.46
572.20	2412.25
572.55	2415.13
572.90	2417.49
573.26	2420.12
573.61	2422.62
573.96	2424.77
574.31	2426.93
574.67	2428.71
575.02	2429.40
575.37	2430.75
575.72	2431.22
576.08	2432.59
576.43	2432.68
576.78	2432.99
577.13	2434.50
577.49	2435.51
577.84	2436.33
578.19	2437.50
578.54	2437.87
578.90	2438.40
579.25	2438.23
579.60	2437.84
579.95	2436.83
580.30	2436.54
580.66	2435.89
581.01	2434.15
581.36	2431.66
581.71	2429.99
582.06	2428.54
582.42	2427.45
582.77	2424.90
583.12	2423.07
583.47	2421.64
583.82	2420.84
584.17	2419.44
584.53	2417.15
584.88	2414.95
585.23	2412.90
585.58	2410.34
585.93	2408.35
586.28	2406.08
586.63	2403.39
586.98	2401.15
587.34	2398.82
587.69	2396.33
588.04	2393.94
588.39	2392.20
588.74	2389.50
589.09	2386.48
589.44	2383.30
589.79	2380.70
590.14	2378.61
590.49	2375.79
590.84	2371.68
591.19	2368.36
591.54	2365.08
591.89	2360.83
592.25	2357.50
592.60	2353.17
592.95	2349.04
593.30	2344.66
593.65	2340.16
594.00	2335.62
594.35	2332.51
594.70	2328.01
595.05	2323.46
595.40	2317.83
595.75	2312.05
596.10	2308.38
596.45	2303.70
596.80	2298.97
597.15	2293.60
597.50	2287.67
597.85	2282.64
598.19	2277.31
598.54	2271.59
598.89	2266.34
599.24	2261.85
599.59	2255.61
599.94	2249.77
600.29	2243.74
600.64	2237.79
600.99	2230.93
601.34	2225.39
601.69	2218.44
602.04	2211.97
602.39	2205.20
602.74	2199.13
603.08	2193.54
603.43	2187.05
603.78	2180.09
604.13	2173.14
604.48	2165.92
604.83	2159.72
605.18	2153.44
605.53	2146.54
605.87	2139.62
606.22	2132.66
606.57	2124.61
606.92	2116.50
607.27	2109.53
607.62	2102.69
607.96	2095.74
608.31	2089.36
608.66	2081.53
609.01	2073.77
609.36	2066.58
609.70	2058.90
610.05	2051.15
610.40	2042.78
610.75	2034.41
611.10	2026.62
611.44	2017.53
611.79	2008.71
612.14	1998.72
612.49	1988.02
612.83	1978.74
613.18	1969.20
613.53	1959.99
613.88	1950.37
614.22	1941.86
614.57	1931.82
614.92	1921.30
615.27	1911.03
615.61	1900.70
615.96	1891.08
616.31	1881.54
616.65	1872.06
617.00	1862.23
617.35	1852.49
617.70	1842.80
618.04	1832.72
618.39	1822.68
618.74	1813.12
619.08	1803.52
619.43	1794.94
619.78	1786.78
620.12	1778.23
620.47	1768.76
620.82	1758.37
621.16	1748.77
621.51	1738.85
621.85	1729.18
622.20	1718.89
622.55	1708.48
622.89	1698.74
623.24	1689.08
623.59	1679.22
623.93	1669.22
624.28	1659.55
624.62	1649.60
624.97	1639.38
625.32	1629.67
625.66	1620.64
626.01	1611.94
626.35	1602.66
626.70	1592.61
627.04	1582.49
627.39	1572.28
627.73	1563.11
628.08	1554.27
628.43	1544.52
628.77	1535.36
629.12	1526.56
629.46	1518.75
629.81	1510.45
630.15	1500.99
630.50	1491.26
630.84	1480.88
631.19	1471.06
631.53	1461.72
631.88	1451.50
632.22	1441.58
632.57	1432.36
632.91	1422.37
633.26	1412.63
633.60	1403.22
633.95	1394.00
634.29	1384.69
634.64	1375.44
634.98	1365.52
635.32	1356.22
635.67	1347.90
636.01	1338.67
636.36	1328.99
636.70	1319.56
637.05	1310.19
637.39	1301.31
637.73	1292.67
638.08	1285.19
638.42	1277.12
638.77	1268.44
639.11	1260.35
639.45	1252.59
639.80	1244.00
640.14	1235.31
640.49	1226.41
640.83	1217.52
641.17	1209.38
641.52	1201.21
641.86	1192.67
642.20	1184.85
642.55	1176.18
642.89	1167.26
643.23	1158.72
643.58	1150.59
643.92	1141.70
644.26	1133.03
644.61	1124.64
644.95	1115.85
645.29	1106.68
645.64	1097.49
645.98	1089.07
646.32	1081.21
646.66	1072.70
647.01	1064.50
647.35	1056.46
647.69	1048.17
648.04	1039.92
648.38	1031.07
648.72	1022.42
649.06	1014.00
649.41	1005.74
649.75	997.98
650.09	990.29
650.43	982.24
650.78	973.93
651.12	966.10
651.46	958.69
651.80	951.53
652.14	944.28
652.49	936.74
652.83	929.40
653.17	921.69
653.51	914.02
653.85	906.78
654.20	899.52
654.54	892.02
654.88	884.77
655.22	877.55
655.56	870.54
655.90	863.62
656.25	856.95
656.59	850.11
656.93	843.09
657.27	835.90
657.61	828.86
657.95	822.73
658.29	816.75
658.64	810.55
658.98	803.94
659.32	797.41
659.66	791.24
660.00	784.96
660.34	778.84
660.68	772.74
661.02	766.39
661.36	760.35
661.70	754.52
662.05	748.89
662.39	743.40
662.73	737.94
663.07	732.60
663.41	726.93
663.75	721.16
664.09	715.40
664.43	709.89
664.77	704.59
665.11	698.82
665.45	692.99
665.79	687.25
666.13	681.62
666.47	676.06
666.81	670.67
667.15	665.19
667.49	659.97
667.83	654.67
668.17	649.38
668.51	644.21
668.85	639.27
669.19	634.35
669.53	629.37
669.87	624.26
670.21	619.47
670.55	614.73
670.89	610.30
671.23	605.92
671.57	601.54
671.91	597.21
672.25	593.04
672.58	588.88
672.92	584.77
673.26	580.76
673.60	576.84
673.94	572.91
674.28	569.29
674.62	565.53
674.96	561.76
675.30	558.29
675.64	554.67
675.97	551.08
676.31	547.44
676.65	543.83
676.99	540.47
677.33	536.54
677.67	532.90
678.01	529.00
678.34	525.31
678.68	521.74
679.02	518.11
679.36	514.37
679.70	510.68
680.04	507.08
680.37	503.60
680.71	500.26
681.05	497.02
681.39	493.69
681.73	490.48
682.06	487.43
682.40	484.26
682.74	481.01
683.08	477.77
683.42	474.54
683.75	471.50
684.09	468.38
684.43	465.59
684.77	462.72
685.10	459.85
685.44	456.92
685.78	453.96
686.12	451.16
686.45	448.40
686.79	445.73
687.13	443.12
687.46	440.49
687.80	437.77
688.14	434.87
688.48	432.23
688.81	429.54
689.15	426.92
689.49	424.30
689.82	421.73
690.16	419.07
690.50	416.59
690.83	414.04
691.17	411.49
691.51	408.88
691.84	406.49
692.18	404.25
692.52	402.03
692.85	399.87
693.19	397.71
693.52	395.53
693.86	393.25
694.20	391.08
694.53	388.89
694.87	386.73
695.21	384.60
695.54	382.45
695.88	380.26
696.21	378.04
696.55	375.87
696.88	373.83
697.22	371.84
697.56	369.89
697.89	367.92
698.23	366.13
698.56	364.40
698.90	362.61
699.23	360.71
699.57	358.79
699.90	356.93
700.24	355.08
700.58	353.26
700.91	351.59
701.25	349.97
701.58	348.39
701.92	346.76
702.25	345.11
702.59	343.43
702.92	341.85
703.26	340.22
703.59	338.70
703.93	337.42
704.26	335.95
704.60	334.40
704.93	332.91
705.26	331.37
705.60	329.83
705.93	328.30
706.27	326.93
706.60	325.67
706.94	324.38
707.27	322.98
707.61	321.66
707.94	320.26
708.27	318.74
708.61	317.26
708.94	315.86
709.28	314.53
709.61	313.30
709.94	312.09
710.28	310.88
710.61	309.67
710.95	308.19
711.28	307.08
711.61	305.87
711.95	304.77
712.28	303.59
712.61	302.42
712.95	301.33
713.28	300.22
713.61	299.01
713.95	297.84
714.28	296.76
714.61	295.69
714.95	294.66
715.28	293.60
715.61	292.54
715.95	291.56
716.28	290.59
716.61	289.62
716.95	288.60
717.28	287.67
717.61	286.71
717.94	285.74
718.28	284.69
718.61	283.83
718.94	282.88
719.27	281.93
719.61	281.13
719.94	280.26
720.27	279.26
720.60	278.37
720.94	277.55
721.27	276.76
721.60	276.04
721.93	275.30
722.27	274.70
722.60	273.98
722.93	273.27
723.26	272.60
723.59	271.84
723.93	271.16
724.26	270.49
724.59	269.82
724.92	269.22
725.25	268.66
725.59	268.07
725.92	267.51
726.25	266.94
726.58	266.32
726.91	265.71
727.24	265.23
727.57	264.71
727.91	264.07
728.24	263.55
728.57	262.95
728.90	262.40
729.23	261.74
729.56	261.31
729.89	260.74
730.22	260.15
730.55	259.60
730.89	259.06
731.22	258.51
731.55	257.96
731.88	257.46
732.21	256.92
732.54	256.36
732.87	255.82
733.20	255.33
733.53	254.85
733.86	254.38
734.19	253.89
734.52	253.48
734.85	253.18
735.18	252.68
735.51	252.30
735.84	251.87
736.17	251.48
736.50	250.95
736.83	250.80
737.16	250.39
737.49	250.00
737.82	249.58
738.15	249.20
738.48	248.82
738.81	248.42
739.14	247.96
739.47	247.56
739.80	247.18
740.13	246.81
740.46	246.40
740.79	245.98
741.12	245.57
741.45	245.15
741.78	244.71
742.11	244.42
742.44	244.00
742.77	243.69
743.10	243.32
743.43	242.96
743.75	242.33
744.08	242.29
744.41	241.93
744.74	241.58
745.07	241.22
745.40	240.92
745.73	240.64
746.06	240.35
746.39	240.06
746.71	239.70
747.04	239.37
747.37	239.07
747.70	238.83
748.03	238.53
748.36	238.25
748.68	237.96
749.01	237.60
749.34	237.32
749.67	236.99
750.00	236.70
750.33	236.56
750.65	236.32
750.98	235.78
751.31	235.53
751.64	235.29
751.97	235.16
752.29	234.90
752.62	234.54
752.95	234.32
753.28	234.01
753.60	233.80
753.93	233.61
754.26	233.36
754.59	233.04
754.91	232.79
755.24	232.54
755.57	232.30
755.90	232.08
756.22	231.85
756.55	231.61
756.88	231.39
757.20	231.06
757.53	230.79
757.86	230.58
758.19	230.41
758.51	230.19
758.84	229.89
759.17	229.70
759.49	229.54
759.82	229.43
760.15	229.31
760.47	229.13
760.80	228.87
761.13	228.73
761.45	228.59
761.78	228.45
762.11	228.24
762.43	228.05
762.76	227.88
763.08	227.69
763.41	227.53
763.74	227.36
764.06	227.20
764.39	227.04
764.71	226.88
765.04	226.69
765.37	226.52
765.69	226.34
766.02	226.19
766.34	226.06
766.67	225.82
767.00	225.72
767.32	225.69
767.65	225.70
767.97	225.55
768.30	225.40
768.62	225.22
768.95	225.07
769.27	224.91
769.60	224.83
769.92	224.67
770.25	224.56
770.57	224.39
770.90	224.28
771.22	224.14
771.55	224.03
771.87	223.95
772.20	223.82
772.52	223.88
772.85	223.95
773.17	223.85
773.50	223.73
773.82	223.60
774.15	223.38
774.47	223.14
774.80	223.01
775.12	222.91
775.45	222.83
775.77	222.77
776.09	222.71
776.42	222.59
776.74	222.61
777.07	222.50
777.39	222.46
777.72	222.37
778.04	222.31
778.36	222.23
778.69	222.12
779.01	222.06
779.33	221.80
779.66	221.50
779.98	221.41
780.31	221.31
780.63	221.31
780.95	221.26
781.28	221.19
781.60	221.09
781.92	221.04
782.25	220.98
782.57	220.90
782.89	220.84
783.22	220.79
783.54	220.66
783.86	220.58
784.19	220.49
784.51	220.48
784.83	220.40
785.16	220.29
785.48	220.24
785.80	220.18
786.12	220.15
786.45	220.09
786.77	220.02
787.09	219.98
787.42	219.81
787.74	219.71
788.06	219.64
788.38	219.61
788.71	219.54
789.03	219.47
789.35	219.45
789.67	219.36
789.99	219.31
790.32	219.25
790.64	219.25
790.96	219.37
791.28	219.19
791.61	219.13
791.93	219.12
792.25	219.06
792.57	219.16
792.89	219.04
793.21	219.04
793.54	218.96
793.86	218.91
794.18	218.90
794.50	218.84
794.82	218.79
795.14	218.74
795.47	218.72
795.79	218.69
796.11	218.58
796.43	218.54
796.75	218.46
797.07	218.42
797.39	218.37
797.71	218.15
798.04	218.15
798.36	218.12
798.68	218.08
799.00	218.06
799.32	217.90
799.64	217.93
799.96	217.88
800.28	217.89
800.60	217.82
800.92	217.81
801.24	217.76
801.56	217.75
801.89	217.70
802.21	217.69
802.53	217.62
802.85	217.64
803.17	217.72
803.49	217.66
803.81	217.62
804.13	217.56
804.45	217.53
804.77	217.52
805.09	217.48
805.41	217.41
805.73	217.33
806.05	217.26
806.37	217.20
806.69	217.15
807.01	217.11
807.33	217.09
807.65	216.95
807.97	217.06
808.28	217.01
808.60	217.00
808.92	216.94
809.24	217.06
809.56	216.96
809.88	216.86
810.20	216.84
810.52	216.82
810.84	216.76
811.16	216.71
811.48	216.70
811.80	216.75
812.12	216.72
812.43	216.76
812.75	216.77
813.07	216.72
813.39	216.71
813.71	216.64
814.03	216.62
814.35	216.65
814.67	216.50
814.98	216.46
815.30	216.44
815.62	216.39
815.94	216.23
816.26	216.28
816.58	216.20
816.89	216.23
817.21	216.17
817.53	216.17
817.85	216.15
818.17	216.11
818.48	215.98
818.80	216.03
819.12	215.95
819.44	215.87
819.76	215.84
820.07	215.84
820.39	215.85
820.71	215.89
821.03	215.86
821.34	215.85
821.66	215.85
821.98	215.82
822.30	215.82
822.61	215.92
822.93	215.86
823.25	215.84
823.57	215.80
823.88	215.83
824.20	215.81
824.52	215.83
824.83	215.79
825.15	215.80
825.47	215.81
825.79	215.83
826.10	215.85
826.42	215.83
826.74	215.80
827.05	215.79
827.37	215.75
827.69	215.72
828.00	215.73
828.32	215.74
828.64	215.71
828.95	215.78
829.27	215.71
829.58	215.70
829.90	215.73
830.22	215.72
830.53	215.68
830.85	215.65
831.17	215.57
831.48	215.62
831.80	215.64
832.11	215.56
832.43	215.53
832.75	215.50
833.06	215.61
833.38	215.58
833.69	215.56
834.01	215.54
834.32	215.56
834.64	215.52
834.96	215.48
835.27	215.48
835.59	215.42
835.90	215.36
836.22	215.35
836.53	215.29
836.85	215.25
837.16	215.43
837.48	215.42
837.79	215.51
838.11	215.49
838.42	215.47
838.74	215.49
839.05	215.47
839.37	215.46
839.68	215.35
840.00	215.32
840.31	215.33
840.63	215.35
840.94	215.30
841.26	215.29
841.57	215.29
841.88	215.31
842.20	215.28
842.51	215.27
842.83	215.27
843.14	215.48
843.46	215.47
843.77	215.35
844.08	215.30
844.40	215.22
844.71	215.17
845.03	215.13
845.34	215.13
845.65	215.14
845.97	215.15
846.28	215.15
846.60	215.15
846.91	215.11
847.22	215.10
847.54	215.15
847.85	215.12
848.16	215.09
848.48	215.05
848.79	215.14
849.10	215.16
849.42	215.19
849.73	214.98
850.04	214.99
850.36	214.92
850.67	215.02
850.98	215.02
851.30	215.02
851.61	214.99
851.92	214.95
852.23	214.99
852.55	215.01
852.86	215.00
853.17	215.03
853.49	215.07
853.80	215.08
854.11	215.08
854.42	215.14
854.74	215.09
855.05	215.09
855.36	214.96
855.67	214.98
855.99	214.96
856.30	215.20
856.61	215.20
856.92	215.18
857.23	215.15
857.55	215.10
857.86	215.12
858.17	215.18
858.48	215.18
858.79	215.14
859.11	215.12
859.42	215.09
859.73	215.01
860.04	214.99
860.35	214.93
860.66	214.88
860.98	214.84
861.29	214.88
861.60	214.86
861.91	214.92
862.22	214.86
862.53	214.82
862.84	214.60
863.16	214.66
863.47	214.61
863.78	214.62
864.09	214.64
864.40	214.64
864.71	214.63
865.02	214.64
865.33	214.61
865.64	214.57
865.95	214.62
866.27	214.81
866.58	214.79
866.89	214.82
867.20	214.79
867.51	214.74
867.82	214.73
868.13	214.80
868.44	214.73
868.75	214.76
869.06	214.76
869.37	214.75
869.68	214.67
869.99	214.69
870.30	214.67
870.61	214.70
870.92	214.61
871.23	214.59
871.54	214.59
871.85	214.63
872.16	214.65
872.47	214.58
872.78	214.40
873.09	214.41
873.40	214.39
873.71	214.43
874.02	214.48
874.33	214.45
874.64	214.40
874.95	214.44
875.26	214.36
875.56	214.39
875.87	214.35
876.18	214.29
876.49	214.51
876.80	214.49
877.11	214.45
877.42	214.47
877.73	214.47
878.04	214.45
878.35	214.43
878.66	214.45
878.96	214.45
879.27	214.46
879.58	214.45
879.89	214.42
880.20	214.45
880.51	214.42
880.82	214.44
881.12	214.46
881.43	214.44
881.74	214.40
882.05	214.38
882.36	214.42
882.67	214.44
882.97	214.24
883.28	214.22
883.59	214.20
883.90	214.26
884.21	214.27
884.51	214.24
884.82	214.19
885.13	214.20
885.44	214.22
885.74	214.20
886.05	214.19
886.36	214.19
886.67	214.10
886.98	214.19
887.28	214.19
887.59	214.17
887.90	214.15
888.20	214.18
888.51	214.22
888.82	214.17
889.13	214.18
889.43	214.32
889.74	214.32
890.05	214.35
890.35	214.31
890.66	214.25
890.97	214.25
891.28	214.30
891.58	214.29
891.89	214.31
892.20	214.32
892.50	214.30
892.81	214.31
893.12	214.34
893.42	214.23
893.73	214.26
894.04	214.23
894.34	214.28
894.65	214.28
894.95	214.26
895.26	214.26
895.57	214.36
895.87	214.20
896.18	214.24
896.48	214.26
896.79	214.28
897.10	214.37
897.40	214.35
897.71	214.34
898.01	214.32
898.32	214.31
898.63	214.31
898.93	214.31
899.24	214.30
899.54	214.27
899.85	214.28
900.15	214.24
900.46	214.23
900.76	214.22
901.07	214.19
901.38	214.17
901.68	214.22
901.99	214.12
902.29	214.12
902.60	214.10
902.90	214.06
903.21	214.05
903.51	214.03
903.82	214.07
904.12	214.05
904.43	214.05
904.73	214.07
905.03	214.06
905.34	214.25
905.64	214.25
905.95	214.23
906.25	214.22
906.56	214.22
906.86	214.27
907.17	214.25
907.47	214.27
907.77	214.27
908.08	214.25
908.38	214.29
908.69	214.30
908.99	214.31
909.30	214.32
909.60	214.30
909.90	214.28
910.21	214.29
910.51	214.27
910.81	214.29
911.12	214.28
911.42	214.28
911.73	214.07
912.03	214.11
912.33	214.14
912.64	214.18
912.94	214.14
913.24	214.09
913.55	214.07
913.85	214.07
914.15	214.11
914.46	214.08
914.76	214.03
915.06	214.01
915.37	214.00
915.67	213.98
915.97	214.01
916.27	213.99
916.58	213.97
916.88	213.96
917.18	213.91
917.49	214.02
917.79	214.01
918.09	214.06
918.39	214.11
918.70	214.12
919.00	214.10
919.30	214.21
919.60	214.20
919.91	214.21
920.21	214.20
920.51	214.17
920.81	214.15
921.12	214.18
921.42	214.20
921.72	214.20
922.02	214.22
922.32	214.21
922.63	214.22
922.93	214.29
923.23	214.31
923.53	214.29
923.83	214.16
924.13	214.16
924.44	214.14
924.74	214.14
925.04	214.19
925.34	214.17
925.64	214.11
925.94	214.10
926.24	214.21
926.55	214.21
926.85	214.22
927.15	214.23
927.45	214.23
927.75	214.21
928.05	214.20
928.35	214.18
928.65	214.22
928.95	214.21
929.26	214.15
929.56	214.17
929.86	214.24
930.16	214.25
930.46	214.26
930.76	214.27
931.06	214.19
931.36	214.13
931.66	214.17
931.96	214.17
932.26	214.18
932.56	214.07
932.86	214.06
933.16	214.06
933.46	214.00
933.76	213.97
934.06	214.01
934.36	214.12
934.66	214.09
934.96	214.08
935.26	214.08
935.56	214.11
935.86	214.07
936.16	214.02
936.46	213.99
936.76	214.01
937.06	214.01
937.36	214.03
937.66	214.07
937.96	214.03
938.26	213.99
938.56	213.97
938.86	214.02
939.16	214.08
939.46	214.12
939.76	214.21
940.06	214.22
940.35	214.16
940.65	214.01
940.95	214.09
941.25	214.05
941.55	214.05
941.85	214.06
942.15	214.11
942.45	214.16
942.75	214.16
943.04	214.14
943.34	214.15
943.64	214.12
943.94	214.08
944.24	214.09
944.54	214.12
944.84	214.13
945.13	214.07
945.43	214.03
945.73	214.00
946.03	213.99
946.33	213.95
946.62	213.94
946.92	213.97
947.22	213.97
947.52	213.98
947.82	213.99
948.11	213.95
948.41	213.89
948.71	213.85
949.01	213.87
949.31	213.84
949.60	213.84
949.90	213.87
950.20	213.84
950.50	213.84
950.79	213.82
951.09	213.82
951.39	213.83
951.69	213.80
951.98	213.86
952.28	213.85
952.58	213.85
952.87	213.86
953.17	213.85
953.47	213.81
953.76	213.83
954.06	213.80
954.36	213.78
954.66	213.76
954.95	213.82
955.25	213.80
955.55	213.84
955.84	213.80
956.14	213.81
956.44	213.83
956.73	213.80
957.03	213.82
957.32	213.83
957.62	213.82
957.92	213.86
958.21	213.83
958.51	214.07
958.81	214.11
959.10	214.12
959.40	214.21
959.69	214.20
959.99	214.19
960.29	214.21
960.58	214.19
960.88	214.29
961.17	214.24
961.47	214.27
961.76	214.24
962.06	214.26
962.36	214.23
962.65	214.23
962.95	214.24
963.24	214.22
963.54	214.25
963.83	214.28
964.13	214.29
964.42	214.24
964.72	214.07
965.01	214.05
965.31	214.06
965.60	213.99
965.90	214.15
966.19	214.10
966.49	214.11
966.78	214.13
967.08	214.11
967.37	214.11
967.67	214.11
967.96	214.15
968.26	214.18
968.55	214.23
968.85	214.23
969.14	214.25
969.43	214.27
969.73	214.24
970.02	214.20
970.32	214.17
970.61	214.15
970.91	214.08
971.20	214.04
971.49	214.01
971.79	214.04
972.08	213.89
972.38	213.93
972.67	213.95
972.96	213.98
973.26	213.96
973.55	214.04
973.85	214.01
974.14	213.99
974.43	214.00
974.73	213.92
975.02	213.93
975.31	213.95
975.61	213.92
975.90	213.94
976.19	213.95
976.49	213.98
976.78	214.00
977.07	214.01
977.37	214.05
977.66	214.09
977.95	214.05
978.24	214.09
978.54	214.12
978.83	214.09
979.12	214.06
979.42	214.07
979.71	214.01
980.00	213.99
980.29	214.00
980.59	213.96
980.88	214.00
981.17	213.98
981.46	213.94
981.76	213.95
982.05	214.02
982.34	214.03
982.63	214.03
982.93	214.03
983.22	214.10
983.51	214.09
983.80	214.10
984.09	214.14
984.39	214.09
984.68	214.03
984.97	214.03
985.26	214.02
985.55	214.04
985.85	214.02
986.14	214.08
986.43	214.11
986.72	214.08
987.01	214.06
987.30	214.06
987.59	214.06
987.89	214.08
988.18	214.01
988.47	214.00
988.76	213.96
989.05	213.95
989.34	213.89
989.63	213.93
989.92	213.93
990.22	213.90
990.51	213.89
990.80	213.89
991.09	213.90
991.38	213.92
991.67	213.87
991.96	213.86
992.25	213.84
992.54	213.80
992.83	213.82
993.12	213.80
993.41	213.88
993.70	213.94
993.99	213.97
994.28	213.99
994.58	214.00
994.87	213.98
995.16	213.98
995.45	213.99
995.74	213.92
996.03	213.94
996.32	213.97
996.61	214.05
996.90	214.08
997.19	214.08
997.48	214.08
997.77	214.10
998.06	214.10
998.34	214.09
998.63	214.11
998.92	214.11
999.21	214.16
999.50	214.10
999.79	214.05
1000.08	214.04
1000.37	214.05
1000.66	214.01
1000.95	214.09
1001.24	214.08
1001.53	214.08
1001.82	214.09
1002.11	214.06
1002.40	214.08
1002.68	214.08
1002.97	214.22
1003.26	214.18
1003.55	214.15
1003.84	214.16
1004.13	214.23
1004.42	214.21
1004.71	214.19
1004.99	214.18
1005.28	214.21
1005.57	214.25
1005.86	214.21
1006.15	214.17
1006.44	214.12
1006.72	214.17
1007.01	214.08
1007.30	214.11
1007.59	214.09
1007.88	214.11
1008.17	214.11
1008.45	214.03
1008.74	213.98
1009.03	213.89
1009.32	213.90
1009.60	213.87
1009.89	213.82
1010.18	213.74
1010.47	213.72
1010.76	213.72
1011.04	213.77
1011.33	213.80
1011.62	213.79
1011.91	213.81
1012.19	213.84
1012.48	213.88
1012.77	213.87
1013.05	213.97
1013.34	213.99
1013.63	213.97
1013.92	213.96
1014.20	213.92
1014.49	213.98
1014.78	213.97
1015.06	213.90
1015.35	213.91
1015.64	213.95
1015.92	213.98
1016.21	214.01
1016.50	214.01
1016.78	214.02
1017.07	213.97
1017.36	213.90
1017.64	213.86
1017.93	213.87
1018.22	213.83
1018.50	213.79
1018.79	213.80
1019.08	213.73
1019.36	213.73
1019.65	213.70
1019.93	213.73
1020.22	213.78
1020.51	213.86
1020.79	213.86
1021.08	213.52
1021.36	213.03
1021.65	214.30
1021.94	214.09
1022.22	213.92
1022.51	212.95
1022.79	214.52
1023.08	214.10
1023.36	216.27
1023.65	213.61
>>>>>End Processed Spectral Data<<<<<
