SpectraSuite Data File
++++++++++++++++++++++++++++++++++++
Date: Tue Jan 29 15:59:31 EST 2013
User: group
Dark Spectrum Present: No
Reference Spectrum Present: No
Number of Sampled Component Spectra: 1
Spectrometers: USB2E7196
Integration Time (usec): 65000 (USB2E7196)
Spectra Averaged: 100 (USB2E7196)
Boxcar Smoothing: 10 (USB2E7196)
Correct for Electrical Dark: No (USB2E7196)
Strobe/Lamp Enabled: No (USB2E7196)
Correct for Detector Non-linearity: No (USB2E7196)
Correct for Stray Light: No (USB2E7196)
Number of Pixels in Processed Spectrum: 2048
>>>>>Begin Processed Spectral Data<<<<<
339.09	0.00
339.48	202.63
339.86	204.69
340.24	205.50
340.63	207.44
341.01	211.07
341.39	210.07
341.78	211.21
342.16	212.53
342.54	213.22
342.93	202.00
343.31	212.22
343.69	212.77
344.07	213.20
344.46	213.63
344.84	214.02
345.22	214.19
345.60	214.43
345.99	214.62
346.37	214.75
346.75	214.87
347.13	214.93
347.52	215.03
347.90	215.13
348.28	215.13
348.66	215.23
349.05	215.21
349.43	215.25
349.81	215.36
350.19	215.42
350.57	215.51
350.96	215.61
351.34	215.70
351.72	215.81
352.10	215.93
352.48	216.03
352.87	216.07
353.25	216.15
353.63	216.21
354.01	216.28
354.39	216.36
354.77	216.44
355.15	216.56
355.54	216.58
355.92	216.59
356.30	216.68
356.68	216.87
357.06	216.95
357.44	216.97
357.82	217.02
358.20	217.14
358.58	217.19
358.97	217.24
359.35	217.36
359.73	217.47
360.11	217.54
360.49	217.60
360.87	217.66
361.25	217.76
361.63	217.90
362.01	217.98
362.39	218.01
362.77	218.05
363.15	218.08
363.53	218.17
363.91	218.22
364.29	218.22
364.67	218.06
365.05	218.06
365.43	218.14
365.81	218.16
366.19	218.22
366.57	218.31
366.95	218.30
367.33	218.23
367.71	218.20
368.09	218.25
368.47	218.23
368.85	218.21
369.23	218.22
369.61	218.13
369.99	218.14
370.37	218.14
370.75	218.23
371.13	218.17
371.51	218.06
371.89	218.05
372.27	218.07
372.65	218.06
373.03	218.04
373.41	218.01
373.78	217.97
374.16	217.84
374.54	217.74
374.92	217.69
375.30	217.64
375.68	217.59
376.06	217.52
376.44	217.50
376.82	217.48
377.19	217.44
377.57	217.40
377.95	217.30
378.33	217.22
378.71	217.05
379.09	217.06
379.47	217.05
379.84	217.00
380.22	216.95
380.60	216.87
380.98	216.83
381.36	216.75
381.73	216.68
382.11	216.67
382.49	216.65
382.87	216.59
383.25	216.59
383.62	216.78
384.00	216.71
384.38	216.68
384.76	216.68
385.13	216.67
385.51	216.65
385.89	216.60
386.27	216.59
386.64	216.60
387.02	216.51
387.40	216.50
387.78	216.48
388.15	216.48
388.53	216.46
388.91	216.43
389.29	216.40
389.66	216.41
390.04	216.37
390.42	216.35
390.79	216.36
391.17	216.32
391.55	216.07
391.92	216.07
392.30	216.07
392.68	216.01
393.05	216.03
393.43	216.01
393.81	216.02
394.18	215.99
394.56	215.96
394.94	216.03
395.31	216.02
395.69	216.11
396.06	216.13
396.44	216.16
396.82	216.19
397.19	216.33
397.57	216.32
397.95	216.36
398.32	216.35
398.70	216.41
399.07	216.50
399.45	216.54
399.82	216.58
400.20	216.61
400.58	216.66
400.95	216.63
401.33	216.74
401.70	216.96
402.08	217.04
402.45	217.12
402.83	217.27
403.20	217.35
403.58	217.42
403.95	217.54
404.33	217.67
404.71	217.82
405.08	218.06
405.46	218.23
405.83	218.45
406.21	218.69
406.58	218.90
406.96	219.11
407.33	219.37
407.70	219.64
408.08	220.12
408.45	220.46
408.83	220.83
409.20	221.17
409.58	221.45
409.95	221.87
410.33	222.35
410.70	222.76
411.08	223.29
411.45	223.80
411.82	224.34
412.20	224.99
412.57	225.77
412.95	226.33
413.32	227.12
413.69	227.89
414.07	228.73
414.44	229.69
414.82	230.68
415.19	231.84
415.56	233.00
415.94	234.10
416.31	235.44
416.68	236.82
417.06	238.32
417.43	239.82
417.81	241.53
418.18	243.25
418.55	245.13
418.93	247.13
419.30	249.19
419.67	251.39
420.04	253.57
420.42	255.87
420.79	258.57
421.16	261.29
421.54	264.10
421.91	266.98
422.28	269.97
422.66	273.14
423.03	276.27
423.40	279.48
423.77	282.94
424.15	286.47
424.52	290.19
424.89	294.22
425.26	298.12
425.64	301.90
426.01	306.04
426.38	310.30
426.75	314.62
427.13	319.15
427.50	323.91
427.87	328.90
428.24	333.87
428.61	338.65
428.99	343.93
429.36	349.69
429.73	355.36
430.10	360.99
430.47	366.83
430.85	372.89
431.22	379.35
431.59	386.19
431.96	392.74
432.33	399.92
432.70	406.94
433.08	415.16
433.45	422.89
433.82	430.60
434.19	439.17
434.56	447.57
434.93	455.57
435.30	463.55
435.68	472.37
436.05	481.00
436.42	489.60
436.79	497.43
437.16	505.90
437.53	514.86
437.90	523.62
438.27	532.25
438.64	541.12
439.01	549.31
439.38	556.60
439.75	563.66
440.13	571.80
440.50	579.48
440.87	585.60
441.24	591.96
441.61	598.96
441.98	604.16
442.35	610.21
442.72	616.35
443.09	622.17
443.46	625.73
443.83	628.18
444.20	630.24
444.57	633.31
444.94	634.63
445.31	635.94
445.68	637.24
446.05	637.85
446.42	637.00
446.79	636.05
447.16	634.95
447.53	634.19
447.90	630.91
448.27	627.64
448.64	623.16
449.01	619.89
449.37	614.24
449.74	608.73
450.11	602.11
450.48	594.90
450.85	587.69
451.22	581.48
451.59	575.54
451.96	569.98
452.33	562.37
452.70	555.59
453.07	547.45
453.43	539.23
453.80	531.23
454.17	523.61
454.54	516.39
454.91	508.59
455.28	500.94
455.65	493.87
456.02	486.71
456.38	480.70
456.75	473.24
457.12	466.93
457.49	460.74
457.86	454.81
458.23	449.76
458.59	444.08
458.96	438.33
459.33	433.27
459.70	428.11
460.07	424.05
460.43	419.37
460.80	414.97
461.17	411.17
461.54	407.11
461.91	403.28
462.27	399.32
462.64	396.04
463.01	392.37
463.38	388.75
463.74	385.19
464.11	382.08
464.48	379.33
464.85	376.36
465.21	373.99
465.58	371.47
465.95	368.40
466.32	365.93
466.68	363.43
467.05	360.93
467.42	358.50
467.78	355.95
468.15	353.52
468.52	351.78
468.88	349.35
469.25	347.24
469.62	345.50
469.98	343.69
470.35	341.99
470.72	340.45
471.08	338.79
471.45	337.42
471.82	335.97
472.18	334.40
472.55	333.25
472.92	331.97
473.28	330.80
473.65	329.74
474.02	328.70
474.38	327.86
474.75	327.22
475.11	326.44
475.48	325.93
475.85	325.47
476.21	324.99
476.58	324.69
476.94	324.52
477.31	324.27
477.67	324.06
478.04	323.90
478.41	323.89
478.77	324.06
479.14	324.02
479.50	324.16
479.87	324.51
480.23	324.88
480.60	325.16
480.96	325.53
481.33	326.15
481.69	326.74
482.06	327.28
482.42	327.77
482.79	328.40
483.15	329.20
483.52	330.18
483.88	331.09
484.25	332.06
484.61	333.08
484.98	334.10
485.34	335.37
485.71	336.73
486.07	338.18
486.44	339.51
486.80	341.07
487.17	342.75
487.53	344.58
487.90	346.44
488.26	348.47
488.62	350.56
488.99	352.59
489.35	354.72
489.72	357.10
490.08	359.60
490.44	362.15
490.81	364.88
491.17	367.55
491.54	370.50
491.90	373.56
492.26	376.83
492.63	380.29
492.99	383.80
493.36	387.49
493.72	391.35
494.08	395.35
494.45	399.56
494.81	403.91
495.17	408.32
495.54	413.04
495.90	417.79
496.26	422.71
496.63	427.87
496.99	433.24
497.35	438.79
497.72	444.56
498.08	450.48
498.44	456.50
498.80	462.92
499.17	469.41
499.53	476.05
499.89	482.85
500.26	489.79
500.62	496.82
500.98	504.22
501.34	511.63
501.71	519.36
502.07	527.16
502.43	535.09
502.79	543.18
503.16	551.54
503.52	560.15
503.88	568.85
504.24	577.84
504.60	586.88
504.97	596.07
505.33	605.34
505.69	615.14
506.05	625.01
506.41	634.82
506.78	644.85
507.14	655.09
507.50	665.59
507.86	676.23
508.22	687.10
508.59	697.71
508.95	708.72
509.31	719.99
509.67	731.33
510.03	742.74
510.39	754.47
510.75	766.20
511.12	778.06
511.48	790.10
511.84	802.24
512.20	814.46
512.56	827.12
512.92	839.80
513.28	852.34
513.64	864.95
514.00	877.64
514.37	890.53
514.73	903.54
515.09	916.33
515.45	928.98
515.81	941.70
516.17	954.92
516.53	967.95
516.89	980.79
517.25	993.85
517.61	1007.14
517.97	1020.27
518.33	1033.29
518.69	1046.63
519.05	1060.18
519.41	1073.75
519.77	1087.50
520.13	1100.55
520.49	1113.57
520.85	1126.85
521.21	1139.90
521.57	1153.48
521.93	1166.36
522.29	1179.87
522.65	1193.31
523.01	1206.79
523.37	1219.77
523.73	1232.83
524.09	1245.81
524.45	1259.12
524.81	1272.36
525.17	1285.62
525.53	1298.55
525.89	1311.52
526.25	1324.49
526.61	1337.05
526.97	1349.84
527.33	1362.46
527.68	1375.62
528.04	1388.84
528.40	1401.57
528.76	1414.69
529.12	1427.25
529.48	1440.16
529.84	1452.15
530.20	1464.66
530.56	1477.05
530.91	1490.10
531.27	1502.59
531.63	1515.20
531.99	1527.56
532.35	1539.46
532.71	1551.45
533.07	1564.03
533.42	1575.99
533.78	1587.65
534.14	1599.41
534.50	1610.15
534.86	1621.40
535.21	1631.94
535.57	1643.06
535.93	1654.12
536.29	1664.88
536.65	1675.90
537.00	1686.56
537.36	1697.58
537.72	1708.27
538.08	1719.24
538.44	1729.70
538.79	1740.46
539.15	1750.83
539.51	1761.29
539.87	1772.39
540.22	1782.89
540.58	1793.45
540.94	1804.11
541.29	1814.05
541.65	1823.46
542.01	1833.76
542.37	1843.57
542.72	1853.59
543.08	1863.05
543.44	1873.16
543.79	1882.23
544.15	1891.46
544.51	1901.22
544.87	1910.83
545.22	1919.59
545.58	1928.29
545.94	1937.03
546.29	1945.25
546.65	1953.37
547.01	1961.24
547.36	1968.59
547.72	1975.94
548.07	1983.40
548.43	1990.80
548.79	1998.44
549.14	2006.37
549.50	2014.40
549.86	2022.01
550.21	2029.07
550.57	2036.42
550.92	2042.89
551.28	2050.13
551.64	2057.21
551.99	2064.40
552.35	2071.25
552.70	2077.96
553.06	2084.25
553.41	2090.34
553.77	2096.79
554.13	2103.06
554.48	2109.98
554.84	2116.78
555.19	2123.16
555.55	2129.56
555.90	2135.73
556.26	2142.19
556.61	2147.89
556.97	2152.77
557.32	2158.32
557.68	2164.60
558.03	2170.29
558.39	2175.44
558.74	2181.36
559.10	2186.79
559.45	2192.33
559.81	2197.90
560.16	2203.47
560.52	2209.35
560.87	2215.73
561.23	2221.64
561.58	2228.23
561.94	2233.42
562.29	2238.42
562.64	2244.79
563.00	2250.23
563.35	2255.79
563.71	2261.94
564.06	2267.70
564.42	2273.72
564.77	2279.20
565.12	2284.37
565.48	2289.73
565.83	2295.41
566.19	2300.91
566.54	2306.52
566.89	2311.23
567.25	2315.83
567.60	2321.48
567.96	2326.86
568.31	2331.44
568.66	2335.74
569.02	2339.57
569.37	2343.47
569.72	2347.82
570.08	2351.36
570.43	2354.58
570.78	2357.77
571.14	2360.33
571.49	2363.58
571.84	2367.30
572.20	2370.07
572.55	2373.27
572.90	2375.54
573.26	2378.65
573.61	2381.12
573.96	2383.34
574.31	2385.36
574.67	2387.32
575.02	2388.37
575.37	2389.84
575.72	2390.80
576.08	2392.43
576.43	2392.95
576.78	2393.75
577.13	2395.77
577.49	2396.96
577.84	2398.49
578.19	2400.32
578.54	2401.14
578.90	2402.36
579.25	2402.44
579.60	2402.74
579.95	2402.25
580.30	2402.71
580.66	2402.12
581.01	2400.83
581.36	2398.72
581.71	2397.76
582.06	2397.05
582.42	2396.48
582.77	2394.56
583.12	2393.33
583.47	2392.40
583.82	2392.07
584.17	2391.04
584.53	2388.90
584.88	2387.20
585.23	2385.41
585.58	2383.20
585.93	2381.13
586.28	2379.13
586.63	2377.04
586.98	2375.02
587.34	2373.36
587.69	2371.44
588.04	2369.65
588.39	2368.46
588.74	2366.28
589.09	2363.96
589.44	2361.16
589.79	2358.95
590.14	2357.37
590.49	2354.56
590.84	2350.82
591.19	2348.14
591.54	2344.97
591.89	2341.22
592.25	2338.11
592.60	2333.99
592.95	2329.99
593.30	2326.18
593.65	2321.89
594.00	2317.60
594.35	2314.68
594.70	2310.20
595.05	2305.49
595.40	2300.27
595.75	2294.87
596.10	2291.21
596.45	2286.34
596.80	2281.77
597.15	2276.57
597.50	2270.62
597.85	2265.80
598.19	2260.87
598.54	2254.97
598.89	2250.01
599.24	2245.60
599.59	2239.57
599.94	2234.12
600.29	2228.37
600.64	2222.55
600.99	2216.09
601.34	2210.78
601.69	2203.70
602.04	2197.44
602.39	2191.12
602.74	2185.22
603.08	2179.64
603.43	2173.38
603.78	2166.55
604.13	2159.61
604.48	2152.46
604.83	2146.52
605.18	2140.44
605.53	2133.46
605.87	2126.58
606.22	2119.79
606.57	2111.95
606.92	2104.25
607.27	2097.33
607.62	2090.74
607.96	2083.81
608.31	2077.35
608.66	2069.57
609.01	2062.20
609.36	2055.00
609.70	2047.17
610.05	2039.38
610.40	2031.20
610.75	2022.96
611.10	2015.52
611.44	2006.79
611.79	1998.17
612.14	1988.13
612.49	1977.59
612.83	1968.38
613.18	1959.30
613.53	1950.08
613.88	1940.51
614.22	1931.86
614.57	1921.94
614.92	1911.45
615.27	1901.46
615.61	1891.51
615.96	1881.81
616.31	1872.34
616.65	1863.11
617.00	1853.22
617.35	1843.59
617.70	1833.82
618.04	1823.72
618.39	1813.28
618.74	1803.62
619.08	1794.02
619.43	1785.50
619.78	1777.35
620.12	1768.64
620.47	1758.77
620.82	1748.47
621.16	1738.81
621.51	1728.79
621.85	1718.97
622.20	1708.49
622.55	1697.79
622.89	1687.85
623.24	1678.17
623.59	1668.42
623.93	1658.28
624.28	1648.72
624.62	1638.50
624.97	1628.17
625.32	1618.51
625.66	1609.75
626.01	1600.77
626.35	1591.29
626.70	1581.07
627.04	1570.93
627.39	1560.87
627.73	1551.67
628.08	1542.47
628.43	1532.82
628.77	1523.62
629.12	1514.75
629.46	1506.90
629.81	1498.49
630.15	1488.71
630.50	1478.85
630.84	1468.37
631.19	1458.46
631.53	1448.91
631.88	1438.80
632.22	1428.75
632.57	1419.37
632.91	1409.16
633.26	1399.36
633.60	1389.76
633.95	1380.43
634.29	1370.97
634.64	1361.55
634.98	1351.63
635.32	1342.41
635.67	1333.74
636.01	1324.52
636.36	1314.57
636.70	1305.07
637.05	1295.65
637.39	1286.71
637.73	1277.96
638.08	1270.30
638.42	1261.93
638.77	1253.15
639.11	1244.88
639.45	1237.10
639.80	1228.35
640.14	1219.74
640.49	1210.81
640.83	1202.02
641.17	1193.92
641.52	1185.58
641.86	1177.05
642.20	1169.04
642.55	1160.40
642.89	1151.51
643.23	1142.64
643.58	1134.61
643.92	1125.48
644.26	1116.83
644.61	1108.54
644.95	1099.84
645.29	1090.54
645.64	1081.42
645.98	1073.05
646.32	1065.09
646.66	1056.50
647.01	1048.14
647.35	1039.98
647.69	1031.59
648.04	1023.25
648.38	1014.25
648.72	1005.43
649.06	996.89
649.41	988.84
649.75	980.82
650.09	973.02
650.43	965.03
650.78	956.77
651.12	949.10
651.46	941.67
651.80	934.26
652.14	926.88
652.49	919.38
652.83	912.17
653.17	904.46
653.51	896.95
653.85	889.69
654.20	882.43
654.54	874.83
654.88	867.75
655.22	860.60
655.56	853.72
655.90	846.93
656.25	840.31
656.59	833.25
656.93	826.34
657.27	819.22
657.61	812.42
657.95	806.39
658.29	800.63
658.64	794.51
658.98	788.10
659.32	781.61
659.66	775.40
660.00	768.97
660.34	763.01
660.68	756.82
661.02	750.58
661.36	744.76
661.70	738.99
662.05	733.32
662.39	727.86
662.73	722.60
663.07	717.31
663.41	711.80
663.75	706.24
664.09	700.64
664.43	695.29
664.77	689.93
665.11	684.09
665.45	678.08
665.79	672.32
666.13	666.72
666.47	661.31
666.81	655.99
667.15	650.78
667.49	645.56
667.83	640.35
668.17	635.20
668.51	630.05
668.85	625.23
669.19	620.39
669.53	615.44
669.87	610.31
670.21	605.63
670.55	600.89
670.89	596.58
671.23	592.35
671.57	588.02
671.91	583.77
672.25	579.72
672.58	575.69
672.92	571.74
673.26	567.88
673.60	564.05
673.94	560.27
674.28	556.63
674.62	552.92
674.96	549.32
675.30	545.84
675.64	542.32
675.97	538.82
676.31	535.25
676.65	531.70
676.99	528.31
677.33	524.56
677.67	520.94
678.01	517.08
678.34	513.46
678.68	510.03
679.02	506.47
679.36	502.81
679.70	499.21
680.04	495.73
680.37	492.34
680.71	489.10
681.05	485.92
681.39	482.71
681.73	479.62
682.06	476.58
682.40	473.54
682.74	470.34
683.08	467.19
683.42	464.07
683.75	461.17
684.09	458.19
684.43	455.40
684.77	452.58
685.10	449.80
685.44	446.95
685.78	444.06
686.12	441.41
686.45	438.75
686.79	436.18
687.13	433.66
687.46	431.08
687.80	428.48
688.14	425.73
688.48	423.20
688.81	420.57
689.15	418.02
689.49	415.47
689.82	413.01
690.16	410.46
690.50	408.08
690.83	405.67
691.17	403.21
691.51	400.77
691.84	398.60
692.18	396.45
692.52	394.25
692.85	392.16
693.19	390.02
693.52	387.93
693.86	385.73
694.20	383.58
694.53	381.48
694.87	379.30
695.21	377.23
695.54	375.11
695.88	372.97
696.21	370.85
696.55	368.74
696.88	366.73
697.22	364.82
697.56	362.98
697.89	361.11
698.23	359.40
698.56	357.70
698.90	355.92
699.23	354.06
699.57	352.26
699.90	350.47
700.24	348.71
700.58	347.01
700.91	345.40
701.25	343.92
701.58	342.39
701.92	340.85
702.25	339.31
702.59	337.74
702.92	336.30
703.26	334.80
703.59	333.43
703.93	332.25
704.26	330.84
704.60	329.34
704.93	327.89
705.26	326.40
705.60	324.94
705.93	323.46
706.27	322.18
706.60	320.95
706.94	319.76
707.27	318.40
707.61	317.06
707.94	315.74
708.27	314.27
708.61	312.83
708.94	311.50
709.28	310.24
709.61	309.04
709.94	307.86
710.28	306.64
710.61	305.47
710.95	304.04
711.28	302.98
711.61	301.81
711.95	300.73
712.28	299.56
712.61	298.45
712.95	297.46
713.28	296.42
713.61	295.31
713.95	294.15
714.28	293.16
714.61	292.16
714.95	291.15
715.28	290.13
715.61	289.15
715.95	288.24
716.28	287.26
716.61	286.30
716.95	285.35
717.28	284.42
717.61	283.48
717.94	282.64
718.28	281.66
718.61	280.85
718.94	279.96
719.27	279.16
719.61	278.37
719.94	277.48
720.27	276.55
720.60	275.72
720.94	274.99
721.27	274.30
721.60	273.60
721.93	272.92
722.27	272.32
722.60	271.67
722.93	270.99
723.26	270.36
723.59	269.71
723.93	269.12
724.26	268.55
724.59	267.96
724.92	267.39
725.25	266.84
725.59	266.27
725.92	265.80
726.25	265.25
726.58	264.69
726.91	264.11
727.24	263.61
727.57	263.06
727.91	262.47
728.24	261.95
728.57	261.41
728.90	260.93
729.23	260.35
729.56	259.94
729.89	259.43
730.22	258.88
730.55	258.35
730.89	257.81
731.22	257.28
731.55	256.73
731.88	256.22
732.21	255.68
732.54	255.13
732.87	254.59
733.20	254.08
733.53	253.60
733.86	253.21
734.19	252.73
734.52	252.32
734.85	252.02
735.18	251.51
735.51	251.12
735.84	250.69
736.17	250.30
736.50	249.80
736.83	249.65
737.16	249.28
737.49	248.92
737.82	248.53
738.15	248.20
738.48	247.87
738.81	247.50
739.14	247.13
739.47	246.81
739.80	246.48
740.13	246.16
740.46	245.75
740.79	245.34
741.12	244.96
741.45	244.62
741.78	244.20
742.11	243.99
742.44	243.64
742.77	243.34
743.10	242.98
743.43	242.63
743.75	242.08
744.08	242.00
744.41	241.66
744.74	241.32
745.07	240.95
745.40	240.66
745.73	240.37
746.06	240.09
746.39	239.80
746.71	239.44
747.04	239.09
747.37	238.83
747.70	238.58
748.03	238.34
748.36	238.10
748.68	237.79
749.01	237.40
749.34	237.14
749.67	236.84
750.00	236.62
750.33	236.49
750.65	236.23
750.98	235.74
751.31	235.52
751.64	235.32
751.97	235.21
752.29	234.93
752.62	234.63
752.95	234.36
753.28	234.07
753.60	233.84
753.93	233.70
754.26	233.48
754.59	233.20
754.91	232.93
755.24	232.69
755.57	232.46
755.90	232.25
756.22	232.00
756.55	231.73
756.88	231.48
757.20	231.17
757.53	230.92
757.86	230.72
758.19	230.52
758.51	230.29
758.84	229.98
759.17	229.82
759.49	229.66
759.82	229.57
760.15	229.46
760.47	229.29
760.80	229.04
761.13	228.91
761.45	228.75
761.78	228.55
762.11	228.41
762.43	228.20
762.76	228.02
763.08	227.88
763.41	227.75
763.74	227.62
764.06	227.45
764.39	227.30
764.71	227.15
765.04	226.98
765.37	226.86
765.69	226.69
766.02	226.54
766.34	226.40
766.67	226.19
767.00	226.10
767.32	226.08
767.65	226.08
767.97	225.93
768.30	225.86
768.62	225.74
768.95	225.60
769.27	225.52
769.60	225.45
769.92	225.29
770.25	225.15
770.57	224.99
770.90	224.88
771.22	224.74
771.55	224.65
771.87	224.57
772.20	224.48
772.52	224.57
772.85	224.72
773.17	224.61
773.50	224.52
773.82	224.37
774.15	224.16
774.47	223.95
774.80	223.80
775.12	223.71
775.45	223.67
775.77	223.60
776.09	223.53
776.42	223.41
776.74	223.42
777.07	223.34
777.39	223.28
777.72	223.18
778.04	223.13
778.36	223.04
778.69	222.93
779.01	222.84
779.33	222.58
779.66	222.25
779.98	222.16
780.31	222.11
780.63	222.08
780.95	222.05
781.28	221.98
781.60	221.93
781.92	221.84
782.25	221.73
782.57	221.64
782.89	221.55
783.22	221.48
783.54	221.35
783.86	221.31
784.19	221.23
784.51	221.22
784.83	221.14
785.16	221.07
785.48	221.01
785.80	220.92
786.12	220.91
786.45	220.86
786.77	220.82
787.09	220.72
787.42	220.61
787.74	220.53
788.06	220.48
788.38	220.42
788.71	220.34
789.03	220.30
789.35	220.28
789.67	220.22
789.99	220.21
790.32	220.13
790.64	220.07
790.96	220.19
791.28	220.11
791.61	220.05
791.93	220.01
792.25	219.93
792.57	220.10
792.89	220.03
793.21	220.00
793.54	219.95
793.86	219.90
794.18	219.88
794.50	219.82
794.82	219.81
795.14	219.77
795.47	219.77
795.79	219.72
796.11	219.62
796.43	219.54
796.75	219.49
797.07	219.48
797.39	219.45
797.71	219.27
798.04	219.25
798.36	219.24
798.68	219.19
799.00	219.19
799.32	219.02
799.64	219.03
799.96	218.98
800.28	218.97
800.60	218.95
800.92	218.92
801.24	218.89
801.56	218.85
801.89	218.83
802.21	218.81
802.53	218.75
802.85	218.76
803.17	218.83
803.49	218.78
803.81	218.71
804.13	218.68
804.45	218.64
804.77	218.62
805.09	218.56
805.41	218.53
805.73	218.47
806.05	218.40
806.37	218.30
806.69	218.24
807.01	218.19
807.33	218.18
807.65	218.11
807.97	218.15
808.28	218.09
808.60	218.02
808.92	217.95
809.24	218.04
809.56	217.97
809.88	217.87
810.20	217.83
810.52	217.86
810.84	217.78
811.16	217.74
811.48	217.68
811.80	217.76
812.12	217.69
812.43	217.69
812.75	217.63
813.07	217.61
813.39	217.59
813.71	217.55
814.03	217.52
814.35	217.50
814.67	217.41
814.98	217.34
815.30	217.36
815.62	217.33
815.94	217.18
816.26	217.21
816.58	217.18
816.89	217.18
817.21	217.11
817.53	217.13
817.85	217.13
818.17	217.10
818.48	217.01
818.80	217.06
819.12	217.03
819.44	217.01
819.76	216.96
820.07	216.97
820.39	216.95
820.71	216.95
821.03	216.96
821.34	216.93
821.66	216.98
821.98	216.97
822.30	216.92
822.61	217.06
822.93	216.98
823.25	216.94
823.57	216.89
823.88	216.94
824.20	216.91
824.52	216.91
824.83	216.91
825.15	216.85
825.47	216.82
825.79	216.82
826.10	216.80
826.42	216.79
826.74	216.80
827.05	216.78
827.37	216.75
827.69	216.71
828.00	216.68
828.32	216.63
828.64	216.60
828.95	216.70
829.27	216.64
829.58	216.63
829.90	216.65
830.22	216.67
830.53	216.57
830.85	216.57
831.17	216.49
831.48	216.51
831.80	216.50
832.11	216.47
832.43	216.42
832.75	216.41
833.06	216.53
833.38	216.47
833.69	216.48
834.01	216.48
834.32	216.47
834.64	216.46
834.96	216.48
835.27	216.47
835.59	216.38
835.90	216.30
836.22	216.32
836.53	216.28
836.85	216.23
837.16	216.44
837.48	216.45
837.79	216.51
838.11	216.48
838.42	216.50
838.74	216.54
839.05	216.52
839.37	216.54
839.68	216.40
840.00	216.37
840.31	216.36
840.63	216.34
840.94	216.30
841.26	216.28
841.57	216.27
841.88	216.28
842.20	216.27
842.51	216.26
842.83	216.21
843.14	216.35
843.46	216.37
843.77	216.26
844.08	216.22
844.40	216.11
844.71	216.07
845.03	216.05
845.34	216.02
845.65	216.03
845.97	216.03
846.28	216.04
846.60	216.05
846.91	216.02
847.22	215.99
847.54	216.02
847.85	216.04
848.16	216.00
848.48	215.95
848.79	216.03
849.10	216.03
849.42	216.08
849.73	215.93
850.04	215.91
850.36	215.80
850.67	215.85
850.98	215.87
851.30	215.89
851.61	215.85
851.92	215.83
852.23	215.88
852.55	215.87
852.86	215.87
853.17	215.86
853.49	215.88
853.80	215.92
854.11	215.95
854.42	215.97
854.74	215.96
855.05	215.97
855.36	215.86
855.67	215.86
855.99	215.85
856.30	216.06
856.61	216.04
856.92	216.07
857.23	216.05
857.55	216.05
857.86	216.04
858.17	216.08
858.48	216.03
858.79	215.97
859.11	215.99
859.42	216.00
859.73	215.99
860.04	215.98
860.35	215.93
860.66	215.88
860.98	215.84
861.29	215.86
861.60	215.80
861.91	215.81
862.22	215.79
862.53	215.72
862.84	215.45
863.16	215.51
863.47	215.48
863.78	215.45
864.09	215.45
864.40	215.45
864.71	215.46
865.02	215.50
865.33	215.49
865.64	215.43
865.95	215.42
866.27	215.55
866.58	215.50
866.89	215.54
867.20	215.51
867.51	215.49
867.82	215.47
868.13	215.57
868.44	215.54
868.75	215.59
869.06	215.65
869.37	215.69
869.68	215.62
869.99	215.62
870.30	215.64
870.61	215.67
870.92	215.62
871.23	215.58
871.54	215.63
871.85	215.66
872.16	215.70
872.47	215.69
872.78	215.58
873.09	215.60
873.40	215.55
873.71	215.57
874.02	215.58
874.33	215.58
874.64	215.53
874.95	215.55
875.26	215.48
875.56	215.48
875.87	215.47
876.18	215.46
876.49	215.68
876.80	215.65
877.11	215.59
877.42	215.64
877.73	215.66
878.04	215.59
878.35	215.58
878.66	215.57
878.96	215.54
879.27	215.52
879.58	215.53
879.89	215.51
880.20	215.57
880.51	215.55
880.82	215.57
881.12	215.55
881.43	215.56
881.74	215.54
882.05	215.53
882.36	215.54
882.67	215.56
882.97	215.36
883.28	215.33
883.59	215.32
883.90	215.34
884.21	215.38
884.51	215.36
884.82	215.34
885.13	215.38
885.44	215.38
885.74	215.40
886.05	215.38
886.36	215.41
886.67	215.32
886.98	215.42
887.28	215.43
887.59	215.45
887.90	215.45
888.20	215.43
888.51	215.44
888.82	215.40
889.13	215.43
889.43	215.63
889.74	215.64
890.05	215.65
890.35	215.62
890.66	215.55
890.97	215.55
891.28	215.50
891.58	215.48
891.89	215.47
892.20	215.43
892.50	215.41
892.81	215.39
893.12	215.43
893.42	215.32
893.73	215.30
894.04	215.30
894.34	215.31
894.65	215.32
894.95	215.30
895.26	215.34
895.57	215.41
895.87	215.17
896.18	215.15
896.48	215.16
896.79	215.15
897.10	215.19
897.40	215.20
897.71	215.26
898.01	215.22
898.32	215.26
898.63	215.24
898.93	215.24
899.24	215.26
899.54	215.21
899.85	215.22
900.15	215.22
900.46	215.19
900.76	215.21
901.07	215.23
901.38	215.21
901.68	215.21
901.99	215.12
902.29	215.16
902.60	215.16
902.90	215.11
903.21	215.13
903.51	215.13
903.82	215.19
904.12	215.18
904.43	215.24
904.73	215.24
905.03	215.25
905.34	215.46
905.64	215.43
905.95	215.45
906.25	215.45
906.56	215.41
906.86	215.42
907.17	215.39
907.47	215.40
907.77	215.43
908.08	215.39
908.38	215.41
908.69	215.43
908.99	215.47
909.30	215.50
909.60	215.48
909.90	215.49
910.21	215.41
910.51	215.34
910.81	215.27
911.12	215.29
911.42	215.29
911.73	215.08
912.03	215.11
912.33	215.13
912.64	215.12
912.94	215.14
913.24	215.09
913.55	215.08
913.85	215.06
914.15	215.09
914.46	215.09
914.76	215.04
915.06	215.02
915.37	214.99
915.67	214.98
915.97	214.99
916.27	214.93
916.58	214.93
916.88	214.96
917.18	214.99
917.49	215.11
917.79	215.11
918.09	215.11
918.39	215.15
918.70	215.17
919.00	215.18
919.30	215.28
919.60	215.31
919.91	215.26
920.21	215.31
920.51	215.25
920.81	215.24
921.12	215.29
921.42	215.29
921.72	215.32
922.02	215.34
922.32	215.35
922.63	215.38
922.93	215.49
923.23	215.50
923.53	215.48
923.83	215.34
924.13	215.37
924.44	215.38
924.74	215.43
925.04	215.46
925.34	215.46
925.64	215.35
925.94	215.33
926.24	215.46
926.55	215.45
926.85	215.45
927.15	215.45
927.45	215.44
927.75	215.43
928.05	215.43
928.35	215.41
928.65	215.45
928.95	215.45
929.26	215.36
929.56	215.39
929.86	215.42
930.16	215.39
930.46	215.38
930.76	215.39
931.06	215.28
931.36	215.25
931.66	215.27
931.96	215.32
932.26	215.32
932.56	215.25
932.86	215.24
933.16	215.24
933.46	215.25
933.76	215.21
934.06	215.27
934.36	215.36
934.66	215.36
934.96	215.32
935.26	215.32
935.56	215.37
935.86	215.32
936.16	215.28
936.46	215.32
936.76	215.33
937.06	215.28
937.36	215.29
937.66	215.27
937.96	215.25
938.26	215.19
938.56	215.19
938.86	215.20
939.16	215.22
939.46	215.25
939.76	215.27
940.06	215.32
940.35	215.26
940.65	215.12
940.95	215.14
941.25	215.08
941.55	215.08
941.85	215.06
942.15	215.11
942.45	215.17
942.75	215.15
943.04	215.13
943.34	215.18
943.64	215.19
943.94	215.17
944.24	215.19
944.54	215.19
944.84	215.23
945.13	215.21
945.43	215.17
945.73	215.16
946.03	215.13
946.33	215.09
946.62	215.10
946.92	215.12
947.22	215.15
947.52	215.22
947.82	215.19
948.11	215.17
948.41	215.16
948.71	215.07
949.01	215.07
949.31	215.05
949.60	215.02
949.90	215.02
950.20	215.03
950.50	215.02
950.79	215.04
951.09	215.04
951.39	214.99
951.69	215.00
951.98	215.05
952.28	215.05
952.58	215.05
952.87	215.02
953.17	215.04
953.47	214.98
953.76	214.95
954.06	214.90
954.36	214.90
954.66	214.85
954.95	214.93
955.25	214.92
955.55	214.94
955.84	214.94
956.14	214.99
956.44	214.98
956.73	214.94
957.03	214.92
957.32	214.94
957.62	214.94
957.92	214.94
958.21	214.89
958.51	215.12
958.81	215.13
959.10	215.17
959.40	215.21
959.69	215.24
959.99	215.26
960.29	215.31
960.58	215.27
960.88	215.37
961.17	215.35
961.47	215.40
961.76	215.37
962.06	215.39
962.36	215.33
962.65	215.32
962.95	215.36
963.24	215.33
963.54	215.32
963.83	215.34
964.13	215.34
964.42	215.28
964.72	215.10
965.01	215.09
965.31	215.06
965.60	215.02
965.90	215.15
966.19	215.12
966.49	215.14
966.78	215.15
967.08	215.12
967.37	215.12
967.67	215.08
967.96	215.12
968.26	215.11
968.55	215.17
968.85	215.19
969.14	215.15
969.43	215.15
969.73	215.12
970.02	215.11
970.32	215.14
970.61	215.17
970.91	215.13
971.20	215.13
971.49	215.11
971.79	215.14
972.08	214.98
972.38	214.99
972.67	214.95
972.96	214.99
973.26	214.96
973.55	215.02
973.85	215.02
974.14	215.00
974.43	215.04
974.73	214.96
975.02	214.97
975.31	214.98
975.61	214.98
975.90	214.96
976.19	214.93
976.49	214.89
976.78	214.91
977.07	214.91
977.37	214.89
977.66	214.97
977.95	214.93
978.24	214.95
978.54	214.99
978.83	214.96
979.12	214.93
979.42	214.91
979.71	214.86
980.00	214.84
980.29	214.83
980.59	214.80
980.88	214.86
981.17	214.81
981.46	214.80
981.76	214.83
982.05	214.90
982.34	214.93
982.63	214.93
982.93	214.95
983.22	214.98
983.51	215.02
983.80	215.02
984.09	215.06
984.39	215.01
984.68	214.98
984.97	215.02
985.26	215.01
985.55	215.05
985.85	215.00
986.14	215.03
986.43	215.04
986.72	215.04
987.01	214.98
987.30	214.98
987.59	215.02
987.89	215.01
988.18	214.94
988.47	214.91
988.76	214.92
989.05	214.88
989.34	214.85
989.63	214.86
989.92	214.81
990.22	214.74
990.51	214.74
990.80	214.70
991.09	214.72
991.38	214.75
991.67	214.72
991.96	214.70
992.25	214.73
992.54	214.72
992.83	214.72
993.12	214.71
993.41	214.73
993.70	214.77
993.99	214.79
994.28	214.83
994.58	214.87
994.87	214.88
995.16	214.92
995.45	214.88
995.74	214.86
996.03	214.91
996.32	214.98
996.61	215.05
996.90	215.06
997.19	215.06
997.48	215.04
997.77	215.01
998.06	215.04
998.34	215.01
998.63	215.00
998.92	214.99
999.21	215.05
999.50	215.05
999.79	214.96
1000.08	214.99
1000.37	215.00
1000.66	215.00
1000.95	215.02
1001.24	215.02
1001.53	215.08
1001.82	215.06
1002.11	215.02
1002.40	215.00
1002.68	215.06
1002.97	215.21
1003.26	215.17
1003.55	215.14
1003.84	215.18
1004.13	215.31
1004.42	215.27
1004.71	215.26
1004.99	215.26
1005.28	215.29
1005.57	215.32
1005.86	215.31
1006.15	215.26
1006.44	215.20
1006.72	215.22
1007.01	215.19
1007.30	215.16
1007.59	215.12
1007.88	215.09
1008.17	215.09
1008.45	215.08
1008.74	214.99
1009.03	214.91
1009.32	214.92
1009.60	214.95
1009.89	214.92
1010.18	214.79
1010.47	214.80
1010.76	214.80
1011.04	214.82
1011.33	214.81
1011.62	214.80
1011.91	214.80
1012.19	214.84
1012.48	214.85
1012.77	214.83
1013.05	214.92
1013.34	214.94
1013.63	214.92
1013.92	214.96
1014.20	214.96
1014.49	214.95
1014.78	214.96
1015.06	214.88
1015.35	214.88
1015.64	214.89
1015.92	214.91
1016.21	214.93
1016.50	214.94
1016.78	214.95
1017.07	214.95
1017.36	214.93
1017.64	214.90
1017.93	214.94
1018.22	214.90
1018.50	214.89
1018.79	214.90
1019.08	214.77
1019.36	214.76
1019.65	214.74
1019.93	214.75
1020.22	214.79
1020.51	214.90
1020.79	214.87
1021.08	214.39
1021.36	214.07
1021.65	215.14
1021.94	214.25
1022.22	214.50
1022.51	214.30
1022.79	214.83
1023.08	215.65
1023.36	217.34
1023.65	214.08
>>>>>End Processed Spectral Data<<<<<
