SpectraSuite Data File
++++++++++++++++++++++++++++++++++++
Date: Tue Jan 29 16:29:01 EST 2013
User: group
Dark Spectrum Present: No
Reference Spectrum Present: No
Number of Sampled Component Spectra: 1
Spectrometers: USB2E7196
Integration Time (usec): 65000 (USB2E7196)
Spectra Averaged: 100 (USB2E7196)
Boxcar Smoothing: 10 (USB2E7196)
Correct for Electrical Dark: No (USB2E7196)
Strobe/Lamp Enabled: No (USB2E7196)
Correct for Detector Non-linearity: No (USB2E7196)
Correct for Stray Light: No (USB2E7196)
Number of Pixels in Processed Spectrum: 2048
>>>>>Begin Processed Spectral Data<<<<<
339.09	0.00
339.48	202.42
339.86	203.77
340.24	205.08
340.63	206.54
341.01	210.76
341.39	209.66
341.78	211.01
342.16	211.91
342.54	212.10
342.93	201.39
343.31	211.56
343.69	212.09
344.07	212.53
344.46	212.97
344.84	213.36
345.22	213.52
345.60	213.76
345.99	213.95
346.37	214.11
346.75	214.22
347.13	214.28
347.52	214.31
347.90	214.43
348.28	214.48
348.66	214.57
349.05	214.52
349.43	214.60
349.81	214.64
350.19	214.70
350.57	214.76
350.96	214.83
351.34	214.92
351.72	215.00
352.10	215.11
352.48	215.17
352.87	215.23
353.25	215.30
353.63	215.33
354.01	215.37
354.39	215.41
354.77	215.46
355.15	215.59
355.54	215.64
355.92	215.66
356.30	215.72
356.68	215.92
357.06	216.02
357.44	216.04
357.82	216.13
358.20	216.21
358.58	216.27
358.97	216.33
359.35	216.44
359.73	216.53
360.11	216.60
360.49	216.66
360.87	216.68
361.25	216.77
361.63	216.90
362.01	216.97
362.39	217.00
362.77	217.10
363.15	217.11
363.53	217.17
363.91	217.22
364.29	217.25
364.67	217.07
365.05	217.10
365.43	217.16
365.81	217.23
366.19	217.33
366.57	217.41
366.95	217.41
367.33	217.35
367.71	217.36
368.09	217.41
368.47	217.42
368.85	217.40
369.23	217.42
369.61	217.38
369.99	217.44
370.37	217.45
370.75	217.51
371.13	217.47
371.51	217.44
371.89	217.40
372.27	217.40
372.65	217.39
373.03	217.34
373.41	217.31
373.78	217.25
374.16	217.13
374.54	217.05
374.92	217.01
375.30	216.98
375.68	216.92
376.06	216.85
376.44	216.77
376.82	216.78
377.19	216.73
377.57	216.66
377.95	216.55
378.33	216.52
378.71	216.35
379.09	216.35
379.47	216.27
379.84	216.23
380.22	216.14
380.60	216.07
380.98	216.01
381.36	215.95
381.73	215.88
382.11	215.88
382.49	215.85
382.87	215.81
383.25	215.79
383.62	216.01
384.00	215.97
384.38	215.96
384.76	216.00
385.13	216.03
385.51	216.00
385.89	215.91
386.27	215.88
386.64	215.89
387.02	215.84
387.40	215.85
387.78	215.82
388.15	215.81
388.53	215.79
388.91	215.80
389.29	215.77
389.66	215.79
390.04	215.74
390.42	215.74
390.79	215.71
391.17	215.70
391.55	215.45
391.92	215.42
392.30	215.44
392.68	215.31
393.05	215.28
393.43	215.29
393.81	215.35
394.18	215.30
394.56	215.30
394.94	215.37
395.31	215.35
395.69	215.43
396.06	215.52
396.44	215.57
396.82	215.55
397.19	215.66
397.57	215.65
397.95	215.72
398.32	215.74
398.70	215.79
399.07	215.88
399.45	215.91
399.82	215.97
400.20	216.00
400.58	216.11
400.95	216.10
401.33	216.21
401.70	216.39
402.08	216.52
402.45	216.61
402.83	216.72
403.20	216.85
403.58	216.92
403.95	217.06
404.33	217.18
404.71	217.38
405.08	217.66
405.46	217.84
405.83	218.01
406.21	218.19
406.58	218.42
406.96	218.62
407.33	218.88
407.70	219.19
408.08	219.66
408.45	220.00
408.83	220.39
409.20	220.76
409.58	221.02
409.95	221.48
410.33	221.97
410.70	222.41
411.08	222.93
411.45	223.49
411.82	224.05
412.20	224.78
412.57	225.56
412.95	226.07
413.32	226.90
413.69	227.72
414.07	228.64
414.44	229.62
414.82	230.64
415.19	231.83
415.56	233.02
415.94	234.19
416.31	235.59
416.68	237.00
417.06	238.59
417.43	240.15
417.81	241.82
418.18	243.59
418.55	245.51
418.93	247.54
419.30	249.64
419.67	251.86
420.04	254.12
420.42	256.52
420.79	259.40
421.16	262.16
421.54	265.09
421.91	268.08
422.28	271.19
422.66	274.49
423.03	277.72
423.40	281.06
423.77	284.69
424.15	288.37
424.52	292.18
424.89	296.35
425.26	300.41
425.64	304.33
426.01	308.62
426.38	313.13
426.75	317.67
427.13	322.39
427.50	327.34
427.87	332.52
428.24	337.70
428.61	342.66
428.99	348.15
429.36	354.12
429.73	360.01
430.10	365.86
430.47	371.88
430.85	378.20
431.22	384.93
431.59	391.97
431.96	398.79
432.33	406.32
432.70	413.56
433.08	422.07
433.45	430.10
433.82	438.09
434.19	446.86
434.56	455.55
434.93	463.87
435.30	472.14
435.68	481.30
436.05	490.30
436.42	499.17
436.79	507.37
437.16	516.10
437.53	525.35
437.90	534.49
438.27	543.42
438.64	552.59
439.01	561.07
439.38	568.66
439.75	575.96
440.13	584.33
440.50	592.22
440.87	598.69
441.24	605.35
441.61	612.66
441.98	618.07
442.35	624.35
442.72	630.67
443.09	636.75
443.46	640.48
443.83	642.92
444.20	645.16
444.57	648.28
444.94	649.77
445.31	651.22
445.68	652.56
446.05	653.17
446.42	652.39
446.79	651.44
447.16	650.34
447.53	649.54
447.90	646.16
448.27	642.90
448.64	638.23
449.01	634.91
449.37	629.03
449.74	623.43
450.11	616.55
450.48	609.26
450.85	601.83
451.22	595.31
451.59	589.22
451.96	583.35
452.33	575.47
452.70	568.32
453.07	559.87
453.43	551.28
453.80	542.97
454.17	534.99
454.54	527.47
454.91	519.26
455.28	511.32
455.65	504.02
456.02	496.49
456.38	490.19
456.75	482.26
457.12	475.72
457.49	469.17
457.86	463.02
458.23	457.57
458.59	451.61
458.96	445.63
459.33	440.29
459.70	434.96
460.07	430.73
460.43	425.90
460.80	421.29
461.17	417.36
461.54	413.20
461.91	409.15
462.27	405.02
462.64	401.64
463.01	397.84
463.38	394.12
463.74	390.42
464.11	387.19
464.48	384.39
464.85	381.32
465.21	378.88
465.58	376.26
465.95	373.16
466.32	370.57
466.68	367.94
467.05	365.41
467.42	362.84
467.78	360.15
468.15	357.60
468.52	355.75
468.88	353.24
469.25	351.05
469.62	349.30
469.98	347.36
470.35	345.55
470.72	343.88
471.08	342.09
471.45	340.62
471.82	339.05
472.18	337.42
472.55	336.17
472.92	334.79
473.28	333.57
473.65	332.43
474.02	331.31
474.38	330.43
474.75	329.66
475.11	328.87
475.48	328.29
475.85	327.83
476.21	327.29
476.58	326.96
476.94	326.71
477.31	326.40
477.67	326.17
478.04	326.01
478.41	325.98
478.77	326.10
479.14	326.04
479.50	326.19
479.87	326.46
480.23	326.79
480.60	327.07
480.96	327.35
481.33	327.91
481.69	328.44
482.06	328.96
482.42	329.48
482.79	330.08
483.15	330.85
483.52	331.79
483.88	332.66
484.25	333.59
484.61	334.62
484.98	335.69
485.34	336.97
485.71	338.39
486.07	339.82
486.44	341.20
486.80	342.84
487.17	344.50
487.53	346.33
487.90	348.16
488.26	350.18
488.62	352.35
488.99	354.41
489.35	356.61
489.72	359.05
490.08	361.53
490.44	364.12
490.81	366.86
491.17	369.51
491.54	372.59
491.90	375.59
492.26	378.83
492.63	382.24
492.99	385.72
493.36	389.37
493.72	393.25
494.08	397.24
494.45	401.49
494.81	405.85
495.17	410.32
495.54	415.12
495.90	420.02
496.26	424.94
496.63	430.10
496.99	435.54
497.35	441.04
497.72	446.91
498.08	452.85
498.44	458.96
498.80	465.48
499.17	471.95
499.53	478.72
499.89	485.68
500.26	492.65
500.62	499.80
500.98	507.26
501.34	514.78
501.71	522.59
502.07	530.43
502.43	538.53
502.79	546.75
503.16	555.15
503.52	563.70
503.88	572.45
504.24	581.52
504.60	590.66
504.97	600.06
505.33	609.36
505.69	619.24
506.05	629.18
506.41	639.12
506.78	649.21
507.14	659.58
507.50	670.11
507.86	680.88
508.22	691.72
508.59	702.45
508.95	713.64
509.31	724.93
509.67	736.41
510.03	747.97
510.39	759.74
510.75	771.64
511.12	783.62
511.48	795.83
511.84	808.07
512.20	820.49
512.56	833.15
512.92	846.12
513.28	858.90
513.64	871.77
514.00	884.63
514.37	897.80
514.73	910.87
515.09	924.02
515.45	937.01
515.81	950.11
516.17	963.59
516.53	976.86
516.89	990.02
517.25	1003.29
517.61	1016.83
517.97	1030.32
518.33	1043.61
518.69	1057.32
519.05	1071.04
519.41	1084.99
519.77	1098.88
520.13	1112.32
520.49	1125.58
520.85	1139.13
521.21	1152.56
521.57	1166.38
521.93	1179.50
522.29	1193.47
522.65	1207.12
523.01	1220.83
523.37	1234.20
523.73	1247.58
524.09	1260.82
524.45	1274.49
524.81	1288.26
525.17	1301.83
525.53	1315.19
525.89	1328.60
526.25	1341.92
526.61	1354.99
526.97	1368.13
527.33	1381.23
527.68	1394.79
528.04	1408.43
528.40	1421.52
528.76	1434.92
529.12	1447.94
529.48	1461.43
529.84	1473.72
530.20	1486.61
530.56	1499.42
530.91	1512.85
531.27	1525.85
531.63	1538.81
531.99	1551.57
532.35	1563.77
532.71	1576.06
533.07	1589.17
533.42	1601.70
533.78	1613.88
534.14	1626.10
534.50	1637.49
534.86	1649.11
535.21	1660.12
535.57	1671.80
535.93	1683.21
536.29	1694.42
536.65	1705.97
537.00	1716.93
537.36	1728.42
537.72	1739.48
538.08	1751.00
538.44	1761.94
538.79	1773.15
539.15	1784.17
539.51	1795.16
539.87	1806.70
540.22	1817.81
540.58	1828.83
540.94	1839.68
541.29	1849.98
541.65	1859.76
542.01	1870.36
542.37	1880.63
542.72	1890.87
543.08	1900.54
543.44	1911.23
543.79	1920.65
544.15	1930.23
544.51	1940.37
544.87	1950.36
545.22	1959.74
545.58	1968.67
545.94	1977.64
546.29	1986.23
546.65	1994.59
547.01	2002.77
547.36	2010.50
547.72	2018.41
548.07	2025.88
548.43	2033.63
548.79	2041.60
549.14	2049.77
549.50	2058.22
549.86	2066.26
550.21	2073.76
550.57	2081.59
550.92	2088.35
551.28	2095.87
551.64	2103.10
551.99	2110.68
552.35	2117.96
552.70	2124.94
553.06	2131.86
553.41	2138.22
553.77	2144.84
554.13	2151.40
554.48	2158.64
554.84	2165.74
555.19	2172.22
555.55	2178.83
555.90	2185.15
556.26	2192.10
556.61	2198.34
556.97	2203.29
557.32	2209.02
557.68	2215.48
558.03	2221.27
558.39	2226.86
558.74	2233.08
559.10	2238.70
559.45	2244.24
559.81	2249.76
560.16	2255.26
560.52	2260.91
560.87	2267.37
561.23	2273.30
561.58	2279.99
561.94	2285.24
562.29	2290.07
562.64	2296.31
563.00	2301.97
563.35	2307.72
563.71	2313.57
564.06	2319.21
564.42	2325.13
564.77	2330.28
565.12	2335.81
565.48	2341.04
565.83	2346.44
566.19	2351.90
566.54	2357.34
566.89	2362.01
567.25	2366.60
567.60	2372.40
567.96	2377.65
568.31	2382.28
568.66	2386.75
569.02	2390.66
569.37	2394.26
569.72	2398.74
570.08	2402.14
570.43	2405.27
570.78	2408.37
571.14	2410.84
571.49	2414.05
571.84	2417.63
572.20	2420.58
572.55	2423.40
572.90	2425.73
573.26	2428.54
573.61	2430.95
573.96	2433.25
574.31	2435.34
574.67	2437.36
575.02	2437.99
575.37	2439.40
575.72	2440.10
576.08	2441.36
576.43	2441.51
576.78	2441.97
577.13	2443.33
577.49	2444.69
577.84	2445.71
578.19	2447.02
578.54	2447.42
578.90	2448.12
579.25	2448.04
579.60	2447.83
579.95	2447.02
580.30	2447.06
580.66	2446.30
581.01	2444.57
581.36	2442.07
581.71	2440.60
582.06	2439.41
582.42	2438.70
582.77	2436.50
583.12	2434.82
583.47	2433.44
583.82	2432.79
584.17	2431.59
584.53	2429.61
584.88	2427.26
585.23	2425.48
585.58	2423.23
585.93	2421.35
586.28	2419.14
586.63	2416.61
586.98	2414.52
587.34	2412.53
587.69	2409.96
588.04	2407.91
588.39	2406.48
588.74	2404.12
589.09	2401.42
589.44	2398.16
589.79	2395.64
590.14	2393.64
590.49	2390.86
590.84	2386.98
591.19	2383.82
591.54	2380.56
591.89	2376.49
592.25	2373.31
592.60	2368.97
592.95	2364.77
593.30	2360.47
593.65	2356.05
594.00	2351.62
594.35	2348.45
594.70	2343.68
595.05	2339.24
595.40	2333.84
595.75	2328.06
596.10	2324.33
596.45	2319.46
596.80	2314.89
597.15	2309.47
597.50	2303.51
597.85	2298.50
598.19	2293.29
598.54	2287.39
598.89	2282.08
599.24	2277.41
599.59	2271.10
599.94	2265.29
600.29	2259.25
600.64	2253.25
600.99	2246.30
601.34	2240.81
601.69	2233.94
602.04	2227.45
602.39	2220.60
602.74	2214.36
603.08	2208.77
603.43	2202.27
603.78	2195.22
604.13	2188.12
604.48	2180.89
604.83	2174.72
605.18	2168.41
605.53	2161.51
605.87	2154.61
606.22	2147.83
606.57	2139.89
606.92	2131.90
607.27	2124.83
607.62	2118.19
607.96	2111.30
608.31	2104.88
608.66	2097.05
609.01	2089.31
609.36	2082.32
609.70	2074.70
610.05	2066.88
610.40	2058.47
610.75	2049.93
611.10	2042.28
611.44	2033.32
611.79	2024.58
612.14	2014.56
612.49	2003.91
612.83	1994.44
613.18	1984.93
613.53	1975.48
613.88	1965.85
614.22	1957.26
614.57	1947.38
614.92	1936.72
615.27	1926.35
615.61	1916.20
615.96	1906.43
616.31	1896.76
616.65	1887.19
617.00	1877.28
617.35	1867.61
617.70	1857.90
618.04	1847.89
618.39	1837.62
618.74	1827.90
619.08	1818.23
619.43	1809.52
619.78	1801.13
620.12	1792.39
620.47	1782.77
620.82	1772.45
621.16	1762.64
621.51	1752.65
621.85	1742.62
622.20	1732.15
622.55	1721.67
622.89	1711.67
623.24	1702.06
623.59	1692.18
623.93	1681.96
624.28	1672.16
624.62	1661.95
624.97	1651.54
625.32	1641.67
625.66	1632.76
626.01	1624.01
626.35	1614.56
626.70	1604.25
627.04	1594.07
627.39	1583.94
627.73	1574.65
628.08	1565.66
628.43	1555.91
628.77	1546.59
629.12	1537.76
629.46	1529.85
629.81	1521.28
630.15	1511.73
630.50	1501.67
630.84	1491.11
631.19	1481.27
631.53	1471.95
631.88	1461.65
632.22	1451.56
632.57	1442.15
632.91	1431.94
633.26	1421.95
633.60	1412.28
633.95	1403.01
634.29	1393.46
634.64	1384.05
634.98	1373.97
635.32	1364.58
635.67	1356.05
636.01	1346.67
636.36	1336.91
636.70	1327.27
637.05	1317.90
637.39	1308.83
637.73	1300.17
638.08	1292.64
638.42	1284.44
638.77	1275.50
639.11	1267.23
639.45	1259.42
639.80	1250.79
640.14	1241.97
640.49	1233.07
640.83	1224.18
641.17	1215.96
641.52	1207.82
641.86	1199.14
642.20	1191.27
642.55	1182.51
642.89	1173.59
643.23	1164.91
643.58	1156.70
643.92	1147.64
644.26	1138.77
644.61	1130.39
644.95	1121.50
645.29	1112.16
645.64	1102.75
645.98	1094.21
646.32	1086.26
646.66	1077.59
647.01	1069.17
647.35	1061.03
647.69	1052.66
648.04	1044.36
648.38	1035.41
648.72	1026.54
649.06	1018.04
649.41	1009.70
649.75	1001.71
650.09	993.83
650.43	985.74
650.78	977.33
651.12	969.61
651.46	962.21
651.80	954.86
652.14	947.48
652.49	939.86
652.83	932.56
653.17	924.77
653.51	917.05
653.85	909.75
654.20	902.47
654.54	894.92
654.88	887.62
655.22	880.24
655.56	873.18
655.90	866.24
656.25	859.53
656.59	852.56
656.93	845.56
657.27	838.30
657.61	831.22
657.95	825.01
658.29	818.94
658.64	812.72
658.98	806.21
659.32	799.61
659.66	793.34
660.00	786.93
660.34	780.87
660.68	774.72
661.02	768.35
661.36	762.30
661.70	756.41
662.05	750.65
662.39	745.22
662.73	739.79
663.07	734.49
663.41	728.81
663.75	723.09
664.09	717.28
664.43	711.79
664.77	706.40
665.11	700.56
665.45	694.61
665.79	688.76
666.13	682.97
666.47	677.39
666.81	671.90
667.15	666.40
667.49	661.12
667.83	655.80
668.17	650.52
668.51	645.33
668.85	640.35
669.19	635.39
669.53	630.27
669.87	625.12
670.21	620.30
670.55	615.53
670.89	611.00
671.23	606.61
671.57	602.18
671.91	597.85
672.25	593.64
672.58	589.45
672.92	585.32
673.26	581.30
673.60	577.38
673.94	573.45
674.28	569.78
674.62	565.96
674.96	562.15
675.30	558.59
675.64	554.89
675.97	551.18
676.31	547.55
676.65	543.80
676.99	540.38
677.33	536.44
677.67	532.78
678.01	528.88
678.34	525.19
678.68	521.61
679.02	517.98
679.36	514.23
679.70	510.57
680.04	506.95
680.37	503.44
680.71	500.13
681.05	496.95
681.39	493.60
681.73	490.39
682.06	487.29
682.40	484.16
682.74	480.90
683.08	477.68
683.42	474.41
683.75	471.41
684.09	468.28
684.43	465.42
684.77	462.41
685.10	459.56
685.44	456.65
685.78	453.73
686.12	450.90
686.45	448.18
686.79	445.46
687.13	442.91
687.46	440.28
687.80	437.50
688.14	434.58
688.48	431.95
688.81	429.24
689.15	426.67
689.49	424.03
689.82	421.41
690.16	418.80
690.50	416.32
690.83	413.80
691.17	411.18
691.51	408.62
691.84	406.33
692.18	404.10
692.52	401.87
692.85	399.66
693.19	397.45
693.52	395.20
693.86	392.96
694.20	390.72
694.53	388.56
694.87	386.38
695.21	384.23
695.54	382.04
695.88	379.85
696.21	377.56
696.55	375.33
696.88	373.26
697.22	371.27
697.56	369.34
697.89	367.40
698.23	365.64
698.56	363.83
698.90	362.03
699.23	360.10
699.57	358.18
699.90	356.28
700.24	354.46
700.58	352.70
700.91	350.98
701.25	349.39
701.58	347.76
701.92	346.09
702.25	344.51
702.59	342.92
702.92	341.37
703.26	339.81
703.59	338.33
703.93	337.07
704.26	335.59
704.60	334.08
704.93	332.62
705.26	331.10
705.60	329.64
705.93	328.08
706.27	326.71
706.60	325.45
706.94	324.22
707.27	322.82
707.61	321.44
707.94	320.05
708.27	318.52
708.61	317.04
708.94	315.69
709.28	314.32
709.61	313.03
709.94	311.82
710.28	310.60
710.61	309.38
710.95	307.92
711.28	306.82
711.61	305.62
711.95	304.41
712.28	303.19
712.61	302.01
712.95	300.97
713.28	299.91
713.61	298.73
713.95	297.53
714.28	296.49
714.61	295.45
714.95	294.43
715.28	293.42
715.61	292.38
715.95	291.39
716.28	290.41
716.61	289.40
716.95	288.38
717.28	287.42
717.61	286.46
717.94	285.55
718.28	284.49
718.61	283.58
718.94	282.70
719.27	281.86
719.61	280.98
719.94	280.07
720.27	279.09
720.60	278.19
720.94	277.40
721.27	276.61
721.60	275.90
721.93	275.17
722.27	274.53
722.60	273.86
722.93	273.14
723.26	272.50
723.59	271.80
723.93	271.17
724.26	270.58
724.59	269.95
724.92	269.36
725.25	268.83
725.59	268.27
725.92	267.74
726.25	267.16
726.58	266.60
726.91	266.00
727.24	265.45
727.57	264.92
727.91	264.30
728.24	263.77
728.57	263.16
728.90	262.61
729.23	261.97
729.56	261.52
729.89	261.01
730.22	260.45
730.55	259.92
730.89	259.37
731.22	258.76
731.55	258.21
731.88	257.67
732.21	257.09
732.54	256.55
732.87	255.98
733.20	255.50
733.53	255.04
733.86	254.63
734.19	254.14
734.52	253.73
734.85	253.42
735.18	252.94
735.51	252.55
735.84	252.11
736.17	251.71
736.50	251.18
736.83	250.99
737.16	250.61
737.49	250.18
737.82	249.75
738.15	249.37
738.48	248.99
738.81	248.57
739.14	248.16
739.47	247.75
739.80	247.38
740.13	247.00
740.46	246.59
740.79	246.13
741.12	245.74
741.45	245.36
741.78	244.90
742.11	244.58
742.44	244.17
742.77	243.91
743.10	243.54
743.43	243.21
743.75	242.64
744.08	242.54
744.41	242.21
744.74	241.88
745.07	241.52
745.40	241.19
745.73	240.98
746.06	240.68
746.39	240.38
746.71	240.04
747.04	239.67
747.37	239.32
747.70	239.08
748.03	238.82
748.36	238.51
748.68	238.24
749.01	237.89
749.34	237.61
749.67	237.27
750.00	237.00
750.33	236.87
750.65	236.59
750.98	236.08
751.31	235.82
751.64	235.59
751.97	235.47
752.29	235.20
752.62	234.82
752.95	234.53
753.28	234.26
753.60	234.02
753.93	233.88
754.26	233.67
754.59	233.37
754.91	233.11
755.24	232.88
755.57	232.61
755.90	232.39
756.22	232.15
756.55	231.90
756.88	231.65
757.20	231.29
757.53	231.05
757.86	230.83
758.19	230.66
758.51	230.44
758.84	230.13
759.17	229.94
759.49	229.80
759.82	229.72
760.15	229.57
760.47	229.40
760.80	229.14
761.13	228.95
761.45	228.79
761.78	228.60
762.11	228.42
762.43	228.23
762.76	228.07
763.08	227.92
763.41	227.76
763.74	227.62
764.06	227.45
764.39	227.26
764.71	227.09
765.04	226.91
765.37	226.74
765.69	226.62
766.02	226.50
766.34	226.34
766.67	226.13
767.00	226.01
767.32	225.96
767.65	225.97
767.97	225.83
768.30	225.69
768.62	225.56
768.95	225.41
769.27	225.28
769.60	225.20
769.92	225.04
770.25	224.87
770.57	224.71
770.90	224.58
771.22	224.48
771.55	224.40
771.87	224.28
772.20	224.18
772.52	224.20
772.85	224.33
773.17	224.23
773.50	224.09
773.82	223.95
774.15	223.78
774.47	223.54
774.80	223.44
775.12	223.37
775.45	223.28
775.77	223.22
776.09	223.16
776.42	223.08
776.74	223.04
777.07	222.97
777.39	222.89
777.72	222.77
778.04	222.71
778.36	222.61
778.69	222.52
779.01	222.47
779.33	222.21
779.66	221.89
779.98	221.77
780.31	221.70
780.63	221.69
780.95	221.61
781.28	221.54
781.60	221.48
781.92	221.40
782.25	221.31
782.57	221.25
782.89	221.15
783.22	221.04
783.54	220.95
783.86	220.91
784.19	220.86
784.51	220.88
784.83	220.80
785.16	220.75
785.48	220.71
785.80	220.62
786.12	220.58
786.45	220.53
786.77	220.50
787.09	220.44
787.42	220.32
787.74	220.25
788.06	220.18
788.38	220.09
788.71	219.98
789.03	219.94
789.35	219.92
789.67	219.83
789.99	219.79
790.32	219.72
790.64	219.69
790.96	219.79
791.28	219.65
791.61	219.57
791.93	219.48
792.25	219.43
792.57	219.54
792.89	219.47
793.21	219.40
793.54	219.33
793.86	219.28
794.18	219.26
794.50	219.20
794.82	219.15
795.14	219.11
795.47	219.12
795.79	219.08
796.11	218.94
796.43	218.92
796.75	218.86
797.07	218.79
797.39	218.73
797.71	218.54
798.04	218.50
798.36	218.48
798.68	218.47
799.00	218.42
799.32	218.25
799.64	218.26
799.96	218.25
800.28	218.26
800.60	218.18
800.92	218.14
801.24	218.11
801.56	218.10
801.89	218.04
802.21	217.99
802.53	217.91
802.85	217.93
803.17	217.98
803.49	217.92
803.81	217.89
804.13	217.84
804.45	217.81
804.77	217.81
805.09	217.81
805.41	217.75
805.73	217.70
806.05	217.61
806.37	217.60
806.69	217.52
807.01	217.46
807.33	217.48
807.65	217.40
807.97	217.47
808.28	217.40
808.60	217.40
808.92	217.36
809.24	217.48
809.56	217.40
809.88	217.28
810.20	217.26
810.52	217.28
810.84	217.22
811.16	217.15
811.48	217.12
811.80	217.14
812.12	217.12
812.43	217.10
812.75	217.11
813.07	217.01
813.39	217.01
813.71	216.96
814.03	216.89
814.35	216.83
814.67	216.71
814.98	216.72
815.30	216.66
815.62	216.63
815.94	216.44
816.26	216.46
816.58	216.40
816.89	216.40
817.21	216.33
817.53	216.34
817.85	216.35
818.17	216.30
818.48	216.22
818.80	216.24
819.12	216.21
819.44	216.14
819.76	216.11
820.07	216.07
820.39	216.06
820.71	216.09
821.03	216.08
821.34	216.07
821.66	216.05
821.98	216.06
822.30	216.06
822.61	216.19
822.93	216.18
823.25	216.20
823.57	216.17
823.88	216.20
824.20	216.18
824.52	216.19
824.83	216.18
825.15	216.13
825.47	216.12
825.79	216.13
826.10	216.12
826.42	216.12
826.74	216.17
827.05	216.12
827.37	216.09
827.69	216.08
828.00	216.07
828.32	216.05
828.64	216.02
828.95	216.13
829.27	216.01
829.58	215.99
829.90	215.97
830.22	215.94
830.53	215.85
830.85	215.81
831.17	215.75
831.48	215.74
831.80	215.74
832.11	215.68
832.43	215.62
832.75	215.62
833.06	215.73
833.38	215.65
833.69	215.65
834.01	215.62
834.32	215.66
834.64	215.63
834.96	215.61
835.27	215.60
835.59	215.50
835.90	215.46
836.22	215.42
836.53	215.41
836.85	215.39
837.16	215.60
837.48	215.59
837.79	215.66
838.11	215.67
838.42	215.68
838.74	215.72
839.05	215.71
839.37	215.70
839.68	215.57
840.00	215.55
840.31	215.59
840.63	215.59
840.94	215.52
841.26	215.49
841.57	215.53
841.88	215.51
842.20	215.49
842.51	215.49
842.83	215.49
843.14	215.66
843.46	215.67
843.77	215.57
844.08	215.57
844.40	215.52
844.71	215.50
845.03	215.47
845.34	215.46
845.65	215.46
845.97	215.45
846.28	215.43
846.60	215.44
846.91	215.42
847.22	215.43
847.54	215.49
847.85	215.52
848.16	215.48
848.48	215.44
848.79	215.53
849.10	215.55
849.42	215.56
849.73	215.38
850.04	215.34
850.36	215.26
850.67	215.30
850.98	215.29
851.30	215.30
851.61	215.28
851.92	215.25
852.23	215.28
852.55	215.31
852.86	215.32
853.17	215.34
853.49	215.35
853.80	215.36
854.11	215.34
854.42	215.37
854.74	215.34
855.05	215.38
855.36	215.25
855.67	215.25
855.99	215.24
856.30	215.50
856.61	215.50
856.92	215.49
857.23	215.48
857.55	215.45
857.86	215.42
858.17	215.43
858.48	215.41
858.79	215.39
859.11	215.39
859.42	215.38
859.73	215.33
860.04	215.32
860.35	215.25
860.66	215.18
860.98	215.13
861.29	215.17
861.60	215.14
861.91	215.17
862.22	215.15
862.53	215.11
862.84	214.83
863.16	214.88
863.47	214.84
863.78	214.82
864.09	214.85
864.40	214.85
864.71	214.85
865.02	214.89
865.33	214.87
865.64	214.83
865.95	214.80
866.27	214.96
866.58	214.92
866.89	214.95
867.20	214.95
867.51	214.93
867.82	214.91
868.13	214.96
868.44	214.90
868.75	214.94
869.06	214.98
869.37	214.99
869.68	214.92
869.99	214.95
870.30	214.96
870.61	214.96
870.92	214.96
871.23	214.93
871.54	214.95
871.85	214.98
872.16	214.99
872.47	214.98
872.78	214.84
873.09	214.88
873.40	214.85
873.71	214.86
874.02	214.87
874.33	214.84
874.64	214.76
874.95	214.82
875.26	214.74
875.56	214.75
875.87	214.77
876.18	214.75
876.49	214.94
876.80	214.91
877.11	214.85
877.42	214.83
877.73	214.84
878.04	214.78
878.35	214.79
878.66	214.80
878.96	214.80
879.27	214.79
879.58	214.76
879.89	214.77
880.20	214.83
880.51	214.83
880.82	214.84
881.12	214.87
881.43	214.83
881.74	214.85
882.05	214.84
882.36	214.84
882.67	214.88
882.97	214.66
883.28	214.64
883.59	214.65
883.90	214.69
884.21	214.71
884.51	214.70
884.82	214.66
885.13	214.64
885.44	214.65
885.74	214.68
886.05	214.66
886.36	214.67
886.67	214.58
886.98	214.68
887.28	214.71
887.59	214.74
887.90	214.72
888.20	214.71
888.51	214.70
888.82	214.69
889.13	214.68
889.43	214.87
889.74	214.85
890.05	214.89
890.35	214.86
890.66	214.83
890.97	214.84
891.28	214.84
891.58	214.84
891.89	214.83
892.20	214.77
892.50	214.79
892.81	214.75
893.12	214.75
893.42	214.67
893.73	214.66
894.04	214.62
894.34	214.64
894.65	214.64
894.95	214.61
895.26	214.60
895.57	214.67
895.87	214.45
896.18	214.50
896.48	214.50
896.79	214.49
897.10	214.51
897.40	214.51
897.71	214.50
898.01	214.49
898.32	214.50
898.63	214.52
898.93	214.48
899.24	214.50
899.54	214.51
899.85	214.51
900.15	214.50
900.46	214.49
900.76	214.51
901.07	214.51
901.38	214.55
901.68	214.54
901.99	214.46
902.29	214.48
902.60	214.48
902.90	214.47
903.21	214.45
903.51	214.46
903.82	214.51
904.12	214.51
904.43	214.50
904.73	214.49
905.03	214.49
905.34	214.69
905.64	214.68
905.95	214.69
906.25	214.66
906.56	214.61
906.86	214.62
907.17	214.59
907.47	214.60
907.77	214.59
908.08	214.56
908.38	214.55
908.69	214.57
908.99	214.59
909.30	214.59
909.60	214.62
909.90	214.63
910.21	214.56
910.51	214.56
910.81	214.56
911.12	214.60
911.42	214.63
911.73	214.41
912.03	214.42
912.33	214.45
912.64	214.47
912.94	214.50
913.24	214.47
913.55	214.49
913.85	214.47
914.15	214.52
914.46	214.59
914.76	214.58
915.06	214.57
915.37	214.55
915.67	214.54
915.97	214.54
916.27	214.48
916.58	214.51
916.88	214.49
917.18	214.50
917.49	214.59
917.79	214.55
918.09	214.60
918.39	214.69
918.70	214.65
919.00	214.64
919.30	214.72
919.60	214.72
919.91	214.65
920.21	214.68
920.51	214.62
920.81	214.57
921.12	214.63
921.42	214.62
921.72	214.63
922.02	214.62
922.32	214.61
922.63	214.63
922.93	214.72
923.23	214.74
923.53	214.73
923.83	214.64
924.13	214.66
924.44	214.69
924.74	214.70
925.04	214.76
925.34	214.76
925.64	214.69
925.94	214.70
926.24	214.84
926.55	214.80
926.85	214.83
927.15	214.83
927.45	214.81
927.75	214.79
928.05	214.78
928.35	214.76
928.65	214.80
928.95	214.81
929.26	214.74
929.56	214.79
929.86	214.80
930.16	214.76
930.46	214.74
930.76	214.70
931.06	214.58
931.36	214.53
931.66	214.56
931.96	214.56
932.26	214.54
932.56	214.44
932.86	214.47
933.16	214.44
933.46	214.41
933.76	214.39
934.06	214.46
934.36	214.54
934.66	214.53
934.96	214.51
935.26	214.51
935.56	214.54
935.86	214.46
936.16	214.41
936.46	214.40
936.76	214.40
937.06	214.39
937.36	214.42
937.66	214.43
937.96	214.41
938.26	214.37
938.56	214.35
938.86	214.38
939.16	214.43
939.46	214.49
939.76	214.54
940.06	214.52
940.35	214.48
940.65	214.36
940.95	214.37
941.25	214.34
941.55	214.32
941.85	214.30
942.15	214.33
942.45	214.42
942.75	214.41
943.04	214.42
943.34	214.45
943.64	214.42
943.94	214.39
944.24	214.37
944.54	214.39
944.84	214.40
945.13	214.34
945.43	214.27
945.73	214.21
946.03	214.19
946.33	214.15
946.62	214.11
946.92	214.12
947.22	214.17
947.52	214.18
947.82	214.21
948.11	214.18
948.41	214.14
948.71	214.09
949.01	214.10
949.31	214.09
949.60	214.06
949.90	214.09
950.20	214.10
950.50	214.11
950.79	214.09
951.09	214.12
951.39	214.14
951.69	214.14
951.98	214.19
952.28	214.18
952.58	214.17
952.87	214.21
953.17	214.24
953.47	214.20
953.76	214.20
954.06	214.16
954.36	214.11
954.66	214.12
954.95	214.19
955.25	214.19
955.55	214.21
955.84	214.19
956.14	214.24
956.44	214.24
956.73	214.23
957.03	214.25
957.32	214.28
957.62	214.27
957.92	214.31
958.21	214.29
958.51	214.52
958.81	214.56
959.10	214.59
959.40	214.62
959.69	214.64
959.99	214.69
960.29	214.68
960.58	214.69
960.88	214.78
961.17	214.75
961.47	214.77
961.76	214.72
962.06	214.77
962.36	214.71
962.65	214.75
962.95	214.74
963.24	214.73
963.54	214.73
963.83	214.73
964.13	214.73
964.42	214.68
964.72	214.54
965.01	214.54
965.31	214.51
965.60	214.45
965.90	214.59
966.19	214.53
966.49	214.56
966.78	214.58
967.08	214.56
967.37	214.56
967.67	214.53
967.96	214.57
968.26	214.53
968.55	214.57
968.85	214.53
969.14	214.55
969.43	214.54
969.73	214.54
970.02	214.52
970.32	214.52
970.61	214.49
970.91	214.43
971.20	214.38
971.49	214.37
971.79	214.41
972.08	214.21
972.38	214.25
972.67	214.24
972.96	214.27
973.26	214.21
973.55	214.26
973.85	214.25
974.14	214.26
974.43	214.30
974.73	214.24
975.02	214.21
975.31	214.18
975.61	214.18
975.90	214.15
976.19	214.15
976.49	214.16
976.78	214.18
977.07	214.17
977.37	214.19
977.66	214.23
977.95	214.20
978.24	214.23
978.54	214.26
978.83	214.26
979.12	214.24
979.42	214.24
979.71	214.22
980.00	214.20
980.29	214.23
980.59	214.19
980.88	214.26
981.17	214.27
981.46	214.30
981.76	214.33
982.05	214.42
982.34	214.46
982.63	214.47
982.93	214.46
983.22	214.51
983.51	214.53
983.80	214.52
984.09	214.53
984.39	214.53
984.68	214.47
984.97	214.45
985.26	214.42
985.55	214.46
985.85	214.38
986.14	214.42
986.43	214.43
986.72	214.43
987.01	214.35
987.30	214.35
987.59	214.32
987.89	214.30
988.18	214.23
988.47	214.16
988.76	214.13
989.05	214.14
989.34	214.09
989.63	214.15
989.92	214.14
990.22	214.10
990.51	214.07
990.80	214.08
991.09	214.12
991.38	214.13
991.67	214.09
991.96	214.10
992.25	214.12
992.54	214.06
992.83	214.05
993.12	214.05
993.41	214.07
993.70	214.16
993.99	214.19
994.28	214.16
994.58	214.21
994.87	214.18
995.16	214.18
995.45	214.18
995.74	214.11
996.03	214.11
996.32	214.16
996.61	214.22
996.90	214.22
997.19	214.20
997.48	214.22
997.77	214.21
998.06	214.23
998.34	214.18
998.63	214.18
998.92	214.20
999.21	214.25
999.50	214.25
999.79	214.20
1000.08	214.17
1000.37	214.20
1000.66	214.18
1000.95	214.23
1001.24	214.22
1001.53	214.26
1001.82	214.25
1002.11	214.19
1002.40	214.22
1002.68	214.25
1002.97	214.37
1003.26	214.38
1003.55	214.33
1003.84	214.33
1004.13	214.39
1004.42	214.40
1004.71	214.40
1004.99	214.36
1005.28	214.40
1005.57	214.38
1005.86	214.32
1006.15	214.34
1006.44	214.32
1006.72	214.35
1007.01	214.32
1007.30	214.33
1007.59	214.27
1007.88	214.29
1008.17	214.33
1008.45	214.23
1008.74	214.17
1009.03	214.11
1009.32	214.10
1009.60	214.09
1009.89	214.12
1010.18	214.01
1010.47	214.00
1010.76	214.00
1011.04	214.03
1011.33	214.00
1011.62	214.01
1011.91	214.03
1012.19	214.00
1012.48	214.00
1012.77	213.98
1013.05	214.10
1013.34	214.11
1013.63	214.12
1013.92	214.10
1014.20	214.10
1014.49	214.13
1014.78	214.14
1015.06	214.07
1015.35	214.07
1015.64	214.11
1015.92	214.11
1016.21	214.15
1016.50	214.16
1016.78	214.20
1017.07	214.19
1017.36	214.22
1017.64	214.19
1017.93	214.23
1018.22	214.22
1018.50	214.21
1018.79	214.23
1019.08	214.10
1019.36	214.11
1019.65	214.11
1019.93	214.18
1020.22	214.22
1020.51	214.32
1020.79	214.28
1021.08	213.65
1021.36	213.72
1021.65	214.33
1021.94	213.98
1022.22	214.53
1022.51	213.88
1022.79	215.41
1023.08	214.67
1023.36	216.13
1023.65	213.37
>>>>>End Processed Spectral Data<<<<<
