SpectraSuite Data File
++++++++++++++++++++++++++++++++++++
Date: Tue Jan 29 16:45:18 EST 2013
User: group
Dark Spectrum Present: No
Reference Spectrum Present: No
Number of Sampled Component Spectra: 1
Spectrometers: USB2E7196
Integration Time (usec): 65000 (USB2E7196)
Spectra Averaged: 100 (USB2E7196)
Boxcar Smoothing: 10 (USB2E7196)
Correct for Electrical Dark: No (USB2E7196)
Strobe/Lamp Enabled: No (USB2E7196)
Correct for Detector Non-linearity: No (USB2E7196)
Correct for Stray Light: No (USB2E7196)
Number of Pixels in Processed Spectrum: 2048
>>>>>Begin Processed Spectral Data<<<<<
339.09	0.00
339.48	201.72
339.86	203.70
340.24	204.88
340.63	205.76
341.01	210.81
341.39	208.84
341.78	210.47
342.16	212.01
342.54	211.76
342.93	201.04
343.31	211.21
343.69	211.75
344.07	212.21
344.46	212.63
344.84	213.07
345.22	213.23
345.60	213.51
345.99	213.71
346.37	213.83
346.75	213.95
347.13	214.02
347.52	214.11
347.90	214.23
348.28	214.28
348.66	214.35
349.05	214.34
349.43	214.45
349.81	214.55
350.19	214.60
350.57	214.67
350.96	214.75
351.34	214.83
351.72	214.94
352.10	215.00
352.48	215.09
352.87	215.11
353.25	215.19
353.63	215.22
354.01	215.26
354.39	215.32
354.77	215.39
355.15	215.51
355.54	215.55
355.92	215.53
356.30	215.60
356.68	215.76
357.06	215.81
357.44	215.81
357.82	215.82
358.20	215.96
358.58	216.00
358.97	216.03
359.35	216.11
359.73	216.19
360.11	216.26
360.49	216.31
360.87	216.33
361.25	216.38
361.63	216.49
362.01	216.56
362.39	216.58
362.77	216.62
363.15	216.63
363.53	216.63
363.91	216.66
364.29	216.69
364.67	216.54
365.05	216.59
365.43	216.63
365.81	216.68
366.19	216.76
366.57	216.86
366.95	216.89
367.33	216.84
367.71	216.85
368.09	216.91
368.47	216.90
368.85	216.92
369.23	216.95
369.61	216.86
369.99	216.91
370.37	216.92
370.75	217.00
371.13	216.92
371.51	216.88
371.89	216.87
372.27	216.86
372.65	216.84
373.03	216.80
373.41	216.73
373.78	216.71
374.16	216.55
374.54	216.48
374.92	216.43
375.30	216.40
375.68	216.30
376.06	216.25
376.44	216.21
376.82	216.18
377.19	216.14
377.57	216.10
377.95	216.00
378.33	215.96
378.71	215.77
379.09	215.79
379.47	215.80
379.84	215.76
380.22	215.67
380.60	215.61
380.98	215.60
381.36	215.57
381.73	215.49
382.11	215.51
382.49	215.45
382.87	215.41
383.25	215.36
383.62	215.59
384.00	215.50
384.38	215.46
384.76	215.47
385.13	215.53
385.51	215.50
385.89	215.44
386.27	215.39
386.64	215.44
387.02	215.39
387.40	215.29
387.78	215.26
388.15	215.26
388.53	215.25
388.91	215.20
389.29	215.19
389.66	215.21
390.04	215.17
390.42	215.22
390.79	215.20
391.17	215.23
391.55	214.98
391.92	215.00
392.30	215.03
392.68	214.93
393.05	214.88
393.43	214.87
393.81	214.88
394.18	214.87
394.56	214.86
394.94	214.91
395.31	214.93
395.69	215.00
396.06	215.04
396.44	215.09
396.82	215.06
397.19	215.20
397.57	215.22
397.95	215.28
398.32	215.21
398.70	215.26
399.07	215.32
399.45	215.37
399.82	215.40
400.20	215.39
400.58	215.48
400.95	215.48
401.33	215.59
401.70	215.82
402.08	215.92
402.45	216.02
402.83	216.15
403.20	216.29
403.58	216.35
403.95	216.49
404.33	216.64
404.71	216.84
405.08	217.11
405.46	217.29
405.83	217.49
406.21	217.74
406.58	217.95
406.96	218.16
407.33	218.42
407.70	218.74
408.08	219.24
408.45	219.57
408.83	219.98
409.20	220.34
409.58	220.62
409.95	221.07
410.33	221.54
410.70	222.00
411.08	222.53
411.45	223.12
411.82	223.70
412.20	224.35
412.57	225.15
412.95	225.68
413.32	226.47
413.69	227.28
414.07	228.20
414.44	229.24
414.82	230.25
415.19	231.47
415.56	232.68
415.94	233.86
416.31	235.32
416.68	236.73
417.06	238.39
417.43	239.95
417.81	241.72
418.18	243.52
418.55	245.44
418.93	247.50
419.30	249.60
419.67	251.83
420.04	254.14
420.42	256.52
420.79	259.37
421.16	262.22
421.54	265.18
421.91	268.16
422.28	271.29
422.66	274.60
423.03	277.83
423.40	281.18
423.77	284.86
424.15	288.50
424.52	292.33
424.89	296.52
425.26	300.63
425.64	304.51
426.01	308.78
426.38	313.27
426.75	317.85
427.13	322.58
427.50	327.63
427.87	332.87
428.24	338.08
428.61	343.12
428.99	348.67
429.36	354.68
429.73	360.56
430.10	366.38
430.47	372.47
430.85	378.80
431.22	385.56
431.59	392.60
431.96	399.43
432.33	406.97
432.70	414.19
433.08	422.70
433.45	430.81
433.82	438.92
434.19	447.89
434.56	456.65
434.93	465.06
435.30	473.33
435.68	482.46
436.05	491.57
436.42	500.53
436.79	508.69
437.16	517.46
437.53	526.72
437.90	535.92
438.27	544.93
438.64	554.26
439.01	562.85
439.38	570.52
439.75	577.89
440.13	586.34
440.50	594.37
440.87	600.88
441.24	607.50
441.61	614.87
441.98	620.24
442.35	626.59
442.72	632.95
443.09	639.04
443.46	642.83
443.83	645.32
444.20	647.45
444.57	650.65
444.94	652.21
445.31	653.74
445.68	655.17
446.05	655.85
446.42	655.03
446.79	654.03
447.16	652.97
447.53	652.26
447.90	648.94
448.27	645.65
448.64	640.99
449.01	637.74
449.37	631.81
449.74	626.11
450.11	619.26
450.48	611.85
450.85	604.36
451.22	597.83
451.59	591.66
451.96	585.87
452.33	577.91
452.70	570.70
453.07	562.20
453.43	553.63
453.80	545.25
454.17	537.24
454.54	529.65
454.91	521.39
455.28	513.33
455.65	505.85
456.02	498.29
456.38	491.86
456.75	483.87
457.12	477.23
457.49	470.65
457.86	464.36
458.23	458.89
458.59	452.97
458.96	446.95
459.33	441.66
459.70	436.20
460.07	431.99
460.43	427.06
460.80	422.49
461.17	418.37
461.54	414.18
461.91	410.11
462.27	406.01
462.64	402.59
463.01	398.78
463.38	395.07
463.74	391.37
464.11	388.15
464.48	385.33
464.85	382.26
465.21	379.89
465.58	377.23
465.95	374.09
466.32	371.39
466.68	368.76
467.05	366.08
467.42	363.57
467.78	360.81
468.15	358.25
468.52	356.31
468.88	353.85
469.25	351.57
469.62	349.76
469.98	347.73
470.35	345.91
470.72	344.19
471.08	342.39
471.45	340.88
471.82	339.34
472.18	337.66
472.55	336.40
472.92	334.96
473.28	333.74
473.65	332.62
474.02	331.52
474.38	330.61
474.75	329.86
475.11	329.04
475.48	328.42
475.85	327.96
476.21	327.44
476.58	327.06
476.94	326.86
477.31	326.51
477.67	326.26
478.04	326.09
478.41	326.05
478.77	326.16
479.14	326.04
479.50	326.15
479.87	326.44
480.23	326.75
480.60	326.99
480.96	327.24
481.33	327.82
481.69	328.42
482.06	328.96
482.42	329.44
482.79	329.98
483.15	330.82
483.52	331.77
483.88	332.65
484.25	333.59
484.61	334.55
484.98	335.61
485.34	336.96
485.71	338.34
486.07	339.81
486.44	341.19
486.80	342.87
487.17	344.52
487.53	346.33
487.90	348.22
488.26	350.25
488.62	352.43
488.99	354.45
489.35	356.63
489.72	359.02
490.08	361.55
490.44	364.15
490.81	366.82
491.17	369.49
491.54	372.51
491.90	375.53
492.26	378.80
492.63	382.22
492.99	385.67
493.36	389.33
493.72	393.12
494.08	397.13
494.45	401.35
494.81	405.72
495.17	410.15
495.54	414.81
495.90	419.66
496.26	424.57
496.63	429.79
496.99	435.15
497.35	440.70
497.72	446.47
498.08	452.38
498.44	458.53
498.80	464.98
499.17	471.42
499.53	478.10
499.89	484.96
500.26	491.97
500.62	499.09
500.98	506.51
501.34	514.03
501.71	521.79
502.07	529.57
502.43	537.66
502.79	545.80
503.16	554.25
503.52	562.79
503.88	571.52
504.24	580.46
504.60	589.49
504.97	598.75
505.33	608.06
505.69	617.86
506.05	627.67
506.41	637.54
506.78	647.62
507.14	657.89
507.50	668.40
507.86	679.00
508.22	689.80
508.59	700.40
508.95	711.41
509.31	722.66
509.67	734.07
510.03	745.37
510.39	757.13
510.75	768.92
511.12	780.83
511.48	792.89
511.84	805.15
512.20	817.45
512.56	830.08
512.92	842.95
513.28	855.61
513.64	868.36
514.00	881.17
514.37	894.13
514.73	907.32
515.09	920.31
515.45	933.31
515.81	946.34
516.17	959.83
516.53	973.12
516.89	986.27
517.25	999.59
517.61	1013.28
517.97	1026.67
518.33	1039.87
518.69	1053.51
519.05	1067.28
519.41	1080.94
519.77	1094.88
520.13	1108.20
520.49	1121.31
520.85	1134.79
521.21	1148.13
521.57	1161.91
521.93	1175.05
522.29	1188.75
522.65	1202.37
523.01	1216.02
523.37	1229.19
523.73	1242.58
524.09	1255.86
524.45	1269.39
524.81	1282.92
525.17	1296.22
525.53	1309.42
525.89	1322.78
526.25	1335.95
526.61	1348.96
526.97	1362.12
527.33	1375.23
527.68	1388.79
528.04	1402.34
528.40	1415.51
528.76	1429.03
529.12	1441.89
529.48	1455.28
529.84	1467.71
530.20	1480.58
530.56	1493.21
530.91	1506.56
531.27	1519.35
531.63	1532.09
531.99	1544.83
532.35	1557.01
532.71	1569.53
533.07	1582.63
533.42	1594.92
533.78	1607.07
534.14	1619.20
534.50	1630.47
534.86	1642.16
535.21	1653.15
535.57	1664.79
535.93	1676.17
536.29	1687.26
536.65	1698.93
537.00	1709.98
537.36	1721.50
537.72	1732.55
538.08	1744.12
538.44	1755.27
538.79	1766.54
539.15	1777.61
539.51	1788.41
539.87	1799.87
540.22	1810.82
540.58	1821.82
540.94	1832.84
541.29	1843.25
541.65	1853.05
542.01	1863.71
542.37	1873.77
542.72	1884.02
543.08	1893.91
543.44	1904.52
543.79	1913.91
544.15	1923.50
544.51	1933.63
544.87	1943.43
545.22	1952.79
545.58	1961.62
545.94	1970.47
546.29	1978.97
546.65	1987.57
547.01	1995.92
547.36	2003.58
547.72	2011.30
548.07	2018.81
548.43	2026.67
548.79	2034.70
549.14	2042.98
549.50	2051.53
549.86	2059.48
550.21	2066.83
550.57	2074.60
550.92	2081.49
551.28	2089.11
551.64	2096.29
551.99	2103.80
552.35	2111.06
552.70	2117.94
553.06	2124.70
553.41	2131.03
553.77	2137.75
554.13	2144.06
554.48	2151.14
554.84	2158.43
555.19	2165.04
555.55	2171.62
555.90	2177.87
556.26	2184.50
556.61	2190.59
556.97	2195.38
557.32	2201.06
557.68	2207.59
558.03	2213.39
558.39	2218.80
558.74	2224.69
559.10	2230.33
559.45	2235.88
559.81	2241.40
560.16	2246.93
560.52	2252.95
560.87	2259.41
561.23	2265.13
561.58	2271.67
561.94	2276.94
562.29	2281.56
562.64	2287.49
563.00	2293.11
563.35	2298.71
563.71	2304.43
564.06	2309.99
564.42	2315.97
564.77	2321.11
565.12	2326.26
565.48	2331.20
565.83	2336.42
566.19	2341.66
566.54	2346.78
566.89	2351.17
567.25	2355.61
567.60	2361.31
567.96	2366.14
568.31	2370.55
568.66	2374.86
569.02	2378.69
569.37	2382.21
569.72	2386.40
570.08	2389.88
570.43	2392.99
570.78	2396.00
571.14	2398.41
571.49	2401.56
571.84	2404.86
572.20	2407.73
572.55	2410.63
572.90	2412.98
573.26	2415.75
573.61	2418.31
573.96	2420.44
574.31	2422.50
574.67	2424.47
575.02	2425.07
575.37	2426.53
575.72	2427.08
576.08	2428.45
576.43	2428.41
576.78	2428.81
577.13	2430.34
577.49	2431.38
577.84	2432.23
578.19	2433.42
578.54	2433.88
578.90	2434.40
579.25	2434.30
579.60	2433.99
579.95	2433.09
580.30	2432.85
580.66	2431.86
581.01	2430.08
581.36	2427.62
581.71	2425.98
582.06	2424.50
582.42	2423.38
582.77	2420.94
583.12	2419.34
583.47	2417.67
583.82	2417.05
584.17	2415.72
584.53	2413.46
584.88	2411.29
585.23	2409.17
585.58	2406.78
585.93	2404.69
586.28	2402.31
586.63	2399.69
586.98	2397.24
587.34	2395.11
587.69	2392.46
588.04	2390.36
588.39	2388.75
588.74	2386.10
589.09	2383.28
589.44	2380.10
589.79	2377.60
590.14	2375.64
590.49	2372.66
590.84	2368.74
591.19	2365.43
591.54	2362.00
591.89	2357.86
592.25	2354.36
592.60	2350.14
592.95	2345.85
593.30	2341.73
593.65	2337.26
594.00	2332.67
594.35	2329.65
594.70	2324.87
595.05	2320.38
595.40	2314.82
595.75	2308.95
596.10	2305.28
596.45	2300.41
596.80	2295.68
597.15	2290.35
597.50	2284.23
597.85	2279.06
598.19	2273.81
598.54	2268.08
598.89	2262.75
599.24	2258.15
599.59	2251.96
599.94	2245.92
600.29	2239.85
600.64	2233.72
600.99	2226.80
601.34	2221.24
601.69	2214.29
602.04	2208.11
602.39	2201.36
602.74	2195.33
603.08	2189.74
603.43	2183.17
603.78	2176.22
604.13	2169.14
604.48	2161.84
604.83	2155.68
605.18	2149.39
605.53	2142.47
605.87	2135.27
606.22	2128.45
606.57	2120.36
606.92	2112.56
607.27	2105.73
607.62	2099.20
607.96	2092.05
608.31	2085.65
608.66	2077.95
609.01	2070.22
609.36	2062.87
609.70	2055.27
610.05	2047.41
610.40	2039.09
610.75	2030.75
611.10	2023.00
611.44	2014.23
611.79	2005.53
612.14	1995.69
612.49	1985.09
612.83	1975.53
613.18	1966.36
613.53	1957.12
613.88	1947.61
614.22	1938.82
614.57	1928.98
614.92	1918.28
615.27	1908.12
615.61	1897.98
615.96	1888.26
616.31	1878.79
616.65	1869.47
617.00	1859.70
617.35	1850.09
617.70	1840.32
618.04	1830.38
618.39	1820.32
618.74	1810.55
619.08	1801.06
619.43	1792.24
619.78	1784.18
620.12	1775.71
620.47	1766.13
620.82	1755.82
621.16	1746.11
621.51	1736.30
621.85	1726.44
622.20	1716.12
622.55	1705.76
622.89	1695.92
623.24	1686.21
623.59	1676.31
623.93	1666.13
624.28	1656.42
624.62	1646.31
624.97	1636.24
625.32	1626.34
625.66	1617.47
626.01	1608.88
626.35	1599.40
626.70	1589.62
627.04	1579.48
627.39	1569.37
627.73	1560.11
628.08	1551.31
628.43	1541.77
628.77	1532.57
629.12	1523.85
629.46	1516.16
629.81	1507.79
630.15	1498.35
630.50	1488.75
630.84	1478.41
631.19	1468.64
631.53	1459.53
631.88	1449.56
632.22	1439.64
632.57	1430.49
632.91	1420.47
633.26	1410.54
633.60	1401.09
633.95	1391.78
634.29	1382.35
634.64	1373.22
634.98	1363.35
635.32	1354.10
635.67	1345.78
636.01	1336.60
636.36	1326.97
636.70	1317.50
637.05	1308.21
637.39	1299.38
637.73	1290.77
638.08	1283.28
638.42	1275.18
638.77	1266.34
639.11	1258.14
639.45	1250.36
639.80	1241.87
640.14	1233.21
640.49	1224.42
640.83	1215.67
641.17	1207.45
641.52	1199.48
641.86	1190.93
642.20	1183.11
642.55	1174.49
642.89	1165.63
643.23	1157.08
643.58	1148.90
643.92	1139.91
644.26	1131.32
644.61	1122.84
644.95	1114.13
645.29	1105.05
645.64	1095.97
645.98	1087.50
646.32	1079.54
646.66	1071.06
647.01	1062.74
647.35	1054.70
647.69	1046.48
648.04	1038.20
648.38	1029.44
648.72	1020.55
649.06	1012.18
649.41	1003.95
649.75	996.07
650.09	988.21
650.43	980.15
650.78	971.79
651.12	964.12
651.46	956.64
651.80	949.43
652.14	942.17
652.49	934.58
652.83	927.22
653.17	919.50
653.51	911.99
653.85	904.79
654.20	897.57
654.54	890.04
654.88	882.75
655.22	875.63
655.56	868.68
655.90	862.02
656.25	855.35
656.59	848.54
656.93	841.52
657.27	834.51
657.61	827.52
657.95	821.48
658.29	815.53
658.64	809.44
658.98	802.94
659.32	796.47
659.66	790.28
660.00	783.99
660.34	777.98
660.68	771.80
661.02	765.39
661.36	759.38
661.70	753.65
662.05	748.06
662.39	742.58
662.73	737.14
663.07	731.68
663.41	726.14
663.75	720.45
664.09	714.74
664.43	709.24
664.77	703.96
665.11	698.13
665.45	692.26
665.79	686.37
666.13	680.74
666.47	675.08
666.81	669.61
667.15	664.14
667.49	658.89
667.83	653.65
668.17	648.40
668.51	643.33
668.85	638.37
669.19	633.34
669.53	628.28
669.87	623.16
670.21	618.36
670.55	613.57
670.89	609.08
671.23	604.79
671.57	600.39
671.91	596.06
672.25	591.91
672.58	587.79
672.92	583.79
673.26	579.87
673.60	576.06
673.94	572.17
674.28	568.57
674.62	564.88
674.96	561.12
675.30	557.62
675.64	553.93
675.97	550.36
676.31	546.85
676.65	543.30
676.99	539.90
677.33	536.08
677.67	532.47
678.01	528.56
678.34	524.91
678.68	521.39
679.02	517.75
679.36	514.08
679.70	510.35
680.04	506.75
680.37	503.23
680.71	499.85
681.05	496.70
681.39	493.43
681.73	490.20
682.06	487.13
682.40	484.03
682.74	480.85
683.08	477.53
683.42	474.24
683.75	471.10
684.09	467.99
684.43	465.14
684.77	462.13
685.10	459.34
685.44	456.35
685.78	453.38
686.12	450.60
686.45	447.83
686.79	445.16
687.13	442.61
687.46	440.01
687.80	437.34
688.14	434.44
688.48	431.72
688.81	428.99
689.15	426.41
689.49	423.77
689.82	421.20
690.16	418.58
690.50	416.13
690.83	413.67
691.17	411.12
691.51	408.61
691.84	406.30
692.18	403.97
692.52	401.72
692.85	399.54
693.19	397.40
693.52	395.22
693.86	393.00
694.20	390.76
694.53	388.56
694.87	386.34
695.21	384.17
695.54	381.98
695.88	379.76
696.21	377.56
696.55	375.43
696.88	373.27
697.22	371.31
697.56	369.40
697.89	367.43
698.23	365.65
698.56	363.82
698.90	362.05
699.23	360.17
699.57	358.33
699.90	356.43
700.24	354.56
700.58	352.76
700.91	351.05
701.25	349.44
701.58	347.81
701.92	346.20
702.25	344.61
702.59	343.03
702.92	341.52
703.26	339.91
703.59	338.38
703.93	337.15
704.26	335.66
704.60	334.14
704.93	332.64
705.26	331.09
705.60	329.58
705.93	328.07
706.27	326.69
706.60	325.39
706.94	324.17
707.27	322.74
707.61	321.38
707.94	320.00
708.27	318.51
708.61	317.02
708.94	315.63
709.28	314.31
709.61	313.03
709.94	311.79
710.28	310.54
710.61	309.32
710.95	307.85
711.28	306.76
711.61	305.55
711.95	304.42
712.28	303.26
712.61	302.06
712.95	300.99
713.28	299.94
713.61	298.76
713.95	297.57
714.28	296.56
714.61	295.49
714.95	294.50
715.28	293.41
715.61	292.42
715.95	291.40
716.28	290.40
716.61	289.37
716.95	288.36
717.28	287.41
717.61	286.44
717.94	285.52
718.28	284.45
718.61	283.56
718.94	282.64
719.27	281.72
719.61	280.92
719.94	280.01
720.27	279.01
720.60	278.13
720.94	277.30
721.27	276.56
721.60	275.91
721.93	275.14
722.27	274.51
722.60	273.81
722.93	273.13
723.26	272.49
723.59	271.77
723.93	271.10
724.26	270.48
724.59	269.83
724.92	269.19
725.25	268.67
725.59	268.10
725.92	267.57
726.25	266.97
726.58	266.35
726.91	265.73
727.24	265.22
727.57	264.65
727.91	264.01
728.24	263.41
728.57	262.77
728.90	262.23
729.23	261.58
729.56	261.16
729.89	260.57
730.22	259.98
730.55	259.48
730.89	258.92
731.22	258.36
731.55	257.87
731.88	257.37
732.21	256.78
732.54	256.22
732.87	255.68
733.20	255.22
733.53	254.75
733.86	254.30
734.19	253.78
734.52	253.35
734.85	253.06
735.18	252.58
735.51	252.19
735.84	251.72
736.17	251.37
736.50	250.79
736.83	250.61
737.16	250.22
737.49	249.81
737.82	249.42
738.15	249.03
738.48	248.66
738.81	248.25
739.14	247.85
739.47	247.46
739.80	247.05
740.13	246.67
740.46	246.28
740.79	245.86
741.12	245.50
741.45	245.11
741.78	244.70
742.11	244.43
742.44	244.02
742.77	243.73
743.10	243.34
743.43	243.03
743.75	242.48
744.08	242.40
744.41	242.04
744.74	241.70
745.07	241.32
745.40	241.00
745.73	240.72
746.06	240.40
746.39	240.09
746.71	239.77
747.04	239.42
747.37	239.11
747.70	238.86
748.03	238.55
748.36	238.28
748.68	237.95
749.01	237.59
749.34	237.27
749.67	236.96
750.00	236.71
750.33	236.53
750.65	236.29
750.98	235.74
751.31	235.51
751.64	235.25
751.97	235.14
752.29	234.84
752.62	234.53
752.95	234.29
753.28	234.02
753.60	233.75
753.93	233.59
754.26	233.37
754.59	233.11
754.91	232.88
755.24	232.63
755.57	232.38
755.90	232.12
756.22	231.91
756.55	231.65
756.88	231.39
757.20	231.05
757.53	230.79
757.86	230.59
758.19	230.37
758.51	230.20
758.84	229.85
759.17	229.65
759.49	229.47
759.82	229.35
760.15	229.18
760.47	229.00
760.80	228.74
761.13	228.57
761.45	228.32
761.78	228.11
762.11	227.91
762.43	227.72
762.76	227.58
763.08	227.45
763.41	227.29
763.74	227.13
764.06	226.96
764.39	226.81
764.71	226.65
765.04	226.48
765.37	226.28
765.69	226.17
766.02	226.04
766.34	225.90
766.67	225.71
767.00	225.61
767.32	225.59
767.65	225.57
767.97	225.44
768.30	225.36
768.62	225.27
768.95	225.15
769.27	225.03
769.60	224.91
769.92	224.72
770.25	224.56
770.57	224.39
770.90	224.27
771.22	224.13
771.55	224.01
771.87	223.88
772.20	223.77
772.52	223.82
772.85	223.96
773.17	223.84
773.50	223.65
773.82	223.54
774.15	223.36
774.47	223.14
774.80	223.02
775.12	222.90
775.45	222.80
775.77	222.75
776.09	222.66
776.42	222.58
776.74	222.59
777.07	222.49
777.39	222.43
777.72	222.34
778.04	222.32
778.36	222.23
778.69	222.17
779.01	222.09
779.33	221.83
779.66	221.47
779.98	221.36
780.31	221.34
780.63	221.33
780.95	221.26
781.28	221.18
781.60	221.08
781.92	221.03
782.25	220.94
782.57	220.85
782.89	220.78
783.22	220.68
783.54	220.54
783.86	220.52
784.19	220.45
784.51	220.46
784.83	220.33
785.16	220.23
785.48	220.18
785.80	220.13
786.12	220.07
786.45	220.03
786.77	220.03
787.09	219.96
787.42	219.82
787.74	219.74
788.06	219.69
788.38	219.61
788.71	219.52
789.03	219.50
789.35	219.47
789.67	219.40
789.99	219.37
790.32	219.30
790.64	219.25
790.96	219.37
791.28	219.25
791.61	219.19
791.93	219.17
792.25	219.10
792.57	219.16
792.89	219.09
793.21	219.07
793.54	218.98
793.86	218.90
794.18	218.84
794.50	218.77
794.82	218.71
795.14	218.69
795.47	218.68
795.79	218.60
796.11	218.51
796.43	218.48
796.75	218.43
797.07	218.39
797.39	218.34
797.71	218.16
798.04	218.15
798.36	218.11
798.68	218.10
799.00	218.07
799.32	217.95
799.64	217.96
799.96	217.91
800.28	217.92
800.60	217.90
800.92	217.91
801.24	217.85
801.56	217.84
801.89	217.80
802.21	217.77
802.53	217.71
802.85	217.73
803.17	217.78
803.49	217.70
803.81	217.64
804.13	217.57
804.45	217.49
804.77	217.44
805.09	217.41
805.41	217.33
805.73	217.29
806.05	217.21
806.37	217.15
806.69	217.11
807.01	217.04
807.33	217.01
807.65	216.90
807.97	217.02
808.28	216.97
808.60	216.94
808.92	216.89
809.24	217.01
809.56	216.91
809.88	216.82
810.20	216.84
810.52	216.87
810.84	216.85
811.16	216.82
811.48	216.78
811.80	216.82
812.12	216.81
812.43	216.85
812.75	216.82
813.07	216.76
813.39	216.72
813.71	216.67
814.03	216.61
814.35	216.61
814.67	216.48
814.98	216.42
815.30	216.39
815.62	216.36
815.94	216.19
816.26	216.17
816.58	216.11
816.89	216.09
817.21	216.00
817.53	215.96
817.85	215.98
818.17	215.95
818.48	215.86
818.80	215.87
819.12	215.81
819.44	215.79
819.76	215.74
820.07	215.75
820.39	215.76
820.71	215.79
821.03	215.74
821.34	215.68
821.66	215.73
821.98	215.78
822.30	215.73
822.61	215.83
822.93	215.81
823.25	215.78
823.57	215.74
823.88	215.77
824.20	215.79
824.52	215.77
824.83	215.75
825.15	215.71
825.47	215.68
825.79	215.66
826.10	215.60
826.42	215.61
826.74	215.63
827.05	215.60
827.37	215.60
827.69	215.60
828.00	215.59
828.32	215.54
828.64	215.47
828.95	215.57
829.27	215.49
829.58	215.48
829.90	215.53
830.22	215.54
830.53	215.49
830.85	215.47
831.17	215.43
831.48	215.40
831.80	215.40
832.11	215.37
832.43	215.35
832.75	215.36
833.06	215.47
833.38	215.37
833.69	215.35
834.01	215.32
834.32	215.31
834.64	215.31
834.96	215.31
835.27	215.31
835.59	215.24
835.90	215.17
836.22	215.17
836.53	215.12
836.85	215.06
837.16	215.25
837.48	215.24
837.79	215.29
838.11	215.32
838.42	215.32
838.74	215.33
839.05	215.30
839.37	215.28
839.68	215.15
840.00	215.12
840.31	215.17
840.63	215.16
840.94	215.14
841.26	215.12
841.57	215.09
841.88	215.08
842.20	215.05
842.51	215.07
842.83	215.05
843.14	215.22
843.46	215.22
843.77	215.10
844.08	215.06
844.40	214.99
844.71	214.96
845.03	214.96
845.34	214.97
845.65	214.96
845.97	214.97
846.28	214.96
846.60	214.97
846.91	214.92
847.22	214.91
847.54	214.95
847.85	214.94
848.16	214.93
848.48	214.88
848.79	214.98
849.10	214.99
849.42	215.00
849.73	214.81
850.04	214.83
850.36	214.76
850.67	214.85
850.98	214.84
851.30	214.85
851.61	214.86
851.92	214.85
852.23	214.91
852.55	214.92
852.86	214.92
853.17	214.94
853.49	214.98
853.80	215.02
854.11	215.06
854.42	215.09
854.74	215.10
855.05	215.15
855.36	215.02
855.67	215.04
855.99	215.03
856.30	215.27
856.61	215.25
856.92	215.24
857.23	215.19
857.55	215.15
857.86	215.15
858.17	215.18
858.48	215.11
858.79	215.07
859.11	215.09
859.42	215.08
859.73	215.04
860.04	215.00
860.35	214.92
860.66	214.86
860.98	214.85
861.29	214.89
861.60	214.87
861.91	214.94
862.22	214.89
862.53	214.87
862.84	214.63
863.16	214.71
863.47	214.69
863.78	214.69
864.09	214.73
864.40	214.73
864.71	214.71
865.02	214.77
865.33	214.74
865.64	214.70
865.95	214.71
866.27	214.89
866.58	214.86
866.89	214.89
867.20	214.85
867.51	214.82
867.82	214.75
868.13	214.81
868.44	214.74
868.75	214.78
869.06	214.81
869.37	214.81
869.68	214.73
869.99	214.75
870.30	214.76
870.61	214.76
870.92	214.72
871.23	214.69
871.54	214.71
871.85	214.74
872.16	214.78
872.47	214.75
872.78	214.61
873.09	214.63
873.40	214.62
873.71	214.64
874.02	214.64
874.33	214.65
874.64	214.58
874.95	214.58
875.26	214.50
875.56	214.48
875.87	214.46
876.18	214.44
876.49	214.64
876.80	214.62
877.11	214.60
877.42	214.61
877.73	214.61
878.04	214.57
878.35	214.57
878.66	214.55
878.96	214.54
879.27	214.53
879.58	214.53
879.89	214.50
880.20	214.58
880.51	214.55
880.82	214.53
881.12	214.56
881.43	214.53
881.74	214.49
882.05	214.47
882.36	214.50
882.67	214.52
882.97	214.31
883.28	214.29
883.59	214.28
883.90	214.29
884.21	214.33
884.51	214.33
884.82	214.31
885.13	214.31
885.44	214.32
885.74	214.31
886.05	214.29
886.36	214.29
886.67	214.18
886.98	214.31
887.28	214.36
887.59	214.34
887.90	214.38
888.20	214.42
888.51	214.46
888.82	214.44
889.13	214.45
889.43	214.61
889.74	214.57
890.05	214.56
890.35	214.51
890.66	214.48
890.97	214.46
891.28	214.41
891.58	214.42
891.89	214.41
892.20	214.37
892.50	214.36
892.81	214.39
893.12	214.39
893.42	214.30
893.73	214.26
894.04	214.29
894.34	214.29
894.65	214.29
894.95	214.26
895.26	214.25
895.57	214.34
895.87	214.14
896.18	214.19
896.48	214.19
896.79	214.21
897.10	214.26
897.40	214.25
897.71	214.27
898.01	214.25
898.32	214.28
898.63	214.29
898.93	214.30
899.24	214.29
899.54	214.29
899.85	214.31
900.15	214.30
900.46	214.26
900.76	214.29
901.07	214.26
901.38	214.22
901.68	214.27
901.99	214.16
902.29	214.20
902.60	214.18
902.90	214.19
903.21	214.20
903.51	214.18
903.82	214.19
904.12	214.21
904.43	214.20
904.73	214.21
905.03	214.21
905.34	214.43
905.64	214.40
905.95	214.40
906.25	214.36
906.56	214.39
906.86	214.38
907.17	214.35
907.47	214.39
907.77	214.41
908.08	214.34
908.38	214.36
908.69	214.37
908.99	214.42
909.30	214.41
909.60	214.42
909.90	214.38
910.21	214.34
910.51	214.32
910.81	214.34
911.12	214.33
911.42	214.32
911.73	214.08
912.03	214.10
912.33	214.15
912.64	214.12
912.94	214.08
913.24	214.07
913.55	214.05
913.85	214.04
914.15	214.06
914.46	214.09
914.76	214.08
915.06	214.01
915.37	213.99
915.67	213.98
915.97	213.96
916.27	213.94
916.58	213.98
916.88	213.97
917.18	213.94
917.49	214.09
917.79	214.09
918.09	214.12
918.39	214.18
918.70	214.15
919.00	214.19
919.30	214.31
919.60	214.31
919.91	214.29
920.21	214.29
920.51	214.23
920.81	214.22
921.12	214.22
921.42	214.25
921.72	214.25
922.02	214.24
922.32	214.26
922.63	214.29
922.93	214.39
923.23	214.37
923.53	214.36
923.83	214.17
924.13	214.21
924.44	214.21
924.74	214.22
925.04	214.28
925.34	214.26
925.64	214.15
925.94	214.13
926.24	214.26
926.55	214.23
926.85	214.28
927.15	214.29
927.45	214.32
927.75	214.32
928.05	214.31
928.35	214.32
928.65	214.36
928.95	214.35
929.26	214.26
929.56	214.33
929.86	214.36
930.16	214.38
930.46	214.36
930.76	214.37
931.06	214.28
931.36	214.19
931.66	214.21
931.96	214.23
932.26	214.25
932.56	214.16
932.86	214.20
933.16	214.22
933.46	214.18
933.76	214.10
934.06	214.13
934.36	214.22
934.66	214.21
934.96	214.17
935.26	214.18
935.56	214.21
935.86	214.16
936.16	214.13
936.46	214.13
936.76	214.09
937.06	214.05
937.36	214.08
937.66	214.09
937.96	214.12
938.26	214.06
938.56	214.04
938.86	214.06
939.16	214.08
939.46	214.07
939.76	214.10
940.06	214.14
940.35	214.11
940.65	214.01
940.95	214.04
941.25	213.99
941.55	213.96
941.85	213.93
942.15	213.98
942.45	214.07
942.75	214.07
943.04	214.11
943.34	214.18
943.64	214.16
943.94	214.15
944.24	214.12
944.54	214.17
944.84	214.18
945.13	214.13
945.43	214.10
945.73	214.08
946.03	214.05
946.33	214.03
946.62	213.98
946.92	213.94
947.22	213.94
947.52	213.96
947.82	214.01
948.11	214.03
948.41	214.00
948.71	213.91
949.01	213.93
949.31	213.92
949.60	213.87
949.90	213.87
950.20	213.88
950.50	213.91
950.79	213.87
951.09	213.90
951.39	213.89
951.69	213.86
951.98	213.91
952.28	213.94
952.58	213.93
952.87	213.96
953.17	214.02
953.47	213.99
953.76	214.00
954.06	213.95
954.36	213.91
954.66	213.87
954.95	213.93
955.25	213.94
955.55	213.96
955.84	213.98
956.14	214.02
956.44	214.02
956.73	213.96
957.03	213.98
957.32	213.97
957.62	214.00
957.92	214.04
958.21	214.01
958.51	214.24
958.81	214.25
959.10	214.30
959.40	214.33
959.69	214.37
959.99	214.39
960.29	214.38
960.58	214.37
960.88	214.45
961.17	214.42
961.47	214.40
961.76	214.37
962.06	214.36
962.36	214.33
962.65	214.34
962.95	214.37
963.24	214.35
963.54	214.38
963.83	214.39
964.13	214.39
964.42	214.37
964.72	214.19
965.01	214.21
965.31	214.15
965.60	214.11
965.90	214.22
966.19	214.19
966.49	214.22
966.78	214.20
967.08	214.20
967.37	214.21
967.67	214.16
967.96	214.19
968.26	214.17
968.55	214.21
968.85	214.22
969.14	214.20
969.43	214.20
969.73	214.19
970.02	214.15
970.32	214.13
970.61	214.08
970.91	214.02
971.20	213.98
971.49	214.01
971.79	214.03
972.08	213.90
972.38	213.89
972.67	213.89
972.96	213.94
973.26	213.85
973.55	213.93
973.85	213.99
974.14	213.96
974.43	213.99
974.73	213.94
975.02	213.91
975.31	213.92
975.61	213.90
975.90	213.85
976.19	213.86
976.49	213.84
976.78	213.88
977.07	213.87
977.37	213.89
977.66	213.88
977.95	213.83
978.24	213.85
978.54	213.90
978.83	213.88
979.12	213.88
979.42	213.92
979.71	213.83
980.00	213.80
980.29	213.82
980.59	213.79
980.88	213.85
981.17	213.83
981.46	213.80
981.76	213.83
982.05	213.90
982.34	213.90
982.63	213.97
982.93	213.95
983.22	214.01
983.51	214.01
983.80	214.06
984.09	214.11
984.39	214.09
984.68	214.06
984.97	214.08
985.26	214.03
985.55	214.06
985.85	214.07
986.14	214.11
986.43	214.13
986.72	214.12
987.01	214.04
987.30	214.07
987.59	214.07
987.89	214.07
988.18	214.01
988.47	214.02
988.76	213.98
989.05	214.01
989.34	213.96
989.63	214.00
989.92	213.96
990.22	213.91
990.51	213.91
990.80	213.89
991.09	213.89
991.38	213.95
991.67	213.91
991.96	213.86
992.25	213.83
992.54	213.77
992.83	213.80
993.12	213.80
993.41	213.85
993.70	213.94
993.99	214.01
994.28	214.02
994.58	214.06
994.87	214.02
995.16	213.98
995.45	213.97
995.74	213.91
996.03	213.93
996.32	214.00
996.61	214.03
996.90	214.01
997.19	214.01
997.48	213.98
997.77	213.98
998.06	214.03
998.34	214.02
998.63	214.05
998.92	214.05
999.21	214.09
999.50	214.07
999.79	213.99
1000.08	213.94
1000.37	213.96
1000.66	213.91
1000.95	213.97
1001.24	213.97
1001.53	214.01
1001.82	214.01
1002.11	213.97
1002.40	213.98
1002.68	214.01
1002.97	214.16
1003.26	214.11
1003.55	214.08
1003.84	214.04
1004.13	214.10
1004.42	214.09
1004.71	214.08
1004.99	214.07
1005.28	214.09
1005.57	214.08
1005.86	214.07
1006.15	214.04
1006.44	214.02
1006.72	214.06
1007.01	214.02
1007.30	214.04
1007.59	214.01
1007.88	214.02
1008.17	214.05
1008.45	213.96
1008.74	213.86
1009.03	213.77
1009.32	213.78
1009.60	213.81
1009.89	213.83
1010.18	213.76
1010.47	213.75
1010.76	213.73
1011.04	213.73
1011.33	213.73
1011.62	213.74
1011.91	213.75
1012.19	213.76
1012.48	213.76
1012.77	213.77
1013.05	213.89
1013.34	213.92
1013.63	213.91
1013.92	213.91
1014.20	213.88
1014.49	213.91
1014.78	213.93
1015.06	213.88
1015.35	213.90
1015.64	213.91
1015.92	213.91
1016.21	213.90
1016.50	213.92
1016.78	213.98
1017.07	213.96
1017.36	213.92
1017.64	213.86
1017.93	213.90
1018.22	213.89
1018.50	213.88
1018.79	213.86
1019.08	213.74
1019.36	213.71
1019.65	213.69
1019.93	213.74
1020.22	213.77
1020.51	213.89
1020.79	213.87
1021.08	213.32
1021.36	213.77
1021.65	213.77
1021.94	213.74
1022.22	213.71
1022.51	213.26
1022.79	214.90
1023.08	214.26
1023.36	216.08
1023.65	213.21
>>>>>End Processed Spectral Data<<<<<
