SpectraSuite Data File
++++++++++++++++++++++++++++++++++++
Date: Tue Jan 29 16:06:15 EST 2013
User: group
Dark Spectrum Present: No
Reference Spectrum Present: No
Number of Sampled Component Spectra: 1
Spectrometers: USB2E7196
Integration Time (usec): 65000 (USB2E7196)
Spectra Averaged: 100 (USB2E7196)
Boxcar Smoothing: 10 (USB2E7196)
Correct for Electrical Dark: No (USB2E7196)
Strobe/Lamp Enabled: No (USB2E7196)
Correct for Detector Non-linearity: No (USB2E7196)
Correct for Stray Light: No (USB2E7196)
Number of Pixels in Processed Spectrum: 2048
>>>>>Begin Processed Spectral Data<<<<<
339.09	0.00
339.48	202.99
339.86	204.34
340.24	205.11
340.63	206.45
341.01	211.22
341.39	209.60
341.78	210.89
342.16	212.09
342.54	212.82
342.93	201.83
343.31	212.04
343.69	212.58
344.07	213.04
344.46	213.52
344.84	213.95
345.22	214.14
345.60	214.46
345.99	214.68
346.37	214.85
346.75	214.98
347.13	215.06
347.52	215.15
347.90	215.27
348.28	215.29
348.66	215.41
349.05	215.37
349.43	215.44
349.81	215.53
350.19	215.60
350.57	215.67
350.96	215.81
351.34	215.92
351.72	216.03
352.10	216.16
352.48	216.22
352.87	216.28
353.25	216.37
353.63	216.39
354.01	216.44
354.39	216.54
354.77	216.63
355.15	216.76
355.54	216.84
355.92	216.83
356.30	216.91
356.68	217.12
357.06	217.19
357.44	217.23
357.82	217.30
358.20	217.37
358.58	217.45
358.97	217.52
359.35	217.61
359.73	217.72
360.11	217.78
360.49	217.83
360.87	217.86
361.25	217.92
361.63	218.01
362.01	218.06
362.39	218.04
362.77	218.05
363.15	218.05
363.53	218.06
363.91	218.12
364.29	218.15
364.67	217.97
365.05	217.99
365.43	218.00
365.81	218.04
366.19	218.13
366.57	218.23
366.95	218.21
367.33	218.17
367.71	218.14
368.09	218.14
368.47	218.12
368.85	218.13
369.23	218.12
369.61	218.04
369.99	218.12
370.37	218.16
370.75	218.25
371.13	218.19
371.51	218.13
371.89	218.10
372.27	218.09
372.65	218.06
373.03	218.01
373.41	217.97
373.78	217.89
374.16	217.76
374.54	217.65
374.92	217.58
375.30	217.54
375.68	217.45
376.06	217.45
376.44	217.42
376.82	217.35
377.19	217.33
377.57	217.27
377.95	217.13
378.33	217.03
378.71	216.87
379.09	216.86
379.47	216.83
379.84	216.74
380.22	216.64
380.60	216.56
380.98	216.52
381.36	216.47
381.73	216.43
382.11	216.42
382.49	216.39
382.87	216.34
383.25	216.28
383.62	216.48
384.00	216.39
384.38	216.33
384.76	216.37
385.13	216.38
385.51	216.35
385.89	216.30
386.27	216.29
386.64	216.30
387.02	216.25
387.40	216.21
387.78	216.22
388.15	216.22
388.53	216.20
388.91	216.16
389.29	216.15
389.66	216.12
390.04	216.09
390.42	216.08
390.79	216.07
391.17	216.08
391.55	215.84
391.92	215.79
392.30	215.80
392.68	215.73
393.05	215.70
393.43	215.70
393.81	215.73
394.18	215.71
394.56	215.68
394.94	215.76
395.31	215.77
395.69	215.81
396.06	215.83
396.44	215.87
396.82	215.89
397.19	215.99
397.57	216.03
397.95	216.09
398.32	216.04
398.70	216.08
399.07	216.15
399.45	216.18
399.82	216.25
400.20	216.31
400.58	216.38
400.95	216.39
401.33	216.50
401.70	216.67
402.08	216.76
402.45	216.86
402.83	216.97
403.20	217.07
403.58	217.15
403.95	217.31
404.33	217.47
404.71	217.61
405.08	217.86
405.46	217.99
405.83	218.16
406.21	218.40
406.58	218.64
406.96	218.85
407.33	219.13
407.70	219.41
408.08	219.87
408.45	220.19
408.83	220.61
409.20	220.95
409.58	221.25
409.95	221.71
410.33	222.19
410.70	222.60
411.08	223.13
411.45	223.71
411.82	224.30
412.20	224.94
412.57	225.76
412.95	226.29
413.32	227.10
413.69	227.92
414.07	228.78
414.44	229.75
414.82	230.72
415.19	231.84
415.56	232.97
415.94	234.10
416.31	235.49
416.68	236.82
417.06	238.38
417.43	239.84
417.81	241.53
418.18	243.24
418.55	245.13
418.93	247.13
419.30	249.13
419.67	251.24
420.04	253.46
420.42	255.77
420.79	258.56
421.16	261.24
421.54	264.02
421.91	266.90
422.28	269.89
422.66	273.07
423.03	276.22
423.40	279.50
423.77	282.89
424.15	286.42
424.52	290.09
424.89	294.12
425.26	298.07
425.64	301.81
426.01	305.90
426.38	310.21
426.75	314.58
427.13	319.18
427.50	324.02
427.87	329.03
428.24	334.03
428.61	338.81
428.99	344.18
429.36	349.97
429.73	355.68
430.10	361.34
430.47	367.15
430.85	373.25
431.22	379.74
431.59	386.69
431.96	393.28
432.33	400.56
432.70	407.58
433.08	415.80
433.45	423.58
433.82	431.39
434.19	439.97
434.56	448.40
434.93	456.44
435.30	464.39
435.68	473.23
436.05	481.88
436.42	490.47
436.79	498.29
437.16	506.80
437.53	515.72
437.90	524.51
438.27	533.22
438.64	542.09
439.01	550.34
439.38	557.63
439.75	564.69
440.13	572.84
440.50	580.47
440.87	586.66
441.24	593.04
441.61	600.09
441.98	605.32
442.35	611.38
442.72	617.46
443.09	623.30
443.46	626.94
443.83	629.37
444.20	631.47
444.57	634.50
444.94	635.91
445.31	637.24
445.68	638.55
446.05	639.09
446.42	638.33
446.79	637.36
447.16	636.28
447.53	635.54
447.90	632.25
448.27	629.05
448.64	624.53
449.01	621.30
449.37	615.54
449.74	609.98
450.11	603.28
450.48	596.11
450.85	588.89
451.22	582.57
451.59	576.61
451.96	570.98
452.33	563.42
452.70	556.55
453.07	548.42
453.43	540.17
453.80	532.21
454.17	524.53
454.54	517.24
454.91	509.38
455.28	501.75
455.65	494.65
456.02	487.48
456.38	481.42
456.75	473.93
457.12	467.67
457.49	461.40
457.86	455.51
458.23	450.41
458.59	444.76
458.96	438.99
459.33	433.98
459.70	428.83
460.07	424.76
460.43	420.05
460.80	415.64
461.17	411.78
461.54	407.74
461.91	403.81
462.27	399.84
462.64	396.55
463.01	392.82
463.38	389.26
463.74	385.70
464.11	382.60
464.48	379.84
464.85	376.89
465.21	374.55
465.58	371.99
465.95	368.93
466.32	366.36
466.68	363.83
467.05	361.29
467.42	358.84
467.78	356.23
468.15	353.80
468.52	351.97
468.88	349.56
469.25	347.46
469.62	345.83
469.98	343.99
470.35	342.27
470.72	340.71
471.08	339.03
471.45	337.57
471.82	336.10
472.18	334.45
472.55	333.26
472.92	332.00
473.28	330.86
473.65	329.78
474.02	328.78
474.38	327.96
474.75	327.23
475.11	326.48
475.48	325.97
475.85	325.52
476.21	325.05
476.58	324.78
476.94	324.53
477.31	324.27
477.67	324.05
478.04	323.90
478.41	323.84
478.77	323.98
479.14	323.94
479.50	324.11
479.87	324.46
480.23	324.82
480.60	325.07
480.96	325.41
481.33	325.99
481.69	326.54
482.06	327.10
482.42	327.62
482.79	328.23
483.15	329.01
483.52	329.99
483.88	330.93
484.25	331.87
484.61	332.91
484.98	333.89
485.34	335.22
485.71	336.59
486.07	338.03
486.44	339.36
486.80	341.03
487.17	342.69
487.53	344.46
487.90	346.29
488.26	348.30
488.62	350.43
488.99	352.49
489.35	354.63
489.72	357.00
490.08	359.50
490.44	362.00
490.81	364.70
491.17	367.37
491.54	370.36
491.90	373.39
492.26	376.65
492.63	380.10
492.99	383.58
493.36	387.25
493.72	391.11
494.08	395.07
494.45	399.22
494.81	403.57
495.17	408.07
495.54	412.82
495.90	417.63
496.26	422.55
496.63	427.72
496.99	433.17
497.35	438.68
497.72	444.51
498.08	450.44
498.44	456.50
498.80	462.89
499.17	469.37
499.53	476.05
499.89	482.89
500.26	489.81
500.62	496.85
500.98	504.23
501.34	511.74
501.71	519.52
502.07	527.27
502.43	535.24
502.79	543.36
503.16	551.68
503.52	560.20
503.88	568.88
504.24	577.81
504.60	586.76
504.97	595.93
505.33	605.14
505.69	615.05
506.05	624.86
506.41	634.63
506.78	644.64
507.14	654.86
507.50	665.26
507.86	675.99
508.22	686.80
508.59	697.35
508.95	708.37
509.31	719.59
509.67	730.96
510.03	742.26
510.39	753.96
510.75	765.72
511.12	777.67
511.48	789.76
511.84	801.89
512.20	814.23
512.56	826.88
512.92	839.59
513.28	852.13
513.64	864.79
514.00	877.55
514.37	890.37
514.73	903.31
515.09	916.24
515.45	928.89
515.81	941.65
516.17	955.02
516.53	968.07
516.89	981.01
517.25	994.07
517.61	1007.45
517.97	1020.65
518.33	1033.69
518.69	1047.03
519.05	1060.50
519.41	1074.05
519.77	1087.69
520.13	1100.80
520.49	1113.79
520.85	1126.92
521.21	1140.08
521.57	1153.55
521.93	1166.46
522.29	1180.12
522.65	1193.49
523.01	1206.99
523.37	1219.99
523.73	1232.93
524.09	1245.89
524.45	1259.14
524.81	1272.43
525.17	1285.60
525.53	1298.58
525.89	1311.62
526.25	1324.53
526.61	1337.13
526.97	1349.99
527.33	1362.63
527.68	1375.87
528.04	1389.09
528.40	1401.96
528.76	1415.01
529.12	1427.75
529.48	1440.80
529.84	1452.70
530.20	1465.19
530.56	1477.49
530.91	1490.54
531.27	1503.25
531.63	1515.76
531.99	1528.23
532.35	1540.17
532.71	1552.29
533.07	1564.60
533.42	1576.48
533.78	1588.18
534.14	1600.00
534.50	1610.92
534.86	1622.20
535.21	1632.74
535.57	1643.78
535.93	1654.87
536.29	1665.75
536.65	1676.92
537.00	1687.62
537.36	1698.63
537.72	1709.26
538.08	1720.19
538.44	1730.72
538.79	1741.33
539.15	1751.81
539.51	1762.12
539.87	1773.09
540.22	1783.56
540.58	1794.28
540.94	1804.84
541.29	1814.81
541.65	1824.13
542.01	1834.49
542.37	1844.26
542.72	1854.24
543.08	1863.84
543.44	1873.87
543.79	1882.89
544.15	1892.00
544.51	1901.70
544.87	1911.37
545.22	1920.14
545.58	1928.88
545.94	1937.55
546.29	1946.00
546.65	1954.15
547.01	1962.13
547.36	1969.50
547.72	1977.05
548.07	1984.48
548.43	1992.04
548.79	1999.74
549.14	2007.81
549.50	2015.78
549.86	2023.36
550.21	2030.45
550.57	2037.86
550.92	2044.42
551.28	2051.68
551.64	2058.65
551.99	2066.03
552.35	2072.95
552.70	2079.80
553.06	2086.28
553.41	2092.37
553.77	2098.62
554.13	2104.79
554.48	2111.66
554.84	2118.54
555.19	2124.87
555.55	2131.39
555.90	2137.56
556.26	2144.13
556.61	2149.82
556.97	2154.62
557.32	2160.58
557.68	2166.85
558.03	2172.55
558.39	2177.68
558.74	2183.58
559.10	2189.14
559.45	2194.42
559.81	2199.87
560.16	2205.57
560.52	2211.41
560.87	2217.84
561.23	2223.86
561.58	2230.56
561.94	2235.76
562.29	2240.74
562.64	2246.92
563.00	2252.28
563.35	2257.84
563.71	2263.75
564.06	2269.60
564.42	2275.53
564.77	2280.53
565.12	2285.78
565.48	2290.96
565.83	2296.70
566.19	2302.21
566.54	2307.54
566.89	2312.38
567.25	2317.13
567.60	2322.71
567.96	2327.96
568.31	2332.55
568.66	2336.75
569.02	2340.54
569.37	2344.46
569.72	2348.79
570.08	2352.33
570.43	2355.59
570.78	2358.67
571.14	2361.32
571.49	2364.44
571.84	2368.15
572.20	2371.17
572.55	2374.40
572.90	2376.71
573.26	2379.70
573.61	2382.27
573.96	2384.71
574.31	2386.64
574.67	2388.60
575.02	2389.62
575.37	2391.17
575.72	2392.14
576.08	2393.86
576.43	2394.46
576.78	2395.17
577.13	2397.10
577.49	2398.33
577.84	2399.75
578.19	2401.48
578.54	2402.35
578.90	2403.47
579.25	2403.47
579.60	2403.58
579.95	2402.97
580.30	2403.43
580.66	2402.92
581.01	2401.48
581.36	2399.48
581.71	2398.53
582.06	2397.79
582.42	2397.11
582.77	2395.17
583.12	2393.76
583.47	2392.65
583.82	2392.09
584.17	2391.00
584.53	2388.84
584.88	2387.11
585.23	2385.24
585.58	2383.01
585.93	2380.87
586.28	2378.84
586.63	2376.67
586.98	2374.58
587.34	2372.96
587.69	2370.97
588.04	2369.07
588.39	2367.79
588.74	2365.43
589.09	2362.82
589.44	2359.79
589.79	2357.49
590.14	2355.69
590.49	2352.96
590.84	2349.40
591.19	2346.72
591.54	2343.67
591.89	2339.92
592.25	2336.85
592.60	2332.84
592.95	2328.97
593.30	2325.08
593.65	2320.79
594.00	2316.57
594.35	2313.73
594.70	2309.18
595.05	2304.43
595.40	2299.06
595.75	2293.59
596.10	2290.05
596.45	2285.31
596.80	2280.98
597.15	2275.83
597.50	2269.97
597.85	2265.16
598.19	2259.88
598.54	2254.08
598.89	2249.09
599.24	2244.64
599.59	2238.55
599.94	2233.08
600.29	2227.37
600.64	2221.57
600.99	2214.92
601.34	2209.57
601.69	2202.60
602.04	2196.24
602.39	2189.90
602.74	2184.09
603.08	2178.48
603.43	2171.96
603.78	2165.34
604.13	2158.14
604.48	2151.06
604.83	2145.14
605.18	2138.92
605.53	2132.04
605.87	2125.08
606.22	2118.30
606.57	2110.45
606.92	2102.63
607.27	2095.58
607.62	2088.91
607.96	2082.09
608.31	2075.67
608.66	2067.92
609.01	2060.53
609.36	2053.40
609.70	2045.75
610.05	2038.08
610.40	2030.01
610.75	2021.72
611.10	2014.24
611.44	2005.65
611.79	1996.89
612.14	1986.86
612.49	1976.43
612.83	1967.31
613.18	1958.14
613.53	1948.72
613.88	1939.26
614.22	1930.70
614.57	1920.87
614.92	1910.38
615.27	1900.21
615.61	1890.37
615.96	1880.76
616.31	1871.18
616.65	1861.88
617.00	1851.99
617.35	1842.27
617.70	1832.54
618.04	1822.55
618.39	1811.98
618.74	1802.27
619.08	1792.70
619.43	1784.05
619.78	1775.81
620.12	1767.01
620.47	1757.22
620.82	1747.01
621.16	1737.28
621.51	1727.23
621.85	1717.26
622.20	1706.91
622.55	1696.33
622.89	1686.26
623.24	1676.59
623.59	1666.72
623.93	1656.67
624.28	1646.99
624.62	1636.96
624.97	1626.52
625.32	1616.83
625.66	1608.19
626.01	1599.26
626.35	1589.87
626.70	1579.73
627.04	1569.61
627.39	1559.65
627.73	1550.35
628.08	1541.20
628.43	1531.44
628.77	1522.30
629.12	1513.52
629.46	1505.63
629.81	1497.17
630.15	1487.62
630.50	1477.68
630.84	1467.23
631.19	1457.27
631.53	1447.79
631.88	1437.52
632.22	1427.62
632.57	1418.32
632.91	1407.99
633.26	1398.24
633.60	1388.70
633.95	1379.45
634.29	1370.00
634.64	1360.50
634.98	1350.84
635.32	1341.67
635.67	1333.23
636.01	1323.95
636.36	1314.07
636.70	1304.53
637.05	1295.16
637.39	1286.21
637.73	1277.72
638.08	1270.23
638.42	1261.88
638.77	1253.05
639.11	1244.75
639.45	1236.84
639.80	1228.11
640.14	1219.43
640.49	1210.42
640.83	1201.52
641.17	1193.44
641.52	1185.19
641.86	1176.69
642.20	1168.60
642.55	1159.99
642.89	1151.17
643.23	1142.49
643.58	1134.41
643.92	1125.29
644.26	1116.62
644.61	1108.30
644.95	1099.46
645.29	1090.18
645.64	1081.19
645.98	1072.88
646.32	1064.95
646.66	1056.47
647.01	1048.14
647.35	1040.08
647.69	1031.75
648.04	1023.51
648.38	1014.46
648.72	1005.70
649.06	997.17
649.41	989.02
649.75	981.00
650.09	973.09
650.43	965.11
650.78	956.97
651.12	949.35
651.46	941.96
651.80	934.68
652.14	927.32
652.49	919.83
652.83	912.47
653.17	904.73
653.51	897.14
653.85	889.93
654.20	882.73
654.54	875.22
654.88	868.15
655.22	860.99
655.56	854.13
655.90	847.38
656.25	840.80
656.59	833.83
656.93	826.85
657.27	819.73
657.61	812.80
657.95	806.64
658.29	800.80
658.64	794.61
658.98	788.17
659.32	781.70
659.66	775.43
660.00	769.14
660.34	763.28
660.68	757.24
661.02	751.00
661.36	745.14
661.70	739.39
662.05	733.67
662.39	728.27
662.73	722.92
663.07	717.58
663.41	712.07
663.75	706.59
664.09	701.10
664.43	695.76
664.77	690.47
665.11	684.79
665.45	678.90
665.79	673.20
666.13	667.55
666.47	662.13
666.81	656.83
667.15	651.54
667.49	646.33
667.83	641.11
668.17	635.83
668.51	630.72
668.85	625.86
669.19	621.10
669.53	616.08
669.87	611.11
670.21	606.42
670.55	601.68
670.89	597.29
671.23	593.00
671.57	588.74
671.91	584.52
672.25	580.43
672.58	576.37
672.92	572.34
673.26	568.47
673.60	564.66
673.94	560.86
674.28	557.24
674.62	553.59
674.96	549.85
675.30	546.43
675.64	542.85
675.97	539.33
676.31	535.75
676.65	532.26
676.99	528.82
677.33	525.07
677.67	521.53
678.01	517.67
678.34	514.04
678.68	510.52
679.02	506.91
679.36	503.28
679.70	499.67
680.04	496.28
680.37	492.88
680.71	489.60
681.05	486.40
681.39	483.27
681.73	480.09
682.06	477.21
682.40	474.14
682.74	470.93
683.08	467.76
683.42	464.62
683.75	461.64
684.09	458.67
684.43	455.90
684.77	452.99
685.10	450.22
685.44	447.35
685.78	444.45
686.12	441.78
686.45	439.07
686.79	436.49
687.13	433.94
687.46	431.39
687.80	428.75
688.14	426.00
688.48	423.36
688.81	420.72
689.15	418.16
689.49	415.64
689.82	413.21
690.16	410.72
690.50	408.31
690.83	405.84
691.17	403.30
691.51	400.86
691.84	398.66
692.18	396.50
692.52	394.38
692.85	392.30
693.19	390.12
693.52	388.02
693.86	385.83
694.20	383.70
694.53	381.57
694.87	379.42
695.21	377.33
695.54	375.24
695.88	373.12
696.21	370.91
696.55	368.81
696.88	366.75
697.22	364.82
697.56	362.94
697.89	361.14
698.23	359.47
698.56	357.73
698.90	356.02
699.23	354.14
699.57	352.25
699.90	350.50
700.24	348.79
700.58	347.09
700.91	345.49
701.25	344.00
701.58	342.40
701.92	340.88
702.25	339.34
702.59	337.77
702.92	336.27
703.26	334.82
703.59	333.42
703.93	332.23
704.26	330.83
704.60	329.36
704.93	327.93
705.26	326.48
705.60	325.01
705.93	323.55
706.27	322.23
706.60	321.04
706.94	319.80
707.27	318.46
707.61	317.12
707.94	315.76
708.27	314.25
708.61	312.88
708.94	311.55
709.28	310.32
709.61	309.06
709.94	307.91
710.28	306.66
710.61	305.46
710.95	304.08
711.28	303.03
711.61	301.88
711.95	300.81
712.28	299.66
712.61	298.53
712.95	297.49
713.28	296.51
713.61	295.39
713.95	294.28
714.28	293.32
714.61	292.35
714.95	291.39
715.28	290.40
715.61	289.41
715.95	288.47
716.28	287.49
716.61	286.61
716.95	285.63
717.28	284.78
717.61	283.86
717.94	282.99
718.28	281.96
718.61	281.08
718.94	280.11
719.27	279.27
719.61	278.50
719.94	277.63
720.27	276.71
720.60	275.87
720.94	275.10
721.27	274.34
721.60	273.62
721.93	272.90
722.27	272.27
722.60	271.64
722.93	270.97
723.26	270.35
723.59	269.70
723.93	269.12
724.26	268.45
724.59	267.83
724.92	267.26
725.25	266.76
725.59	266.27
725.92	265.74
726.25	265.21
726.58	264.62
726.91	264.07
727.24	263.55
727.57	263.04
727.91	262.43
728.24	261.87
728.57	261.28
728.90	260.78
729.23	260.21
729.56	259.76
729.89	259.21
730.22	258.66
730.55	258.13
730.89	257.59
731.22	257.11
731.55	256.60
731.88	256.08
732.21	255.53
732.54	254.96
732.87	254.48
733.20	253.97
733.53	253.51
733.86	253.09
734.19	252.61
734.52	252.17
734.85	251.90
735.18	251.47
735.51	251.11
735.84	250.66
736.17	250.31
736.50	249.81
736.83	249.67
737.16	249.32
737.49	248.94
737.82	248.54
738.15	248.20
738.48	247.87
738.81	247.48
739.14	247.07
739.47	246.74
739.80	246.39
740.13	246.07
740.46	245.67
740.79	245.27
741.12	244.92
741.45	244.55
741.78	244.10
742.11	243.84
742.44	243.46
742.77	243.17
743.10	242.80
743.43	242.47
743.75	241.86
744.08	241.77
744.41	241.41
744.74	241.07
745.07	240.67
745.40	240.38
745.73	240.14
746.06	239.87
746.39	239.58
746.71	239.26
747.04	238.94
747.37	238.66
747.70	238.42
748.03	238.13
748.36	237.91
748.68	237.63
749.01	237.27
749.34	237.01
749.67	236.73
750.00	236.48
750.33	236.35
750.65	236.14
750.98	235.62
751.31	235.41
751.64	235.22
751.97	235.12
752.29	234.83
752.62	234.48
752.95	234.22
753.28	233.95
753.60	233.72
753.93	233.58
754.26	233.37
754.59	233.11
754.91	232.88
755.24	232.62
755.57	232.39
755.90	232.18
756.22	231.92
756.55	231.68
756.88	231.42
757.20	231.06
757.53	230.80
757.86	230.59
758.19	230.36
758.51	230.14
758.84	229.86
759.17	229.66
759.49	229.55
759.82	229.49
760.15	229.31
760.47	229.11
760.80	228.85
761.13	228.69
761.45	228.48
761.78	228.32
762.11	228.17
762.43	227.98
762.76	227.81
763.08	227.69
763.41	227.56
763.74	227.47
764.06	227.31
764.39	227.21
764.71	227.05
765.04	226.92
765.37	226.81
765.69	226.64
766.02	226.52
766.34	226.36
766.67	226.10
767.00	226.02
767.32	225.99
767.65	225.99
767.97	225.84
768.30	225.74
768.62	225.60
768.95	225.44
769.27	225.34
769.60	225.24
769.92	225.10
770.25	224.93
770.57	224.75
770.90	224.68
771.22	224.52
771.55	224.46
771.87	224.35
772.20	224.19
772.52	224.26
772.85	224.41
773.17	224.30
773.50	224.22
773.82	224.10
774.15	223.90
774.47	223.67
774.80	223.59
775.12	223.50
775.45	223.40
775.77	223.33
776.09	223.23
776.42	223.14
776.74	223.13
777.07	223.05
777.39	222.99
777.72	222.85
778.04	222.81
778.36	222.71
778.69	222.63
779.01	222.57
779.33	222.31
779.66	221.98
779.98	221.91
780.31	221.86
780.63	221.86
780.95	221.87
781.28	221.81
781.60	221.69
781.92	221.56
782.25	221.53
782.57	221.48
782.89	221.39
783.22	221.31
783.54	221.18
783.86	221.14
784.19	221.09
784.51	221.09
784.83	221.01
785.16	220.95
785.48	220.92
785.80	220.88
786.12	220.80
786.45	220.78
786.77	220.72
787.09	220.64
787.42	220.49
787.74	220.42
788.06	220.36
788.38	220.32
788.71	220.30
789.03	220.28
789.35	220.24
789.67	220.18
789.99	220.16
790.32	220.10
790.64	220.07
790.96	220.17
791.28	220.09
791.61	220.01
791.93	219.95
792.25	219.89
792.57	220.00
792.89	219.92
793.21	219.85
793.54	219.80
793.86	219.77
794.18	219.72
794.50	219.62
794.82	219.60
795.14	219.60
795.47	219.59
795.79	219.51
796.11	219.41
796.43	219.40
796.75	219.34
797.07	219.31
797.39	219.27
797.71	219.07
798.04	219.01
798.36	219.01
798.68	218.96
799.00	218.92
799.32	218.76
799.64	218.80
799.96	218.78
800.28	218.81
800.60	218.73
800.92	218.72
801.24	218.68
801.56	218.64
801.89	218.58
802.21	218.56
802.53	218.50
802.85	218.54
803.17	218.56
803.49	218.50
803.81	218.44
804.13	218.39
804.45	218.37
804.77	218.37
805.09	218.33
805.41	218.30
805.73	218.23
806.05	218.16
806.37	218.10
806.69	218.07
807.01	218.01
807.33	217.98
807.65	217.90
807.97	217.98
808.28	217.91
808.60	217.87
808.92	217.82
809.24	217.90
809.56	217.82
809.88	217.76
810.20	217.77
810.52	217.76
810.84	217.71
811.16	217.64
811.48	217.61
811.80	217.65
812.12	217.61
812.43	217.61
812.75	217.59
813.07	217.55
813.39	217.52
813.71	217.47
814.03	217.44
814.35	217.45
814.67	217.32
814.98	217.31
815.30	217.27
815.62	217.23
815.94	217.08
816.26	217.10
816.58	217.02
816.89	217.03
817.21	217.00
817.53	217.00
817.85	216.98
818.17	216.94
818.48	216.86
818.80	216.91
819.12	216.86
819.44	216.83
819.76	216.79
820.07	216.76
820.39	216.75
820.71	216.77
821.03	216.73
821.34	216.70
821.66	216.72
821.98	216.71
822.30	216.65
822.61	216.79
822.93	216.72
823.25	216.70
823.57	216.67
823.88	216.69
824.20	216.67
824.52	216.68
824.83	216.67
825.15	216.63
825.47	216.58
825.79	216.64
826.10	216.61
826.42	216.59
826.74	216.61
827.05	216.58
827.37	216.56
827.69	216.52
828.00	216.56
828.32	216.53
828.64	216.53
828.95	216.65
829.27	216.56
829.58	216.58
829.90	216.59
830.22	216.56
830.53	216.49
830.85	216.42
831.17	216.34
831.48	216.31
831.80	216.29
832.11	216.28
832.43	216.23
832.75	216.18
833.06	216.28
833.38	216.20
833.69	216.19
834.01	216.19
834.32	216.19
834.64	216.13
834.96	216.12
835.27	216.11
835.59	216.03
835.90	216.02
836.22	216.00
836.53	215.96
836.85	215.95
837.16	216.14
837.48	216.18
837.79	216.29
838.11	216.32
838.42	216.34
838.74	216.34
839.05	216.31
839.37	216.32
839.68	216.20
840.00	216.17
840.31	216.16
840.63	216.13
840.94	216.06
841.26	216.06
841.57	216.05
841.88	216.05
842.20	216.01
842.51	215.95
842.83	215.92
843.14	216.07
843.46	216.08
843.77	215.95
844.08	215.90
844.40	215.82
844.71	215.76
845.03	215.72
845.34	215.71
845.65	215.70
845.97	215.71
846.28	215.72
846.60	215.75
846.91	215.72
847.22	215.69
847.54	215.77
847.85	215.78
848.16	215.77
848.48	215.72
848.79	215.74
849.10	215.77
849.42	215.77
849.73	215.59
850.04	215.55
850.36	215.48
850.67	215.53
850.98	215.53
851.30	215.56
851.61	215.55
851.92	215.54
852.23	215.54
852.55	215.56
852.86	215.55
853.17	215.56
853.49	215.61
853.80	215.66
854.11	215.70
854.42	215.71
854.74	215.69
855.05	215.69
855.36	215.60
855.67	215.60
855.99	215.61
856.30	215.82
856.61	215.82
856.92	215.82
857.23	215.84
857.55	215.81
857.86	215.79
858.17	215.83
858.48	215.77
858.79	215.72
859.11	215.74
859.42	215.73
859.73	215.71
860.04	215.69
860.35	215.64
860.66	215.53
860.98	215.54
861.29	215.56
861.60	215.57
861.91	215.68
862.22	215.63
862.53	215.60
862.84	215.40
863.16	215.42
863.47	215.37
863.78	215.31
864.09	215.35
864.40	215.35
864.71	215.33
865.02	215.37
865.33	215.40
865.64	215.36
865.95	215.36
866.27	215.50
866.58	215.47
866.89	215.49
867.20	215.51
867.51	215.45
867.82	215.45
868.13	215.51
868.44	215.42
868.75	215.46
869.06	215.50
869.37	215.49
869.68	215.46
869.99	215.50
870.30	215.51
870.61	215.51
870.92	215.49
871.23	215.50
871.54	215.50
871.85	215.55
872.16	215.56
872.47	215.54
872.78	215.38
873.09	215.39
873.40	215.35
873.71	215.38
874.02	215.40
874.33	215.36
874.64	215.30
874.95	215.34
875.26	215.28
875.56	215.27
875.87	215.27
876.18	215.24
876.49	215.44
876.80	215.45
877.11	215.42
877.42	215.41
877.73	215.39
878.04	215.37
878.35	215.36
878.66	215.38
878.96	215.39
879.27	215.39
879.58	215.39
879.89	215.37
880.20	215.41
880.51	215.41
880.82	215.43
881.12	215.44
881.43	215.40
881.74	215.42
882.05	215.41
882.36	215.43
882.67	215.46
882.97	215.25
883.28	215.19
883.59	215.15
883.90	215.16
884.21	215.19
884.51	215.21
884.82	215.17
885.13	215.14
885.44	215.11
885.74	215.11
886.05	215.08
886.36	215.10
886.67	215.01
886.98	215.09
887.28	215.11
887.59	215.06
887.90	215.08
888.20	215.07
888.51	215.10
888.82	215.08
889.13	215.08
889.43	215.23
889.74	215.24
890.05	215.25
890.35	215.25
890.66	215.20
890.97	215.16
891.28	215.15
891.58	215.15
891.89	215.17
892.20	215.15
892.50	215.14
892.81	215.16
893.12	215.17
893.42	215.09
893.73	215.07
894.04	215.11
894.34	215.17
894.65	215.13
894.95	215.11
895.26	215.10
895.57	215.20
895.87	215.03
896.18	215.04
896.48	215.08
896.79	215.10
897.10	215.16
897.40	215.13
897.71	215.15
898.01	215.12
898.32	215.14
898.63	215.15
898.93	215.19
899.24	215.16
899.54	215.16
899.85	215.15
900.15	215.15
900.46	215.11
900.76	215.06
901.07	215.08
901.38	215.05
901.68	215.07
901.99	214.95
902.29	214.94
902.60	214.93
902.90	214.88
903.21	214.86
903.51	214.81
903.82	214.89
904.12	214.89
904.43	214.92
904.73	214.92
905.03	214.95
905.34	215.11
905.64	215.10
905.95	215.09
906.25	215.07
906.56	215.09
906.86	215.13
907.17	215.13
907.47	215.14
907.77	215.13
908.08	215.06
908.38	215.10
908.69	215.13
908.99	215.19
909.30	215.22
909.60	215.19
909.90	215.22
910.21	215.13
910.51	215.12
910.81	215.09
911.12	215.10
911.42	215.08
911.73	214.90
912.03	214.93
912.33	214.97
912.64	214.98
912.94	214.94
913.24	214.88
913.55	214.85
913.85	214.85
914.15	214.88
914.46	214.93
914.76	214.92
915.06	214.92
915.37	214.88
915.67	214.86
915.97	214.89
916.27	214.87
916.58	214.91
916.88	214.91
917.18	214.91
917.49	215.03
917.79	215.03
918.09	215.06
918.39	215.09
918.70	215.09
919.00	215.11
919.30	215.21
919.60	215.21
919.91	215.19
920.21	215.19
920.51	215.15
920.81	215.15
921.12	215.18
921.42	215.17
921.72	215.19
922.02	215.21
922.32	215.22
922.63	215.24
922.93	215.32
923.23	215.32
923.53	215.29
923.83	215.15
924.13	215.17
924.44	215.15
924.74	215.19
925.04	215.24
925.34	215.23
925.64	215.13
925.94	215.15
926.24	215.26
926.55	215.25
926.85	215.27
927.15	215.26
927.45	215.23
927.75	215.23
928.05	215.22
928.35	215.19
928.65	215.23
928.95	215.23
929.26	215.16
929.56	215.20
929.86	215.26
930.16	215.28
930.46	215.25
930.76	215.27
931.06	215.19
931.36	215.13
931.66	215.17
931.96	215.20
932.26	215.23
932.56	215.16
932.86	215.17
933.16	215.18
933.46	215.16
933.76	215.14
934.06	215.20
934.36	215.29
934.66	215.31
934.96	215.28
935.26	215.32
935.56	215.34
935.86	215.28
936.16	215.24
936.46	215.18
936.76	215.18
937.06	215.13
937.36	215.11
937.66	215.13
937.96	215.12
938.26	215.06
938.56	215.01
938.86	215.01
939.16	215.07
939.46	215.10
939.76	215.10
940.06	215.12
940.35	215.07
940.65	214.97
940.95	214.96
941.25	214.91
941.55	214.88
941.85	214.88
942.15	214.95
942.45	215.01
942.75	215.04
943.04	215.05
943.34	215.08
943.64	215.09
943.94	215.06
944.24	215.06
944.54	215.10
944.84	215.14
945.13	215.09
945.43	215.01
945.73	215.01
946.03	215.01
946.33	214.97
946.62	214.98
946.92	214.95
947.22	214.93
947.52	214.97
947.82	214.97
948.11	214.93
948.41	214.87
948.71	214.80
949.01	214.80
949.31	214.78
949.60	214.80
949.90	214.85
950.20	214.83
950.50	214.80
950.79	214.79
951.09	214.77
951.39	214.80
951.69	214.82
951.98	214.83
952.28	214.84
952.58	214.85
952.87	214.85
953.17	214.89
953.47	214.90
953.76	214.86
954.06	214.81
954.36	214.81
954.66	214.81
954.95	214.88
955.25	214.87
955.55	214.91
955.84	214.87
956.14	214.85
956.44	214.86
956.73	214.85
957.03	214.86
957.32	214.90
957.62	214.88
957.92	214.92
958.21	214.92
958.51	215.14
958.81	215.15
959.10	215.16
959.40	215.17
959.69	215.18
959.99	215.23
960.29	215.26
960.58	215.20
960.88	215.26
961.17	215.23
961.47	215.28
961.76	215.25
962.06	215.25
962.36	215.22
962.65	215.23
962.95	215.24
963.24	215.21
963.54	215.19
963.83	215.21
964.13	215.18
964.42	215.11
964.72	214.93
965.01	214.92
965.31	214.91
965.60	214.86
965.90	214.96
966.19	214.88
966.49	214.90
966.78	214.89
967.08	214.92
967.37	214.95
967.67	214.89
967.96	214.92
968.26	214.92
968.55	214.97
968.85	214.95
969.14	214.91
969.43	214.92
969.73	214.91
970.02	214.90
970.32	214.91
970.61	214.90
970.91	214.84
971.20	214.81
971.49	214.78
971.79	214.82
972.08	214.71
972.38	214.75
972.67	214.72
972.96	214.79
973.26	214.70
973.55	214.72
973.85	214.70
974.14	214.66
974.43	214.68
974.73	214.63
975.02	214.63
975.31	214.65
975.61	214.64
975.90	214.60
976.19	214.58
976.49	214.59
976.78	214.60
977.07	214.62
977.37	214.65
977.66	214.69
977.95	214.68
978.24	214.67
978.54	214.73
978.83	214.71
979.12	214.70
979.42	214.73
979.71	214.68
980.00	214.67
980.29	214.72
980.59	214.67
980.88	214.74
981.17	214.72
981.46	214.73
981.76	214.75
982.05	214.82
982.34	214.84
982.63	214.87
982.93	214.88
983.22	214.93
983.51	214.90
983.80	214.92
984.09	214.94
984.39	214.92
984.68	214.85
984.97	214.85
985.26	214.83
985.55	214.84
985.85	214.81
986.14	214.86
986.43	214.86
986.72	214.84
987.01	214.78
987.30	214.80
987.59	214.74
987.89	214.76
988.18	214.69
988.47	214.67
988.76	214.62
989.05	214.60
989.34	214.56
989.63	214.63
989.92	214.64
990.22	214.60
990.51	214.63
990.80	214.66
991.09	214.69
991.38	214.73
991.67	214.70
991.96	214.68
992.25	214.70
992.54	214.67
992.83	214.68
993.12	214.67
993.41	214.69
993.70	214.80
993.99	214.81
994.28	214.86
994.58	214.89
994.87	214.89
995.16	214.89
995.45	214.91
995.74	214.83
996.03	214.82
996.32	214.85
996.61	214.90
996.90	214.89
997.19	214.86
997.48	214.86
997.77	214.85
998.06	214.85
998.34	214.81
998.63	214.83
998.92	214.84
999.21	214.85
999.50	214.87
999.79	214.80
1000.08	214.80
1000.37	214.80
1000.66	214.78
1000.95	214.86
1001.24	214.88
1001.53	214.90
1001.82	214.88
1002.11	214.83
1002.40	214.82
1002.68	214.79
1002.97	214.94
1003.26	214.94
1003.55	214.91
1003.84	214.94
1004.13	215.03
1004.42	215.02
1004.71	215.00
1004.99	215.01
1005.28	215.07
1005.57	215.05
1005.86	215.04
1006.15	215.01
1006.44	214.98
1006.72	214.99
1007.01	214.92
1007.30	214.92
1007.59	214.89
1007.88	214.89
1008.17	214.92
1008.45	214.91
1008.74	214.85
1009.03	214.76
1009.32	214.74
1009.60	214.72
1009.89	214.73
1010.18	214.63
1010.47	214.63
1010.76	214.63
1011.04	214.63
1011.33	214.61
1011.62	214.60
1011.91	214.61
1012.19	214.63
1012.48	214.63
1012.77	214.63
1013.05	214.76
1013.34	214.78
1013.63	214.76
1013.92	214.78
1014.20	214.75
1014.49	214.77
1014.78	214.78
1015.06	214.72
1015.35	214.72
1015.64	214.76
1015.92	214.75
1016.21	214.76
1016.50	214.76
1016.78	214.77
1017.07	214.76
1017.36	214.74
1017.64	214.74
1017.93	214.75
1018.22	214.73
1018.50	214.72
1018.79	214.70
1019.08	214.58
1019.36	214.58
1019.65	214.55
1019.93	214.61
1020.22	214.64
1020.51	214.74
1020.79	214.72
1021.08	214.25
1021.36	214.15
1021.65	214.23
1021.94	215.10
1022.22	214.77
1022.51	214.04
1022.79	215.58
1023.08	214.95
1023.36	217.43
1023.65	213.86
>>>>>End Processed Spectral Data<<<<<
