SpectraSuite Data File
++++++++++++++++++++++++++++++++++++
Date: Tue Jan 29 15:59:58 EST 2013
User: group
Dark Spectrum Present: No
Reference Spectrum Present: No
Number of Sampled Component Spectra: 1
Spectrometers: USB2E7196
Integration Time (usec): 65000 (USB2E7196)
Spectra Averaged: 100 (USB2E7196)
Boxcar Smoothing: 10 (USB2E7196)
Correct for Electrical Dark: No (USB2E7196)
Strobe/Lamp Enabled: No (USB2E7196)
Correct for Detector Non-linearity: No (USB2E7196)
Correct for Stray Light: No (USB2E7196)
Number of Pixels in Processed Spectrum: 2048
>>>>>Begin Processed Spectral Data<<<<<
339.09	0.00
339.48	202.78
339.86	204.19
340.24	205.43
340.63	206.82
341.01	211.62
341.39	209.37
341.78	211.14
342.16	213.30
342.54	213.26
342.93	202.07
343.31	212.27
343.69	212.81
344.07	213.27
344.46	213.74
344.84	214.16
345.22	214.32
345.60	214.60
345.99	214.79
346.37	214.88
346.75	214.97
347.13	215.01
347.52	215.06
347.90	215.13
348.28	215.19
348.66	215.27
349.05	215.24
349.43	215.29
349.81	215.37
350.19	215.38
350.57	215.43
350.96	215.50
351.34	215.60
351.72	215.67
352.10	215.80
352.48	215.83
352.87	215.82
353.25	215.88
353.63	215.94
354.01	216.00
354.39	216.09
354.77	216.18
355.15	216.31
355.54	216.34
355.92	216.33
356.30	216.39
356.68	216.58
357.06	216.68
357.44	216.71
357.82	216.76
358.20	216.86
358.58	216.92
358.97	216.98
359.35	217.10
359.73	217.27
360.11	217.30
360.49	217.38
360.87	217.46
361.25	217.55
361.63	217.65
362.01	217.70
362.39	217.68
362.77	217.72
363.15	217.72
363.53	217.77
363.91	217.84
364.29	217.86
364.67	217.70
365.05	217.71
365.43	217.74
365.81	217.80
366.19	217.89
366.57	217.99
366.95	217.95
367.33	217.86
367.71	217.80
368.09	217.86
368.47	217.85
368.85	217.82
369.23	217.85
369.61	217.77
369.99	217.85
370.37	217.90
370.75	217.99
371.13	217.94
371.51	217.89
371.89	217.89
372.27	217.87
372.65	217.85
373.03	217.83
373.41	217.80
373.78	217.73
374.16	217.61
374.54	217.53
374.92	217.48
375.30	217.47
375.68	217.41
376.06	217.34
376.44	217.30
376.82	217.29
377.19	217.23
377.57	217.19
377.95	217.08
378.33	217.02
378.71	216.88
379.09	216.85
379.47	216.84
379.84	216.76
380.22	216.71
380.60	216.62
380.98	216.56
381.36	216.55
381.73	216.52
382.11	216.48
382.49	216.43
382.87	216.43
383.25	216.36
383.62	216.52
384.00	216.47
384.38	216.44
384.76	216.44
385.13	216.48
385.51	216.45
385.89	216.36
386.27	216.35
386.64	216.35
387.02	216.33
387.40	216.26
387.78	216.26
388.15	216.26
388.53	216.25
388.91	216.23
389.29	216.16
389.66	216.14
390.04	216.15
390.42	216.17
390.79	216.15
391.17	216.18
391.55	215.98
391.92	215.96
392.30	215.98
392.68	215.95
393.05	215.94
393.43	215.94
393.81	215.99
394.18	215.96
394.56	215.91
394.94	215.97
395.31	216.01
395.69	216.06
396.06	216.06
396.44	216.11
396.82	216.13
397.19	216.28
397.57	216.28
397.95	216.33
398.32	216.28
398.70	216.34
399.07	216.42
399.45	216.44
399.82	216.50
400.20	216.50
400.58	216.55
400.95	216.54
401.33	216.64
401.70	216.82
402.08	216.91
402.45	216.97
402.83	217.09
403.20	217.19
403.58	217.28
403.95	217.45
404.33	217.60
404.71	217.73
405.08	217.98
405.46	218.16
405.83	218.33
406.21	218.53
406.58	218.76
406.96	218.94
407.33	219.21
407.70	219.47
408.08	219.96
408.45	220.30
408.83	220.67
409.20	220.97
409.58	221.24
409.95	221.72
410.33	222.24
410.70	222.63
411.08	223.16
411.45	223.74
411.82	224.26
412.20	224.92
412.57	225.75
412.95	226.28
413.32	227.09
413.69	227.88
414.07	228.75
414.44	229.70
414.82	230.70
415.19	231.82
415.56	232.98
415.94	234.11
416.31	235.45
416.68	236.80
417.06	238.32
417.43	239.80
417.81	241.43
418.18	243.11
418.55	245.01
418.93	246.93
419.30	248.96
419.67	251.11
420.04	253.31
420.42	255.62
420.79	258.37
421.16	261.01
421.54	263.83
421.91	266.71
422.28	269.65
422.66	272.85
423.03	275.97
423.40	279.21
423.77	282.69
424.15	286.20
424.52	289.93
424.89	294.00
425.26	297.99
425.64	301.76
426.01	305.86
426.38	310.16
426.75	314.55
427.13	319.13
427.50	323.94
427.87	328.93
428.24	333.90
428.61	338.71
428.99	344.05
429.36	349.87
429.73	355.54
430.10	361.24
430.47	367.06
430.85	373.16
431.22	379.58
431.59	386.41
431.96	393.02
432.33	400.27
432.70	407.23
433.08	415.41
433.45	423.17
433.82	430.94
434.19	439.50
434.56	447.95
434.93	455.95
435.30	463.92
435.68	472.69
436.05	481.30
436.42	489.83
436.79	497.69
437.16	506.03
437.53	514.96
437.90	523.70
438.27	532.30
438.64	541.18
439.01	549.42
439.38	556.71
439.75	563.84
440.13	571.87
440.50	579.56
440.87	585.69
441.24	592.07
441.61	599.13
441.98	604.23
442.35	610.28
442.72	616.33
443.09	622.13
443.46	625.74
443.83	628.15
444.20	630.23
444.57	633.18
444.94	634.57
445.31	635.90
445.68	637.24
446.05	637.83
446.42	637.01
446.79	636.10
447.16	635.03
447.53	634.19
447.90	630.93
448.27	627.72
448.64	623.22
449.01	620.00
449.37	614.27
449.74	608.83
450.11	602.14
450.48	595.00
450.85	587.76
451.22	581.54
451.59	575.64
451.96	570.06
452.33	562.49
452.70	555.70
453.07	547.58
453.43	539.34
453.80	531.40
454.17	523.83
454.54	516.55
454.91	508.73
455.28	501.07
455.65	494.01
456.02	486.81
456.38	480.82
456.75	473.33
457.12	467.07
457.49	460.90
457.86	454.94
458.23	449.82
458.59	444.22
458.96	438.46
459.33	433.38
459.70	428.28
460.07	424.27
460.43	419.57
460.80	415.17
461.17	411.29
461.54	407.28
461.91	403.39
462.27	399.41
462.64	396.08
463.01	392.42
463.38	388.84
463.74	385.30
464.11	382.12
464.48	379.37
464.85	376.35
465.21	373.97
465.58	371.50
465.95	368.47
466.32	365.97
466.68	363.46
467.05	360.98
467.42	358.48
467.78	355.90
468.15	353.45
468.52	351.69
468.88	349.31
469.25	347.14
469.62	345.41
469.98	343.63
470.35	341.93
470.72	340.35
471.08	338.66
471.45	337.24
471.82	335.80
472.18	334.22
472.55	333.12
472.92	331.88
473.28	330.71
473.65	329.62
474.02	328.57
474.38	327.76
474.75	327.08
475.11	326.35
475.48	325.82
475.85	325.39
476.21	324.91
476.58	324.65
476.94	324.45
477.31	324.14
477.67	323.91
478.04	323.77
478.41	323.73
478.77	323.93
479.14	323.89
479.50	324.07
479.87	324.39
480.23	324.75
480.60	324.99
480.96	325.30
481.33	325.98
481.69	326.57
482.06	327.11
482.42	327.61
482.79	328.20
483.15	329.03
483.52	330.04
483.88	330.96
484.25	331.91
484.61	332.95
484.98	333.99
485.34	335.29
485.71	336.66
486.07	338.17
486.44	339.52
486.80	341.13
487.17	342.82
487.53	344.66
487.90	346.50
488.26	348.54
488.62	350.62
488.99	352.64
489.35	354.74
489.72	357.08
490.08	359.59
490.44	362.13
490.81	364.84
491.17	367.55
491.54	370.54
491.90	373.56
492.26	376.80
492.63	380.24
492.99	383.71
493.36	387.39
493.72	391.21
494.08	395.15
494.45	399.37
494.81	403.72
495.17	408.16
495.54	412.81
495.90	417.61
496.26	422.59
496.63	427.77
496.99	433.13
497.35	438.73
497.72	444.55
498.08	450.47
498.44	456.50
498.80	462.83
499.17	469.30
499.53	475.94
499.89	482.84
500.26	489.77
500.62	496.76
500.98	504.19
501.34	511.66
501.71	519.43
502.07	527.21
502.43	535.22
502.79	543.36
503.16	551.74
503.52	560.28
503.88	569.00
504.24	577.87
504.60	586.96
504.97	596.17
505.33	605.40
505.69	615.28
506.05	625.11
506.41	634.86
506.78	644.89
507.14	655.12
507.50	665.53
507.86	676.26
508.22	687.07
508.59	697.69
508.95	708.69
509.31	719.94
509.67	731.36
510.03	742.74
510.39	754.41
510.75	766.25
511.12	778.08
511.48	790.08
511.84	802.31
512.20	814.58
512.56	827.07
512.92	839.77
513.28	852.17
513.64	864.83
514.00	877.64
514.37	890.46
514.73	903.43
515.09	916.23
515.45	928.94
515.81	941.77
516.17	954.99
516.53	968.03
516.89	980.99
517.25	994.01
517.61	1007.33
517.97	1020.47
518.33	1033.42
518.69	1046.81
519.05	1060.41
519.41	1073.80
519.77	1087.52
520.13	1100.61
520.49	1113.56
520.85	1126.82
521.21	1139.87
521.57	1153.38
521.93	1166.33
522.29	1179.82
522.65	1193.28
523.01	1206.72
523.37	1219.62
523.73	1232.64
524.09	1245.59
524.45	1258.72
524.81	1271.92
525.17	1285.01
525.53	1297.91
525.89	1310.94
526.25	1323.72
526.61	1336.21
526.97	1349.03
527.33	1361.56
527.68	1374.76
528.04	1388.00
528.40	1400.90
528.76	1414.06
529.12	1426.69
529.48	1439.80
529.84	1451.76
530.20	1464.22
530.56	1476.51
530.91	1489.66
531.27	1502.25
531.63	1514.84
531.99	1527.25
532.35	1539.26
532.71	1551.20
533.07	1563.84
533.42	1575.84
533.78	1587.57
534.14	1599.33
534.50	1610.31
534.86	1621.57
535.21	1632.15
535.57	1643.25
535.93	1654.20
536.29	1664.93
536.65	1675.95
537.00	1686.51
537.36	1697.63
537.72	1708.42
538.08	1719.29
538.44	1729.76
538.79	1740.42
539.15	1750.76
539.51	1761.25
539.87	1772.25
540.22	1782.87
540.58	1793.50
540.94	1803.91
541.29	1813.97
541.65	1823.43
542.01	1833.68
542.37	1843.55
542.72	1853.52
543.08	1863.08
543.44	1873.18
543.79	1882.31
544.15	1891.48
544.51	1901.16
544.87	1910.72
545.22	1919.30
545.58	1928.04
545.94	1936.64
546.29	1945.00
546.65	1953.20
547.01	1961.17
547.36	1968.58
547.72	1976.19
548.07	1983.50
548.43	1991.07
548.79	1998.61
549.14	2006.52
549.50	2014.65
549.86	2022.17
550.21	2029.25
550.57	2036.61
550.92	2043.18
551.28	2050.42
551.64	2057.46
551.99	2064.68
552.35	2071.68
552.70	2078.59
553.06	2085.19
553.41	2091.30
553.77	2097.54
554.13	2103.81
554.48	2110.65
554.84	2117.38
555.19	2123.51
555.55	2129.97
555.90	2136.12
556.26	2142.85
556.61	2148.64
556.97	2153.42
557.32	2159.25
557.68	2165.58
558.03	2171.11
558.39	2176.23
558.74	2182.04
559.10	2187.69
559.45	2193.14
559.81	2198.75
560.16	2204.15
560.52	2209.94
560.87	2216.40
561.23	2222.35
561.58	2228.87
561.94	2234.11
562.29	2239.13
562.64	2245.37
563.00	2250.74
563.35	2256.42
563.71	2262.20
564.06	2267.79
564.42	2273.73
564.77	2278.79
565.12	2283.80
565.48	2289.28
565.83	2294.97
566.19	2300.69
566.54	2305.98
566.89	2310.84
567.25	2315.46
567.60	2321.25
567.96	2326.41
568.31	2331.03
568.66	2335.39
569.02	2339.42
569.37	2343.13
569.72	2347.45
570.08	2351.05
570.43	2354.31
570.78	2357.45
571.14	2360.18
571.49	2363.58
571.84	2367.16
572.20	2370.11
572.55	2373.46
572.90	2375.66
573.26	2378.69
573.61	2381.15
573.96	2383.63
574.31	2385.61
574.67	2387.55
575.02	2388.53
575.37	2390.13
575.72	2391.11
576.08	2392.75
576.43	2393.15
576.78	2394.05
577.13	2396.02
577.49	2397.30
577.84	2398.77
578.19	2400.36
578.54	2401.29
578.90	2402.44
579.25	2402.56
579.60	2403.02
579.95	2402.63
580.30	2403.20
580.66	2402.71
581.01	2401.22
581.36	2399.23
581.71	2398.21
582.06	2397.43
582.42	2396.70
582.77	2394.69
583.12	2393.27
583.47	2392.31
583.82	2391.93
584.17	2390.72
584.53	2388.76
584.88	2386.91
585.23	2385.23
585.58	2383.12
585.93	2381.10
586.28	2379.05
586.63	2376.95
586.98	2374.88
587.34	2373.12
587.69	2370.86
588.04	2369.03
588.39	2367.84
588.74	2365.48
589.09	2363.00
589.44	2360.11
589.79	2358.12
590.14	2356.59
590.49	2353.97
590.84	2350.38
591.19	2347.59
591.54	2344.49
591.89	2340.57
592.25	2337.60
592.60	2333.42
592.95	2329.46
593.30	2325.40
593.65	2321.08
594.00	2316.81
594.35	2313.81
594.70	2309.37
595.05	2304.93
595.40	2299.66
595.75	2294.24
596.10	2290.61
596.45	2285.79
596.80	2281.27
597.15	2275.92
597.50	2270.03
597.85	2265.21
598.19	2259.94
598.54	2254.23
598.89	2249.26
599.24	2244.88
599.59	2238.90
599.94	2233.45
600.29	2227.84
600.64	2222.18
600.99	2215.87
601.34	2210.68
601.69	2203.83
602.04	2197.45
602.39	2191.19
602.74	2185.24
603.08	2179.75
603.43	2173.49
603.78	2166.86
604.13	2159.95
604.48	2152.95
604.83	2146.93
605.18	2140.73
605.53	2133.90
605.87	2126.92
606.22	2120.32
606.57	2112.40
606.92	2104.52
607.27	2097.52
607.62	2090.84
607.96	2083.90
608.31	2077.33
608.66	2069.65
609.01	2062.13
609.36	2055.10
609.70	2047.28
610.05	2039.49
610.40	2031.31
610.75	2023.09
611.10	2015.54
611.44	2006.74
611.79	1998.12
612.14	1988.29
612.49	1977.80
612.83	1968.81
613.18	1959.83
613.53	1950.53
613.88	1941.23
614.22	1932.75
614.57	1922.98
614.92	1912.59
615.27	1902.59
615.61	1892.62
615.96	1882.90
616.31	1873.43
616.65	1864.19
617.00	1854.47
617.35	1844.99
617.70	1835.24
618.04	1825.10
618.39	1814.66
618.74	1805.02
619.08	1795.40
619.43	1786.66
619.78	1778.46
620.12	1769.46
620.47	1759.58
620.82	1749.27
621.16	1739.38
621.51	1729.39
621.85	1719.57
622.20	1708.92
622.55	1698.23
622.89	1688.38
623.24	1678.59
623.59	1668.76
623.93	1658.46
624.28	1648.72
624.62	1638.45
624.97	1628.01
625.32	1618.34
625.66	1609.71
626.01	1600.83
626.35	1591.36
626.70	1581.24
627.04	1571.13
627.39	1561.09
627.73	1551.82
628.08	1542.84
628.43	1533.20
628.77	1524.06
629.12	1515.05
629.46	1507.27
629.81	1498.77
630.15	1488.93
630.50	1479.04
630.84	1468.56
631.19	1458.73
631.53	1449.19
631.88	1439.01
632.22	1429.08
632.57	1419.68
632.91	1409.34
633.26	1399.46
633.60	1389.88
633.95	1380.51
634.29	1371.03
634.64	1361.61
634.98	1351.70
635.32	1342.30
635.67	1333.75
636.01	1324.31
636.36	1314.59
636.70	1304.90
637.05	1295.53
637.39	1286.65
637.73	1278.06
638.08	1270.40
638.42	1262.00
638.77	1253.12
639.11	1244.88
639.45	1236.93
639.80	1228.16
640.14	1219.48
640.49	1210.50
640.83	1201.63
641.17	1193.50
641.52	1185.18
641.86	1176.62
642.20	1168.67
642.55	1160.09
642.89	1151.20
643.23	1142.48
643.58	1134.23
643.92	1125.26
644.26	1116.60
644.61	1108.23
644.95	1099.41
645.29	1090.08
645.64	1080.94
645.98	1072.72
646.32	1064.76
646.66	1056.31
647.01	1047.95
647.35	1039.78
647.69	1031.44
648.04	1023.18
648.38	1014.22
648.72	1005.53
649.06	997.07
649.41	988.94
649.75	980.85
650.09	972.92
650.43	964.82
650.78	956.66
651.12	949.01
651.46	941.69
651.80	934.34
652.14	927.07
652.49	919.60
652.83	912.35
653.17	904.53
653.51	896.97
653.85	889.75
654.20	882.56
654.54	874.97
654.88	867.89
655.22	860.74
655.56	853.80
655.90	847.01
656.25	840.40
656.59	833.31
656.93	826.39
657.27	819.36
657.61	812.59
657.95	806.55
658.29	800.73
658.64	794.45
658.98	788.02
659.32	781.48
659.66	775.41
660.00	768.98
660.34	763.03
660.68	756.97
661.02	750.70
661.36	744.81
661.70	739.11
662.05	733.42
662.39	727.95
662.73	722.68
663.07	717.34
663.41	711.72
663.75	706.24
664.09	700.69
664.43	695.28
664.77	689.90
665.11	684.04
665.45	678.12
665.79	672.47
666.13	666.84
666.47	661.38
666.81	655.95
667.15	650.69
667.49	645.52
667.83	640.25
668.17	635.11
668.51	630.04
668.85	625.17
669.19	620.32
669.53	615.32
669.87	610.24
670.21	605.54
670.55	600.92
670.89	596.59
671.23	592.31
671.57	588.04
671.91	583.86
672.25	579.83
672.58	575.72
672.92	571.71
673.26	567.84
673.60	564.07
673.94	560.32
674.28	556.78
674.62	553.04
674.96	549.43
675.30	545.87
675.64	542.29
675.97	538.77
676.31	535.22
676.65	531.69
676.99	528.25
677.33	524.43
677.67	520.79
678.01	516.95
678.34	513.39
678.68	509.88
679.02	506.29
679.36	502.68
679.70	499.10
680.04	495.59
680.37	492.25
680.71	488.98
681.05	485.85
681.39	482.72
681.73	479.66
682.06	476.64
682.40	473.58
682.74	470.42
683.08	467.27
683.42	464.18
683.75	461.27
684.09	458.32
684.43	455.60
684.77	452.76
685.10	449.99
685.44	447.10
685.78	444.24
686.12	441.57
686.45	438.87
686.79	436.28
687.13	433.81
687.46	431.15
687.80	428.49
688.14	425.71
688.48	423.12
688.81	420.51
689.15	418.00
689.49	415.43
689.82	412.98
690.16	410.46
690.50	408.06
690.83	405.59
691.17	403.13
691.51	400.75
691.84	398.57
692.18	396.40
692.52	394.23
692.85	392.19
693.19	390.05
693.52	387.90
693.86	385.75
694.20	383.60
694.53	381.53
694.87	379.46
695.21	377.32
695.54	375.21
695.88	373.13
696.21	370.97
696.55	368.91
696.88	366.87
697.22	364.96
697.56	363.11
697.89	361.28
698.23	359.54
698.56	357.78
698.90	356.08
699.23	354.16
699.57	352.34
699.90	350.51
700.24	348.75
700.58	347.06
700.91	345.43
701.25	343.92
701.58	342.36
701.92	340.76
702.25	339.25
702.59	337.64
702.92	336.10
703.26	334.61
703.59	333.18
703.93	331.99
704.26	330.56
704.60	329.09
704.93	327.67
705.26	326.21
705.60	324.75
705.93	323.22
706.27	321.94
706.60	320.72
706.94	319.48
707.27	318.14
707.61	316.84
707.94	315.53
708.27	314.05
708.61	312.65
708.94	311.33
709.28	310.07
709.61	308.88
709.94	307.73
710.28	306.51
710.61	305.38
710.95	303.97
711.28	302.93
711.61	301.75
711.95	300.64
712.28	299.50
712.61	298.34
712.95	297.37
713.28	296.36
713.61	295.25
713.95	294.15
714.28	293.12
714.61	292.13
714.95	291.14
715.28	290.17
715.61	289.23
715.95	288.31
716.28	287.38
716.61	286.45
716.95	285.51
717.28	284.65
717.61	283.72
717.94	282.85
718.28	281.89
718.61	281.05
718.94	280.16
719.27	279.36
719.61	278.60
719.94	277.71
720.27	276.76
720.60	275.91
720.94	275.12
721.27	274.42
721.60	273.73
721.93	273.06
722.27	272.45
722.60	271.78
722.93	271.10
723.26	270.45
723.59	269.74
723.93	269.11
724.26	268.43
724.59	267.82
724.92	267.30
725.25	266.76
725.59	266.21
725.92	265.73
726.25	265.17
726.58	264.58
726.91	264.02
727.24	263.54
727.57	263.04
727.91	262.44
728.24	261.89
728.57	261.31
728.90	260.76
729.23	260.10
729.56	259.65
729.89	259.17
730.22	258.62
730.55	258.12
730.89	257.55
731.22	257.06
731.55	256.54
731.88	256.01
732.21	255.49
732.54	254.95
732.87	254.43
733.20	253.95
733.53	253.53
733.86	253.12
734.19	252.65
734.52	252.22
734.85	251.99
735.18	251.54
735.51	251.15
735.84	250.71
736.17	250.38
736.50	249.87
736.83	249.68
737.16	249.31
737.49	248.91
737.82	248.53
738.15	248.17
738.48	247.79
738.81	247.38
739.14	246.97
739.47	246.61
739.80	246.25
740.13	245.92
740.46	245.51
740.79	245.12
741.12	244.76
741.45	244.41
741.78	243.95
742.11	243.71
742.44	243.36
742.77	243.08
743.10	242.73
743.43	242.43
743.75	241.86
744.08	241.81
744.41	241.48
744.74	241.15
745.07	240.81
745.40	240.50
745.73	240.27
746.06	239.99
746.39	239.67
746.71	239.35
747.04	239.00
747.37	238.70
747.70	238.41
748.03	238.15
748.36	237.91
748.68	237.62
749.01	237.25
749.34	236.96
749.67	236.68
750.00	236.43
750.33	236.29
750.65	236.07
750.98	235.55
751.31	235.32
751.64	235.14
751.97	235.03
752.29	234.82
752.62	234.48
752.95	234.20
753.28	233.95
753.60	233.70
753.93	233.54
754.26	233.35
754.59	233.08
754.91	232.83
755.24	232.55
755.57	232.31
755.90	232.09
756.22	231.86
756.55	231.63
756.88	231.41
757.20	231.09
757.53	230.85
757.86	230.65
758.19	230.50
758.51	230.27
758.84	229.98
759.17	229.75
759.49	229.60
759.82	229.58
760.15	229.44
760.47	229.28
760.80	229.04
761.13	228.91
761.45	228.73
761.78	228.53
762.11	228.40
762.43	228.23
762.76	228.08
763.08	227.94
763.41	227.80
763.74	227.66
764.06	227.48
764.39	227.32
764.71	227.15
765.04	226.95
765.37	226.84
765.69	226.67
766.02	226.58
766.34	226.43
766.67	226.16
767.00	226.10
767.32	226.08
767.65	226.07
767.97	225.89
768.30	225.79
768.62	225.69
768.95	225.51
769.27	225.40
769.60	225.28
769.92	225.15
770.25	225.00
770.57	224.83
770.90	224.69
771.22	224.56
771.55	224.46
771.87	224.35
772.20	224.20
772.52	224.26
772.85	224.37
773.17	224.27
773.50	224.18
773.82	224.07
774.15	223.88
774.47	223.70
774.80	223.59
775.12	223.46
775.45	223.39
775.77	223.35
776.09	223.27
776.42	223.24
776.74	223.21
777.07	223.09
777.39	223.05
777.72	222.96
778.04	222.92
778.36	222.84
778.69	222.76
779.01	222.67
779.33	222.43
779.66	222.10
779.98	221.99
780.31	221.90
780.63	221.88
780.95	221.86
781.28	221.77
781.60	221.69
781.92	221.62
782.25	221.54
782.57	221.43
782.89	221.34
783.22	221.19
783.54	221.08
783.86	221.05
784.19	220.95
784.51	220.93
784.83	220.84
785.16	220.80
785.48	220.76
785.80	220.70
786.12	220.68
786.45	220.64
786.77	220.61
787.09	220.54
787.42	220.41
787.74	220.33
788.06	220.25
788.38	220.17
788.71	220.14
789.03	220.11
789.35	220.09
789.67	220.02
789.99	220.01
790.32	219.93
790.64	219.89
790.96	220.04
791.28	219.95
791.61	219.87
791.93	219.81
792.25	219.75
792.57	219.86
792.89	219.76
793.21	219.72
793.54	219.68
793.86	219.59
794.18	219.54
794.50	219.46
794.82	219.45
795.14	219.44
795.47	219.43
795.79	219.37
796.11	219.31
796.43	219.24
796.75	219.15
797.07	219.16
797.39	219.11
797.71	218.93
798.04	218.89
798.36	218.90
798.68	218.86
799.00	218.81
799.32	218.66
799.64	218.66
799.96	218.66
800.28	218.67
800.60	218.67
800.92	218.62
801.24	218.58
801.56	218.54
801.89	218.49
802.21	218.46
802.53	218.37
802.85	218.39
803.17	218.48
803.49	218.48
803.81	218.42
804.13	218.34
804.45	218.27
804.77	218.24
805.09	218.20
805.41	218.17
805.73	218.12
806.05	218.06
806.37	218.04
806.69	217.98
807.01	217.93
807.33	217.93
807.65	217.86
807.97	217.97
808.28	217.92
808.60	217.89
808.92	217.83
809.24	217.92
809.56	217.85
809.88	217.77
810.20	217.74
810.52	217.73
810.84	217.72
811.16	217.69
811.48	217.69
811.80	217.71
812.12	217.68
812.43	217.71
812.75	217.68
813.07	217.58
813.39	217.58
813.71	217.53
814.03	217.45
814.35	217.45
814.67	217.34
814.98	217.32
815.30	217.29
815.62	217.26
815.94	217.12
816.26	217.11
816.58	217.06
816.89	217.05
817.21	217.00
817.53	216.99
817.85	216.96
818.17	216.95
818.48	216.86
818.80	216.89
819.12	216.83
819.44	216.79
819.76	216.78
820.07	216.78
820.39	216.73
820.71	216.74
821.03	216.73
821.34	216.67
821.66	216.65
821.98	216.67
822.30	216.66
822.61	216.78
822.93	216.73
823.25	216.70
823.57	216.67
823.88	216.72
824.20	216.71
824.52	216.74
824.83	216.68
825.15	216.62
825.47	216.62
825.79	216.64
826.10	216.62
826.42	216.61
826.74	216.57
827.05	216.55
827.37	216.55
827.69	216.54
828.00	216.55
828.32	216.55
828.64	216.48
828.95	216.58
829.27	216.50
829.58	216.52
829.90	216.55
830.22	216.54
830.53	216.46
830.85	216.41
831.17	216.37
831.48	216.38
831.80	216.41
832.11	216.35
832.43	216.33
832.75	216.33
833.06	216.44
833.38	216.39
833.69	216.43
834.01	216.44
834.32	216.38
834.64	216.34
834.96	216.33
835.27	216.34
835.59	216.24
835.90	216.21
836.22	216.19
836.53	216.12
836.85	216.14
837.16	216.32
837.48	216.33
837.79	216.37
838.11	216.38
838.42	216.37
838.74	216.37
839.05	216.32
839.37	216.32
839.68	216.19
840.00	216.19
840.31	216.19
840.63	216.17
840.94	216.19
841.26	216.17
841.57	216.14
841.88	216.14
842.20	216.12
842.51	216.06
842.83	216.01
843.14	216.20
843.46	216.16
843.77	216.05
844.08	216.01
844.40	215.97
844.71	215.94
845.03	215.91
845.34	215.89
845.65	215.91
845.97	215.88
846.28	215.89
846.60	215.90
846.91	215.86
847.22	215.83
847.54	215.88
847.85	215.90
848.16	215.87
848.48	215.83
848.79	215.92
849.10	215.97
849.42	216.03
849.73	215.83
850.04	215.83
850.36	215.76
850.67	215.83
850.98	215.80
851.30	215.80
851.61	215.78
851.92	215.74
852.23	215.81
852.55	215.80
852.86	215.81
853.17	215.79
853.49	215.82
853.80	215.87
854.11	215.87
854.42	215.90
854.74	215.91
855.05	215.92
855.36	215.82
855.67	215.80
855.99	215.79
856.30	216.04
856.61	216.03
856.92	216.01
857.23	215.98
857.55	215.97
857.86	215.96
858.17	216.01
858.48	216.03
858.79	215.96
859.11	215.99
859.42	215.97
859.73	215.95
860.04	215.92
860.35	215.86
860.66	215.79
860.98	215.76
861.29	215.79
861.60	215.78
861.91	215.79
862.22	215.78
862.53	215.73
862.84	215.50
863.16	215.54
863.47	215.53
863.78	215.51
864.09	215.56
864.40	215.58
864.71	215.59
865.02	215.58
865.33	215.54
865.64	215.52
865.95	215.52
866.27	215.63
866.58	215.61
866.89	215.63
867.20	215.61
867.51	215.59
867.82	215.56
868.13	215.61
868.44	215.59
868.75	215.62
869.06	215.65
869.37	215.68
869.68	215.60
869.99	215.67
870.30	215.69
870.61	215.64
870.92	215.59
871.23	215.54
871.54	215.60
871.85	215.64
872.16	215.66
872.47	215.63
872.78	215.53
873.09	215.57
873.40	215.53
873.71	215.56
874.02	215.55
874.33	215.52
874.64	215.48
874.95	215.49
875.26	215.44
875.56	215.42
875.87	215.35
876.18	215.37
876.49	215.52
876.80	215.50
877.11	215.52
877.42	215.53
877.73	215.56
878.04	215.50
878.35	215.50
878.66	215.46
878.96	215.49
879.27	215.45
879.58	215.46
879.89	215.48
880.20	215.50
880.51	215.50
880.82	215.52
881.12	215.52
881.43	215.47
881.74	215.45
882.05	215.43
882.36	215.44
882.67	215.43
882.97	215.20
883.28	215.16
883.59	215.14
883.90	215.16
884.21	215.15
884.51	215.14
884.82	215.12
885.13	215.16
885.44	215.14
885.74	215.14
886.05	215.12
886.36	215.11
886.67	215.04
886.98	215.15
887.28	215.16
887.59	215.16
887.90	215.18
888.20	215.16
888.51	215.21
888.82	215.19
889.13	215.21
889.43	215.39
889.74	215.38
890.05	215.38
890.35	215.33
890.66	215.33
890.97	215.34
891.28	215.32
891.58	215.30
891.89	215.32
892.20	215.30
892.50	215.28
892.81	215.27
893.12	215.28
893.42	215.16
893.73	215.18
894.04	215.17
894.34	215.17
894.65	215.20
894.95	215.20
895.26	215.19
895.57	215.29
895.87	215.12
896.18	215.16
896.48	215.18
896.79	215.22
897.10	215.25
897.40	215.23
897.71	215.26
898.01	215.24
898.32	215.26
898.63	215.27
898.93	215.27
899.24	215.31
899.54	215.31
899.85	215.34
900.15	215.33
900.46	215.32
900.76	215.34
901.07	215.33
901.38	215.31
901.68	215.34
901.99	215.24
902.29	215.23
902.60	215.21
902.90	215.19
903.21	215.15
903.51	215.14
903.82	215.19
904.12	215.19
904.43	215.18
904.73	215.17
905.03	215.15
905.34	215.33
905.64	215.26
905.95	215.26
906.25	215.23
906.56	215.20
906.86	215.20
907.17	215.20
907.47	215.20
907.77	215.16
908.08	215.13
908.38	215.16
908.69	215.19
908.99	215.24
909.30	215.26
909.60	215.27
909.90	215.27
910.21	215.22
910.51	215.22
910.81	215.24
911.12	215.24
911.42	215.25
911.73	215.07
912.03	215.13
912.33	215.18
912.64	215.20
912.94	215.19
913.24	215.17
913.55	215.15
913.85	215.14
914.15	215.22
914.46	215.24
914.76	215.18
915.06	215.17
915.37	215.13
915.67	215.12
915.97	215.14
916.27	215.11
916.58	215.11
916.88	215.08
917.18	215.06
917.49	215.20
917.79	215.20
918.09	215.26
918.39	215.25
918.70	215.26
919.00	215.27
919.30	215.39
919.60	215.38
919.91	215.35
920.21	215.34
920.51	215.27
920.81	215.25
921.12	215.28
921.42	215.29
921.72	215.27
922.02	215.28
922.32	215.29
922.63	215.26
922.93	215.36
923.23	215.40
923.53	215.38
923.83	215.23
924.13	215.26
924.44	215.23
924.74	215.28
925.04	215.31
925.34	215.30
925.64	215.17
925.94	215.16
926.24	215.27
926.55	215.26
926.85	215.29
927.15	215.29
927.45	215.31
927.75	215.31
928.05	215.32
928.35	215.29
928.65	215.32
928.95	215.35
929.26	215.27
929.56	215.31
929.86	215.34
930.16	215.33
930.46	215.27
930.76	215.29
931.06	215.21
931.36	215.15
931.66	215.17
931.96	215.21
932.26	215.24
932.56	215.16
932.86	215.18
933.16	215.19
933.46	215.15
933.76	215.12
934.06	215.15
934.36	215.21
934.66	215.20
934.96	215.19
935.26	215.19
935.56	215.22
935.86	215.13
936.16	215.08
936.46	215.11
936.76	215.13
937.06	215.06
937.36	215.05
937.66	215.08
937.96	215.07
938.26	215.03
938.56	215.00
938.86	215.01
939.16	215.04
939.46	215.06
939.76	215.11
940.06	215.11
940.35	215.04
940.65	214.94
940.95	214.98
941.25	214.92
941.55	214.91
941.85	214.90
942.15	214.95
942.45	215.03
942.75	215.00
943.04	214.98
943.34	215.03
943.64	214.99
943.94	214.95
944.24	214.96
944.54	214.93
944.84	214.94
945.13	214.89
945.43	214.89
945.73	214.83
946.03	214.82
946.33	214.75
946.62	214.76
946.92	214.77
947.22	214.74
947.52	214.74
947.82	214.76
948.11	214.72
948.41	214.68
948.71	214.60
949.01	214.59
949.31	214.58
949.60	214.57
949.90	214.61
950.20	214.60
950.50	214.57
950.79	214.60
951.09	214.63
951.39	214.67
951.69	214.62
951.98	214.68
952.28	214.69
952.58	214.71
952.87	214.70
953.17	214.74
953.47	214.75
953.76	214.74
954.06	214.69
954.36	214.67
954.66	214.68
954.95	214.75
955.25	214.77
955.55	214.76
955.84	214.73
956.14	214.77
956.44	214.78
956.73	214.78
957.03	214.81
957.32	214.80
957.62	214.80
957.92	214.85
958.21	214.84
958.51	215.06
958.81	215.11
959.10	215.12
959.40	215.14
959.69	215.16
959.99	215.21
960.29	215.21
960.58	215.20
960.88	215.25
961.17	215.24
961.47	215.24
961.76	215.25
962.06	215.30
962.36	215.27
962.65	215.28
962.95	215.26
963.24	215.22
963.54	215.23
963.83	215.20
964.13	215.17
964.42	215.12
964.72	214.94
965.01	214.98
965.31	214.99
965.60	214.95
965.90	215.06
966.19	215.02
966.49	215.04
966.78	215.05
967.08	215.03
967.37	215.00
967.67	214.97
967.96	215.02
968.26	215.00
968.55	215.02
968.85	215.02
969.14	215.02
969.43	215.02
969.73	214.99
970.02	215.03
970.32	215.03
970.61	215.04
970.91	214.97
971.20	214.89
971.49	214.84
971.79	214.88
972.08	214.77
972.38	214.79
972.67	214.77
972.96	214.80
973.26	214.77
973.55	214.86
973.85	214.83
974.14	214.83
974.43	214.85
974.73	214.80
975.02	214.78
975.31	214.78
975.61	214.80
975.90	214.79
976.19	214.75
976.49	214.74
976.78	214.77
977.07	214.80
977.37	214.82
977.66	214.85
977.95	214.83
978.24	214.87
978.54	214.89
978.83	214.87
979.12	214.85
979.42	214.82
979.71	214.78
980.00	214.79
980.29	214.78
980.59	214.73
980.88	214.84
981.17	214.87
981.46	214.90
981.76	214.89
982.05	214.94
982.34	214.96
982.63	214.97
982.93	214.95
983.22	215.00
983.51	215.03
983.80	215.06
984.09	215.10
984.39	215.04
984.68	215.02
984.97	215.05
985.26	215.06
985.55	215.12
985.85	215.07
986.14	215.11
986.43	215.14
986.72	215.14
987.01	215.05
987.30	215.04
987.59	215.01
987.89	215.02
988.18	214.99
988.47	214.99
988.76	214.99
989.05	214.98
989.34	214.93
989.63	214.94
989.92	214.95
990.22	214.88
990.51	214.89
990.80	214.89
991.09	214.89
991.38	214.90
991.67	214.84
991.96	214.82
992.25	214.83
992.54	214.76
992.83	214.77
993.12	214.76
993.41	214.76
993.70	214.82
993.99	214.86
994.28	214.86
994.58	214.87
994.87	214.84
995.16	214.86
995.45	214.84
995.74	214.78
996.03	214.79
996.32	214.87
996.61	214.90
996.90	214.88
997.19	214.89
997.48	214.92
997.77	214.91
998.06	214.93
998.34	214.91
998.63	214.93
998.92	214.93
999.21	214.95
999.50	214.99
999.79	214.94
1000.08	214.93
1000.37	214.94
1000.66	214.93
1000.95	215.00
1001.24	215.00
1001.53	215.02
1001.82	215.02
1002.11	214.96
1002.40	214.96
1002.68	215.03
1002.97	215.15
1003.26	215.12
1003.55	215.07
1003.84	215.11
1004.13	215.20
1004.42	215.17
1004.71	215.15
1004.99	215.13
1005.28	215.19
1005.57	215.11
1005.86	215.10
1006.15	215.06
1006.44	215.05
1006.72	215.07
1007.01	215.00
1007.30	214.97
1007.59	214.94
1007.88	214.93
1008.17	214.97
1008.45	214.91
1008.74	214.80
1009.03	214.72
1009.32	214.73
1009.60	214.74
1009.89	214.71
1010.18	214.63
1010.47	214.65
1010.76	214.65
1011.04	214.65
1011.33	214.65
1011.62	214.70
1011.91	214.69
1012.19	214.72
1012.48	214.72
1012.77	214.75
1013.05	214.86
1013.34	214.88
1013.63	214.89
1013.92	214.90
1014.20	214.88
1014.49	214.89
1014.78	214.91
1015.06	214.84
1015.35	214.85
1015.64	214.87
1015.92	214.92
1016.21	214.94
1016.50	214.97
1016.78	214.96
1017.07	215.01
1017.36	214.93
1017.64	214.91
1017.93	214.96
1018.22	214.94
1018.50	214.92
1018.79	214.88
1019.08	214.77
1019.36	214.80
1019.65	214.78
1019.93	214.82
1020.22	214.85
1020.51	214.98
1020.79	214.94
1021.08	214.84
1021.36	214.22
1021.65	214.70
1021.94	214.71
1022.22	214.88
1022.51	214.39
1022.79	215.61
1023.08	215.24
1023.36	217.31
1023.65	214.20
>>>>>End Processed Spectral Data<<<<<
