SpectraSuite Data File
++++++++++++++++++++++++++++++++++++
Date: Tue Jan 29 16:39:57 EST 2013
User: group
Dark Spectrum Present: No
Reference Spectrum Present: No
Number of Sampled Component Spectra: 1
Spectrometers: USB2E7196
Integration Time (usec): 65000 (USB2E7196)
Spectra Averaged: 100 (USB2E7196)
Boxcar Smoothing: 10 (USB2E7196)
Correct for Electrical Dark: No (USB2E7196)
Strobe/Lamp Enabled: No (USB2E7196)
Correct for Detector Non-linearity: No (USB2E7196)
Correct for Stray Light: No (USB2E7196)
Number of Pixels in Processed Spectrum: 2048
>>>>>Begin Processed Spectral Data<<<<<
339.09	0.00
339.48	201.95
339.86	202.69
340.24	204.52
340.63	206.04
341.01	210.33
341.39	208.82
341.78	210.54
342.16	211.77
342.54	211.99
342.93	200.98
343.31	211.13
343.69	211.66
344.07	212.13
344.46	212.58
344.84	213.00
345.22	213.16
345.60	213.43
345.99	213.63
346.37	213.75
346.75	213.84
347.13	213.95
347.52	214.01
347.90	214.15
348.28	214.15
348.66	214.26
349.05	214.26
349.43	214.31
349.81	214.37
350.19	214.39
350.57	214.49
350.96	214.58
351.34	214.69
351.72	214.80
352.10	214.91
352.48	215.00
352.87	215.01
353.25	215.10
353.63	215.19
354.01	215.25
354.39	215.33
354.77	215.42
355.15	215.55
355.54	215.59
355.92	215.60
356.30	215.71
356.68	215.88
357.06	215.93
357.44	215.95
357.82	216.00
358.20	216.11
358.58	216.14
358.97	216.22
359.35	216.35
359.73	216.45
360.11	216.53
360.49	216.56
360.87	216.61
361.25	216.70
361.63	216.78
362.01	216.86
362.39	216.91
362.77	216.96
363.15	216.95
363.53	217.02
363.91	217.06
364.29	217.09
364.67	216.92
365.05	216.97
365.43	217.04
365.81	217.08
366.19	217.20
366.57	217.29
366.95	217.30
367.33	217.25
367.71	217.26
368.09	217.28
368.47	217.28
368.85	217.28
369.23	217.32
369.61	217.27
369.99	217.29
370.37	217.30
370.75	217.37
371.13	217.33
371.51	217.28
371.89	217.27
372.27	217.22
372.65	217.24
373.03	217.22
373.41	217.19
373.78	217.16
374.16	216.99
374.54	216.91
374.92	216.84
375.30	216.78
375.68	216.69
376.06	216.67
376.44	216.62
376.82	216.62
377.19	216.56
377.57	216.50
377.95	216.39
378.33	216.37
378.71	216.21
379.09	216.22
379.47	216.22
379.84	216.14
380.22	216.09
380.60	215.99
380.98	215.93
381.36	215.89
381.73	215.84
382.11	215.85
382.49	215.80
382.87	215.74
383.25	215.71
383.62	215.91
384.00	215.84
384.38	215.84
384.76	215.82
385.13	215.86
385.51	215.81
385.89	215.79
386.27	215.74
386.64	215.77
387.02	215.69
387.40	215.62
387.78	215.61
388.15	215.63
388.53	215.61
388.91	215.57
389.29	215.49
389.66	215.50
390.04	215.46
390.42	215.52
390.79	215.51
391.17	215.54
391.55	215.32
391.92	215.32
392.30	215.29
392.68	215.24
393.05	215.19
393.43	215.19
393.81	215.15
394.18	215.09
394.56	215.08
394.94	215.11
395.31	215.09
395.69	215.19
396.06	215.23
396.44	215.26
396.82	215.28
397.19	215.46
397.57	215.46
397.95	215.51
398.32	215.46
398.70	215.52
399.07	215.55
399.45	215.56
399.82	215.59
400.20	215.61
400.58	215.69
400.95	215.68
401.33	215.80
401.70	216.01
402.08	216.12
402.45	216.21
402.83	216.36
403.20	216.51
403.58	216.56
403.95	216.72
404.33	216.88
404.71	217.04
405.08	217.26
405.46	217.44
405.83	217.60
406.21	217.78
406.58	218.02
406.96	218.24
407.33	218.52
407.70	218.79
408.08	219.29
408.45	219.63
408.83	220.05
409.20	220.39
409.58	220.67
409.95	221.13
410.33	221.62
410.70	222.07
411.08	222.61
411.45	223.20
411.82	223.74
412.20	224.45
412.57	225.27
412.95	225.82
413.32	226.68
413.69	227.57
414.07	228.48
414.44	229.47
414.82	230.50
415.19	231.71
415.56	232.94
415.94	234.11
416.31	235.50
416.68	236.89
417.06	238.51
417.43	240.07
417.81	241.85
418.18	243.63
418.55	245.56
418.93	247.61
419.30	249.71
419.67	251.96
420.04	254.23
420.42	256.61
420.79	259.48
421.16	262.28
421.54	265.15
421.91	268.18
422.28	271.28
422.66	274.61
423.03	277.86
423.40	281.24
423.77	284.83
424.15	288.52
424.52	292.37
424.89	296.52
425.26	300.61
425.64	304.50
426.01	308.79
426.38	313.26
426.75	317.82
427.13	322.55
427.50	327.55
427.87	332.77
428.24	337.97
428.61	342.92
428.99	348.40
429.36	354.46
429.73	360.33
430.10	366.22
430.47	372.30
430.85	378.65
431.22	385.36
431.59	392.55
431.96	399.40
432.33	406.97
432.70	414.24
433.08	422.77
433.45	430.87
433.82	438.94
434.19	447.89
434.56	456.64
434.93	464.92
435.30	473.23
435.68	482.40
436.05	491.44
436.42	500.40
436.79	508.59
437.16	517.37
437.53	526.69
437.90	535.90
438.27	544.85
438.64	554.09
439.01	562.66
439.38	570.24
439.75	577.57
440.13	585.98
440.50	593.97
440.87	600.46
441.24	607.13
441.61	614.45
441.98	619.86
442.35	626.19
442.72	632.65
443.09	638.70
443.46	642.42
443.83	644.99
444.20	647.21
444.57	650.38
444.94	651.83
445.31	653.29
445.68	654.70
446.05	655.34
446.42	654.59
446.79	653.59
447.16	652.55
447.53	651.77
447.90	648.42
448.27	645.14
448.64	640.47
449.01	637.09
449.37	631.20
449.74	625.45
450.11	618.57
450.48	611.18
450.85	603.71
451.22	597.27
451.59	591.09
451.96	585.21
452.33	577.38
452.70	570.27
453.07	561.83
453.43	553.15
453.80	544.79
454.17	536.77
454.54	529.19
454.91	520.95
455.28	512.98
455.65	505.55
456.02	498.00
456.38	491.63
456.75	483.78
457.12	477.15
457.49	470.65
457.86	464.40
458.23	458.95
458.59	453.05
458.96	446.95
459.33	441.63
459.70	436.25
460.07	431.92
460.43	427.00
460.80	422.33
461.17	418.34
461.54	414.20
461.91	410.16
462.27	406.04
462.64	402.59
463.01	398.80
463.38	395.08
463.74	391.40
464.11	388.16
464.48	385.24
464.85	382.14
465.21	379.70
465.58	377.07
465.95	373.94
466.32	371.26
466.68	368.66
467.05	366.03
467.42	363.45
467.78	360.77
468.15	358.22
468.52	356.33
468.88	353.81
469.25	351.56
469.62	349.72
469.98	347.77
470.35	345.98
470.72	344.26
471.08	342.48
471.45	340.93
471.82	339.41
472.18	337.78
472.55	336.57
472.92	335.19
473.28	333.99
473.65	332.79
474.02	331.67
474.38	330.79
474.75	330.04
475.11	329.22
475.48	328.64
475.85	328.15
476.21	327.62
476.58	327.25
476.94	327.00
477.31	326.73
477.67	326.46
478.04	326.24
478.41	326.16
478.77	326.27
479.14	326.21
479.50	326.32
479.87	326.59
480.23	326.92
480.60	327.12
480.96	327.34
481.33	327.92
481.69	328.48
482.06	328.98
482.42	329.49
482.79	330.05
483.15	330.78
483.52	331.75
483.88	332.69
484.25	333.63
484.61	334.62
484.98	335.63
485.34	336.96
485.71	338.34
486.07	339.83
486.44	341.15
486.80	342.80
487.17	344.48
487.53	346.34
487.90	348.18
488.26	350.26
488.62	352.44
488.99	354.53
489.35	356.71
489.72	359.09
490.08	361.62
490.44	364.25
490.81	366.99
491.17	369.71
491.54	372.64
491.90	375.66
492.26	378.93
492.63	382.37
492.99	385.86
493.36	389.52
493.72	393.34
494.08	397.37
494.45	401.59
494.81	405.95
495.17	410.36
495.54	415.08
495.90	419.86
496.26	424.81
496.63	430.00
496.99	435.45
497.35	441.04
497.72	446.85
498.08	452.80
498.44	458.88
498.80	465.31
499.17	471.84
499.53	478.53
499.89	485.41
500.26	492.40
500.62	499.48
500.98	506.85
501.34	514.32
501.71	522.20
502.07	530.04
502.43	538.03
502.79	546.17
503.16	554.53
503.52	563.18
503.88	571.89
504.24	580.82
504.60	589.90
504.97	599.18
505.33	608.48
505.69	618.27
506.05	628.28
506.41	638.12
506.78	648.18
507.14	658.49
507.50	668.97
507.86	679.67
508.22	690.44
508.59	701.20
508.95	712.33
509.31	723.47
509.67	734.96
510.03	746.45
510.39	758.27
510.75	770.22
511.12	782.11
511.48	794.24
511.84	806.53
512.20	818.90
512.56	831.53
512.92	844.38
513.28	857.12
513.64	869.81
514.00	882.65
514.37	895.70
514.73	908.93
515.09	921.92
515.45	934.87
515.81	948.02
516.17	961.46
516.53	974.84
516.89	988.13
517.25	1001.31
517.61	1014.90
517.97	1028.36
518.33	1041.57
518.69	1055.20
519.05	1068.96
519.41	1082.72
519.77	1096.61
520.13	1110.02
520.49	1123.34
520.85	1136.71
521.21	1150.13
521.57	1164.00
521.93	1177.13
522.29	1190.81
522.65	1204.57
523.01	1218.21
523.37	1231.48
523.73	1244.91
524.09	1258.10
524.45	1271.52
524.81	1285.11
525.17	1298.50
525.53	1311.70
525.89	1325.20
526.25	1338.36
526.61	1351.36
526.97	1364.58
527.33	1377.73
527.68	1391.28
528.04	1404.86
528.40	1418.21
528.76	1431.56
529.12	1444.61
529.48	1458.09
529.84	1470.50
530.20	1483.37
530.56	1496.05
530.91	1509.37
531.27	1522.35
531.63	1535.27
531.99	1548.24
532.35	1560.56
532.71	1573.02
533.07	1586.03
533.42	1598.24
533.78	1610.49
534.14	1622.65
534.50	1634.04
534.86	1645.50
535.21	1656.42
535.57	1667.90
535.93	1679.30
536.29	1690.63
536.65	1702.10
537.00	1713.05
537.36	1724.60
537.72	1735.78
538.08	1747.48
538.44	1758.63
538.79	1769.74
539.15	1780.66
539.51	1791.41
539.87	1802.89
540.22	1813.94
540.58	1825.01
540.94	1836.05
541.29	1846.41
541.65	1856.13
542.01	1866.62
542.37	1876.95
542.72	1887.28
543.08	1897.15
543.44	1907.68
543.79	1917.03
544.15	1926.60
544.51	1936.90
544.87	1946.85
545.22	1956.10
545.58	1964.97
545.94	1973.88
546.29	1982.46
546.65	1990.86
547.01	1999.24
547.36	2007.04
547.72	2014.85
548.07	2022.42
548.43	2030.23
548.79	2038.15
549.14	2046.60
549.50	2055.19
549.86	2063.11
550.21	2070.55
550.57	2078.46
550.92	2085.35
551.28	2092.94
551.64	2100.14
551.99	2107.52
552.35	2114.76
552.70	2121.61
553.06	2128.37
553.41	2134.68
553.77	2141.32
554.13	2147.80
554.48	2154.80
554.84	2161.93
555.19	2168.42
555.55	2175.00
555.90	2181.48
556.26	2188.54
556.61	2194.64
556.97	2199.51
557.32	2205.34
557.68	2211.92
558.03	2217.60
558.39	2223.06
558.74	2228.99
559.10	2234.58
559.45	2240.15
559.81	2245.75
560.16	2251.48
560.52	2257.28
560.87	2263.70
561.23	2269.40
561.58	2276.08
561.94	2281.32
562.29	2285.90
562.64	2291.96
563.00	2297.56
563.35	2302.87
563.71	2308.47
564.06	2314.03
564.42	2320.00
564.77	2324.99
565.12	2330.11
565.48	2335.19
565.83	2340.72
566.19	2346.09
566.54	2351.50
566.89	2356.13
567.25	2360.65
567.60	2366.21
567.96	2371.16
568.31	2375.79
568.66	2380.24
569.02	2383.99
569.37	2387.79
569.72	2392.24
570.08	2395.77
570.43	2398.78
570.78	2402.03
571.14	2404.46
571.49	2407.51
571.84	2410.88
572.20	2413.88
572.55	2416.79
572.90	2418.96
573.26	2421.56
573.61	2424.02
573.96	2426.08
574.31	2427.92
574.67	2429.67
575.02	2430.29
575.37	2431.85
575.72	2432.50
576.08	2433.87
576.43	2434.07
576.78	2434.37
577.13	2435.85
577.49	2436.95
577.84	2438.09
578.19	2439.12
578.54	2439.71
578.90	2440.39
579.25	2440.18
579.60	2439.91
579.95	2439.08
580.30	2439.11
580.66	2438.18
581.01	2436.40
581.36	2433.80
581.71	2432.23
582.06	2430.94
582.42	2429.96
582.77	2427.62
583.12	2425.80
583.47	2424.27
583.82	2423.55
584.17	2422.16
584.53	2419.94
584.88	2417.67
585.23	2415.44
585.58	2413.16
585.93	2410.96
586.28	2408.77
586.63	2406.18
586.98	2403.83
587.34	2401.70
587.69	2399.10
588.04	2396.88
588.39	2395.25
588.74	2392.72
589.09	2389.91
589.44	2386.74
589.79	2384.07
590.14	2381.94
590.49	2379.06
590.84	2375.04
591.19	2371.80
591.54	2368.42
591.89	2364.22
592.25	2360.79
592.60	2356.49
592.95	2352.14
593.30	2347.82
593.65	2343.07
594.00	2338.63
594.35	2335.58
594.70	2330.94
595.05	2326.30
595.40	2320.82
595.75	2315.05
596.10	2311.43
596.45	2306.59
596.80	2301.87
597.15	2296.56
597.50	2290.67
597.85	2285.66
598.19	2280.37
598.54	2274.47
598.89	2269.19
599.24	2264.58
599.59	2258.41
599.94	2252.62
600.29	2246.62
600.64	2240.65
600.99	2233.92
601.34	2228.26
601.69	2221.17
602.04	2214.66
602.39	2208.03
602.74	2201.83
603.08	2196.20
603.43	2189.50
603.78	2182.57
604.13	2175.40
604.48	2168.19
604.83	2161.98
605.18	2155.72
605.53	2148.70
605.87	2141.53
606.22	2134.81
606.57	2126.92
606.92	2118.90
607.27	2111.90
607.62	2105.41
607.96	2098.34
608.31	2091.81
608.66	2084.09
609.01	2076.52
609.36	2069.33
609.70	2061.50
610.05	2053.82
610.40	2045.56
610.75	2037.33
611.10	2029.68
611.44	2020.74
611.79	2012.04
612.14	2002.08
612.49	1991.32
612.83	1982.09
613.18	1972.85
613.53	1963.41
613.88	1953.65
614.22	1945.10
614.57	1935.28
614.92	1924.57
615.27	1914.34
615.61	1904.21
615.96	1894.52
616.31	1884.88
616.65	1875.54
617.00	1865.81
617.35	1856.09
617.70	1846.38
618.04	1836.35
618.39	1826.19
618.74	1816.54
619.08	1806.86
619.43	1798.19
619.78	1789.97
620.12	1781.35
620.47	1771.82
620.82	1761.48
621.16	1751.86
621.51	1741.90
621.85	1732.03
622.20	1721.72
622.55	1711.24
622.89	1701.36
623.24	1691.59
623.59	1681.75
623.93	1671.62
624.28	1661.95
624.62	1651.92
624.97	1641.62
625.32	1631.78
625.66	1622.79
626.01	1614.16
626.35	1604.85
626.70	1594.73
627.04	1584.64
627.39	1574.57
627.73	1565.31
628.08	1556.50
628.43	1546.91
628.77	1537.87
629.12	1529.03
629.46	1521.16
629.81	1512.85
630.15	1503.36
630.50	1493.71
630.84	1483.25
631.19	1473.30
631.53	1464.04
631.88	1453.89
632.22	1443.89
632.57	1434.65
632.91	1424.64
633.26	1414.76
633.60	1405.27
633.95	1396.01
634.29	1386.62
634.64	1377.28
634.98	1367.38
635.32	1358.05
635.67	1349.63
636.01	1340.24
636.36	1330.46
636.70	1321.01
637.05	1311.58
637.39	1302.70
637.73	1294.01
638.08	1286.56
638.42	1278.47
638.77	1269.67
639.11	1261.41
639.45	1253.64
639.80	1245.07
640.14	1236.34
640.49	1227.59
640.83	1218.71
641.17	1210.59
641.52	1202.43
641.86	1193.87
642.20	1186.04
642.55	1177.40
642.89	1168.42
643.23	1159.81
643.58	1151.71
643.92	1142.65
644.26	1134.04
644.61	1125.63
644.95	1116.92
645.29	1107.69
645.64	1098.52
645.98	1090.01
646.32	1082.21
646.66	1073.72
647.01	1065.40
647.35	1057.29
647.69	1048.91
648.04	1040.67
648.38	1031.76
648.72	1023.02
649.06	1014.63
649.41	1006.41
649.75	998.47
650.09	990.75
650.43	982.71
650.78	974.42
651.12	966.74
651.46	959.28
651.80	952.09
652.14	944.78
652.49	937.24
652.83	929.91
653.17	922.21
653.51	914.57
653.85	907.32
654.20	900.00
654.54	892.61
654.88	885.38
655.22	878.12
655.56	871.04
655.90	864.20
656.25	857.36
656.59	850.40
656.93	843.39
657.27	836.16
657.61	829.15
657.95	823.00
658.29	817.10
658.64	810.98
658.98	804.41
659.32	797.80
659.66	791.57
660.00	785.23
660.34	779.18
660.68	772.98
661.02	766.58
661.36	760.65
661.70	754.79
662.05	749.13
662.39	743.61
662.73	738.22
663.07	732.78
663.41	727.26
663.75	721.53
664.09	715.83
664.43	710.37
664.77	704.98
665.11	699.19
665.45	693.22
665.79	687.36
666.13	681.63
666.47	676.12
666.81	670.66
667.15	665.25
667.49	659.95
667.83	654.70
668.17	649.40
668.51	644.26
668.85	639.25
669.19	634.27
669.53	629.19
669.87	624.01
670.21	619.25
670.55	614.47
670.89	610.01
671.23	605.60
671.57	601.20
671.91	596.88
672.25	592.67
672.58	588.52
672.92	584.48
673.26	580.55
673.60	576.63
673.94	572.74
674.28	569.04
674.62	565.28
674.96	561.48
675.30	557.95
675.64	554.25
675.97	550.67
676.31	547.02
676.65	543.43
676.99	540.04
677.33	536.17
677.67	532.46
678.01	528.55
678.34	525.01
678.68	521.46
679.02	517.86
679.36	514.17
679.70	510.49
680.04	506.84
680.37	503.37
680.71	500.07
681.05	496.85
681.39	493.61
681.73	490.43
682.06	487.36
682.40	484.26
682.74	481.07
683.08	477.82
683.42	474.62
683.75	471.61
684.09	468.50
684.43	465.64
684.77	462.76
685.10	459.93
685.44	456.94
685.78	454.01
686.12	451.20
686.45	448.43
686.79	445.71
687.13	443.21
687.46	440.52
687.80	437.80
688.14	434.91
688.48	432.21
688.81	429.46
689.15	426.88
689.49	424.23
689.82	421.66
690.16	419.05
690.50	416.57
690.83	414.02
691.17	411.47
691.51	408.97
691.84	406.65
692.18	404.34
692.52	402.08
692.85	399.85
693.19	397.64
693.52	395.45
693.86	393.22
694.20	390.98
694.53	388.81
694.87	386.55
695.21	384.42
695.54	382.23
695.88	380.05
696.21	377.80
696.55	375.59
696.88	373.49
697.22	371.44
697.56	369.50
697.89	367.59
698.23	365.81
698.56	363.96
698.90	362.18
699.23	360.32
699.57	358.43
699.90	356.55
700.24	354.74
700.58	352.94
700.91	351.21
701.25	349.57
701.58	347.90
701.92	346.30
702.25	344.65
702.59	342.97
702.92	341.43
703.26	339.84
703.59	338.37
703.93	337.07
704.26	335.63
704.60	334.09
704.93	332.54
705.26	331.05
705.60	329.59
705.93	328.04
706.27	326.64
706.60	325.33
706.94	324.12
707.27	322.75
707.61	321.42
707.94	320.08
708.27	318.57
708.61	317.13
708.94	315.76
709.28	314.42
709.61	313.18
709.94	311.93
710.28	310.72
710.61	309.53
710.95	308.09
711.28	306.98
711.61	305.78
711.95	304.65
712.28	303.41
712.61	302.17
712.95	301.05
713.28	300.02
713.61	298.86
713.95	297.63
714.28	296.59
714.61	295.49
714.95	294.43
715.28	293.40
715.61	292.38
715.95	291.38
716.28	290.42
716.61	289.46
716.95	288.43
717.28	287.49
717.61	286.52
717.94	285.58
718.28	284.54
718.61	283.63
718.94	282.73
719.27	281.88
719.61	281.06
719.94	280.17
720.27	279.19
720.60	278.29
720.94	277.47
721.27	276.66
721.60	275.96
721.93	275.22
722.27	274.54
722.60	273.85
722.93	273.11
723.26	272.44
723.59	271.72
723.93	271.10
724.26	270.43
724.59	269.76
724.92	269.16
725.25	268.59
725.59	268.00
725.92	267.43
726.25	266.83
726.58	266.27
726.91	265.70
727.24	265.16
727.57	264.60
727.91	264.03
728.24	263.43
728.57	262.86
728.90	262.31
729.23	261.69
729.56	261.26
729.89	260.71
730.22	260.12
730.55	259.57
730.89	259.04
731.22	258.51
731.55	258.00
731.88	257.46
732.21	256.89
732.54	256.35
732.87	255.82
733.20	255.33
733.53	254.81
733.86	254.33
734.19	253.82
734.52	253.38
734.85	253.09
735.18	252.64
735.51	252.24
735.84	251.78
736.17	251.38
736.50	250.81
736.83	250.63
737.16	250.28
737.49	249.90
737.82	249.47
738.15	249.07
738.48	248.70
738.81	248.34
739.14	247.94
739.47	247.57
739.80	247.19
740.13	246.82
740.46	246.43
740.79	246.05
741.12	245.67
741.45	245.32
741.78	244.84
742.11	244.59
742.44	244.16
742.77	243.89
743.10	243.54
743.43	243.20
743.75	242.64
744.08	242.55
744.41	242.16
744.74	241.81
745.07	241.44
745.40	241.13
745.73	240.84
746.06	240.51
746.39	240.19
746.71	239.88
747.04	239.56
747.37	239.21
747.70	238.92
748.03	238.59
748.36	238.32
748.68	238.03
749.01	237.64
749.34	237.40
749.67	237.09
750.00	236.85
750.33	236.73
750.65	236.46
750.98	235.93
751.31	235.73
751.64	235.55
751.97	235.42
752.29	235.14
752.62	234.84
752.95	234.61
753.28	234.37
753.60	234.14
753.93	233.95
754.26	233.77
754.59	233.47
754.91	233.23
755.24	232.99
755.57	232.71
755.90	232.49
756.22	232.20
756.55	231.93
756.88	231.65
757.20	231.29
757.53	231.06
757.86	230.83
758.19	230.58
758.51	230.33
758.84	230.02
759.17	229.83
759.49	229.62
759.82	229.55
760.15	229.37
760.47	229.16
760.80	228.90
761.13	228.73
761.45	228.54
761.78	228.37
762.11	228.19
762.43	228.03
762.76	227.83
763.08	227.70
763.41	227.56
763.74	227.39
764.06	227.25
764.39	227.10
764.71	226.94
765.04	226.80
765.37	226.63
765.69	226.47
766.02	226.30
766.34	226.16
766.67	225.92
767.00	225.81
767.32	225.76
767.65	225.76
767.97	225.64
768.30	225.52
768.62	225.36
768.95	225.21
769.27	225.07
769.60	225.00
769.92	224.84
770.25	224.67
770.57	224.53
770.90	224.38
771.22	224.20
771.55	224.09
771.87	224.01
772.20	223.89
772.52	223.95
772.85	224.07
773.17	223.96
773.50	223.82
773.82	223.67
774.15	223.48
774.47	223.23
774.80	223.10
775.12	223.03
775.45	222.95
775.77	222.87
776.09	222.81
776.42	222.71
776.74	222.71
777.07	222.62
777.39	222.57
777.72	222.50
778.04	222.46
778.36	222.38
778.69	222.27
779.01	222.22
779.33	221.97
779.66	221.66
779.98	221.58
780.31	221.53
780.63	221.51
780.95	221.45
781.28	221.37
781.60	221.28
781.92	221.19
782.25	221.12
782.57	221.06
782.89	220.94
783.22	220.84
783.54	220.69
783.86	220.66
784.19	220.57
784.51	220.53
784.83	220.44
785.16	220.34
785.48	220.28
785.80	220.22
786.12	220.20
786.45	220.10
786.77	220.04
787.09	219.95
787.42	219.85
787.74	219.81
788.06	219.78
788.38	219.71
788.71	219.65
789.03	219.60
789.35	219.58
789.67	219.50
789.99	219.46
790.32	219.41
790.64	219.35
790.96	219.46
791.28	219.36
791.61	219.32
791.93	219.31
792.25	219.24
792.57	219.31
792.89	219.19
793.21	219.15
793.54	219.13
793.86	219.05
794.18	218.97
794.50	218.89
794.82	218.86
795.14	218.84
795.47	218.81
795.79	218.78
796.11	218.65
796.43	218.60
796.75	218.57
797.07	218.57
797.39	218.54
797.71	218.37
798.04	218.33
798.36	218.28
798.68	218.21
799.00	218.19
799.32	218.06
799.64	218.05
799.96	218.02
800.28	218.02
800.60	218.02
800.92	218.03
801.24	217.96
801.56	217.92
801.89	217.87
802.21	217.86
802.53	217.77
802.85	217.83
803.17	217.92
803.49	217.82
803.81	217.74
804.13	217.70
804.45	217.61
804.77	217.62
805.09	217.60
805.41	217.56
805.73	217.49
806.05	217.41
806.37	217.40
806.69	217.37
807.01	217.32
807.33	217.31
807.65	217.20
807.97	217.28
808.28	217.24
808.60	217.20
808.92	217.14
809.24	217.29
809.56	217.20
809.88	217.10
810.20	217.11
810.52	217.16
810.84	217.08
811.16	217.06
811.48	217.01
811.80	217.10
812.12	217.05
812.43	217.04
812.75	217.01
813.07	216.94
813.39	216.97
813.71	216.91
814.03	216.85
814.35	216.81
814.67	216.73
814.98	216.67
815.30	216.64
815.62	216.58
815.94	216.38
816.26	216.37
816.58	216.29
816.89	216.26
817.21	216.20
817.53	216.21
817.85	216.17
818.17	216.14
818.48	216.02
818.80	216.08
819.12	216.09
819.44	216.05
819.76	216.04
820.07	215.98
820.39	215.96
820.71	215.95
821.03	215.98
821.34	215.96
821.66	215.97
821.98	215.98
822.30	216.00
822.61	216.14
822.93	216.07
823.25	216.06
823.57	216.07
823.88	216.07
824.20	216.05
824.52	216.09
824.83	216.08
825.15	216.05
825.47	216.00
825.79	216.01
826.10	215.99
826.42	215.95
826.74	216.01
827.05	215.99
827.37	215.98
827.69	215.95
828.00	215.92
828.32	215.90
828.64	215.88
828.95	215.97
829.27	215.88
829.58	215.86
829.90	215.91
830.22	215.91
830.53	215.86
830.85	215.82
831.17	215.74
831.48	215.73
831.80	215.70
832.11	215.65
832.43	215.56
832.75	215.52
833.06	215.65
833.38	215.54
833.69	215.52
834.01	215.48
834.32	215.47
834.64	215.44
834.96	215.46
835.27	215.43
835.59	215.36
835.90	215.32
836.22	215.33
836.53	215.29
836.85	215.23
837.16	215.43
837.48	215.43
837.79	215.48
838.11	215.49
838.42	215.53
838.74	215.58
839.05	215.59
839.37	215.59
839.68	215.43
840.00	215.43
840.31	215.44
840.63	215.46
840.94	215.42
841.26	215.39
841.57	215.39
841.88	215.40
842.20	215.35
842.51	215.31
842.83	215.31
843.14	215.46
843.46	215.48
843.77	215.37
844.08	215.34
844.40	215.29
844.71	215.25
845.03	215.20
845.34	215.15
845.65	215.12
845.97	215.12
846.28	215.14
846.60	215.12
846.91	215.10
847.22	215.11
847.54	215.13
847.85	215.15
848.16	215.09
848.48	215.04
848.79	215.12
849.10	215.13
849.42	215.14
849.73	214.96
850.04	214.92
850.36	214.83
850.67	214.90
850.98	214.89
851.30	214.90
851.61	214.90
851.92	214.92
852.23	215.00
852.55	215.03
852.86	215.08
853.17	215.10
853.49	215.17
853.80	215.18
854.11	215.21
854.42	215.23
854.74	215.19
855.05	215.21
855.36	215.11
855.67	215.11
855.99	215.10
856.30	215.35
856.61	215.35
856.92	215.35
857.23	215.31
857.55	215.29
857.86	215.28
858.17	215.30
858.48	215.25
858.79	215.16
859.11	215.16
859.42	215.10
859.73	215.07
860.04	214.99
860.35	214.93
860.66	214.88
860.98	214.86
861.29	214.90
861.60	214.90
861.91	214.94
862.22	214.88
862.53	214.87
862.84	214.60
863.16	214.63
863.47	214.56
863.78	214.53
864.09	214.52
864.40	214.54
864.71	214.52
865.02	214.54
865.33	214.52
865.64	214.49
865.95	214.48
866.27	214.63
866.58	214.63
866.89	214.66
867.20	214.64
867.51	214.60
867.82	214.60
868.13	214.63
868.44	214.60
868.75	214.69
869.06	214.67
869.37	214.70
869.68	214.65
869.99	214.71
870.30	214.74
870.61	214.80
870.92	214.77
871.23	214.75
871.54	214.79
871.85	214.86
872.16	214.86
872.47	214.88
872.78	214.75
873.09	214.78
873.40	214.73
873.71	214.76
874.02	214.80
874.33	214.78
874.64	214.76
874.95	214.80
875.26	214.73
875.56	214.72
875.87	214.69
876.18	214.69
876.49	214.87
876.80	214.85
877.11	214.80
877.42	214.78
877.73	214.82
878.04	214.78
878.35	214.77
878.66	214.75
878.96	214.74
879.27	214.73
879.58	214.71
879.89	214.71
880.20	214.75
880.51	214.72
880.82	214.72
881.12	214.72
881.43	214.67
881.74	214.66
882.05	214.67
882.36	214.70
882.67	214.71
882.97	214.51
883.28	214.50
883.59	214.48
883.90	214.55
884.21	214.56
884.51	214.56
884.82	214.54
885.13	214.54
885.44	214.51
885.74	214.51
886.05	214.49
886.36	214.47
886.67	214.38
886.98	214.49
887.28	214.51
887.59	214.46
887.90	214.47
888.20	214.47
888.51	214.50
888.82	214.46
889.13	214.48
889.43	214.62
889.74	214.62
890.05	214.63
890.35	214.61
890.66	214.56
890.97	214.51
891.28	214.50
891.58	214.52
891.89	214.53
892.20	214.52
892.50	214.51
892.81	214.52
893.12	214.53
893.42	214.41
893.73	214.42
894.04	214.43
894.34	214.42
894.65	214.38
894.95	214.34
895.26	214.35
895.57	214.42
895.87	214.28
896.18	214.28
896.48	214.30
896.79	214.28
897.10	214.32
897.40	214.34
897.71	214.35
898.01	214.34
898.32	214.35
898.63	214.33
898.93	214.34
899.24	214.37
899.54	214.35
899.85	214.35
900.15	214.37
900.46	214.36
900.76	214.40
901.07	214.44
901.38	214.43
901.68	214.43
901.99	214.31
902.29	214.31
902.60	214.29
902.90	214.27
903.21	214.23
903.51	214.19
903.82	214.23
904.12	214.21
904.43	214.22
904.73	214.23
905.03	214.21
905.34	214.41
905.64	214.38
905.95	214.41
906.25	214.42
906.56	214.38
906.86	214.35
907.17	214.34
907.47	214.35
907.77	214.35
908.08	214.32
908.38	214.33
908.69	214.31
908.99	214.37
909.30	214.36
909.60	214.38
909.90	214.42
910.21	214.38
910.51	214.34
910.81	214.31
911.12	214.29
911.42	214.30
911.73	214.07
912.03	214.07
912.33	214.11
912.64	214.12
912.94	214.10
913.24	214.09
913.55	214.05
913.85	214.03
914.15	214.09
914.46	214.11
914.76	214.16
915.06	214.19
915.37	214.13
915.67	214.13
915.97	214.12
916.27	214.08
916.58	214.07
916.88	214.09
917.18	214.09
917.49	214.25
917.79	214.26
918.09	214.31
918.39	214.35
918.70	214.31
919.00	214.28
919.30	214.38
919.60	214.40
919.91	214.36
920.21	214.38
920.51	214.30
920.81	214.33
921.12	214.31
921.42	214.29
921.72	214.30
922.02	214.32
922.32	214.37
922.63	214.37
922.93	214.50
923.23	214.49
923.53	214.49
923.83	214.38
924.13	214.39
924.44	214.41
924.74	214.42
925.04	214.49
925.34	214.48
925.64	214.37
925.94	214.37
926.24	214.50
926.55	214.47
926.85	214.52
927.15	214.47
927.45	214.48
927.75	214.49
928.05	214.52
928.35	214.50
928.65	214.54
928.95	214.54
929.26	214.44
929.56	214.46
929.86	214.46
930.16	214.38
930.46	214.35
930.76	214.32
931.06	214.25
931.36	214.18
931.66	214.24
931.96	214.28
932.26	214.30
932.56	214.22
932.86	214.24
933.16	214.24
933.46	214.25
933.76	214.22
934.06	214.26
934.36	214.30
934.66	214.27
934.96	214.23
935.26	214.25
935.56	214.25
935.86	214.22
936.16	214.21
936.46	214.24
936.76	214.24
937.06	214.23
937.36	214.27
937.66	214.29
937.96	214.26
938.26	214.17
938.56	214.17
938.86	214.17
939.16	214.24
939.46	214.28
939.76	214.30
940.06	214.33
940.35	214.29
940.65	214.20
940.95	214.24
941.25	214.20
941.55	214.17
941.85	214.21
942.15	214.27
942.45	214.33
942.75	214.32
943.04	214.34
943.34	214.37
943.64	214.33
943.94	214.27
944.24	214.31
944.54	214.38
944.84	214.37
945.13	214.34
945.43	214.25
945.73	214.24
946.03	214.21
946.33	214.17
946.62	214.15
946.92	214.17
947.22	214.18
947.52	214.20
947.82	214.23
948.11	214.18
948.41	214.13
948.71	214.06
949.01	214.07
949.31	214.03
949.60	213.99
949.90	214.03
950.20	214.03
950.50	214.00
950.79	213.98
951.09	213.99
951.39	213.99
951.69	214.01
951.98	214.00
952.28	213.99
952.58	213.99
952.87	214.00
953.17	214.02
953.47	213.99
953.76	213.99
954.06	213.95
954.36	213.93
954.66	213.95
954.95	214.02
955.25	214.02
955.55	214.05
955.84	214.06
956.14	214.07
956.44	214.09
956.73	214.06
957.03	214.06
957.32	214.06
957.62	214.05
957.92	214.10
958.21	214.11
958.51	214.35
958.81	214.38
959.10	214.37
959.40	214.38
959.69	214.40
959.99	214.41
960.29	214.39
960.58	214.37
960.88	214.41
961.17	214.35
961.47	214.38
961.76	214.35
962.06	214.39
962.36	214.32
962.65	214.30
962.95	214.33
963.24	214.30
963.54	214.33
963.83	214.40
964.13	214.35
964.42	214.28
964.72	214.12
965.01	214.10
965.31	214.08
965.60	214.05
965.90	214.14
966.19	214.09
966.49	214.11
966.78	214.12
967.08	214.11
967.37	214.15
967.67	214.12
967.96	214.16
968.26	214.12
968.55	214.20
968.85	214.21
969.14	214.21
969.43	214.23
969.73	214.18
970.02	214.10
970.32	214.10
970.61	214.10
970.91	214.05
971.20	214.04
971.49	214.05
971.79	214.07
972.08	213.93
972.38	213.98
972.67	213.99
972.96	214.01
973.26	213.97
973.55	214.04
973.85	214.01
974.14	214.02
974.43	214.05
974.73	214.00
975.02	213.98
975.31	214.00
975.61	214.01
975.90	214.01
976.19	214.01
976.49	214.02
976.78	214.06
977.07	214.04
977.37	214.04
977.66	214.07
977.95	214.03
978.24	214.08
978.54	214.08
978.83	214.09
979.12	214.09
979.42	214.07
979.71	213.99
980.00	214.00
980.29	213.98
980.59	213.93
980.88	213.97
981.17	213.95
981.46	213.93
981.76	213.88
982.05	213.95
982.34	213.97
982.63	214.02
982.93	213.97
983.22	214.01
983.51	214.04
983.80	214.06
984.09	214.11
984.39	214.06
984.68	214.03
984.97	214.03
985.26	214.01
985.55	214.04
985.85	213.99
986.14	214.02
986.43	214.04
986.72	214.02
987.01	213.99
987.30	213.99
987.59	213.95
987.89	213.99
988.18	213.92
988.47	213.89
988.76	213.84
989.05	213.85
989.34	213.84
989.63	213.84
989.92	213.83
990.22	213.77
990.51	213.78
990.80	213.78
991.09	213.81
991.38	213.85
991.67	213.82
991.96	213.84
992.25	213.83
992.54	213.80
992.83	213.82
993.12	213.84
993.41	213.89
993.70	214.02
993.99	214.05
994.28	214.08
994.58	214.14
994.87	214.12
995.16	214.13
995.45	214.09
995.74	214.03
996.03	214.01
996.32	214.06
996.61	214.12
996.90	214.11
997.19	214.08
997.48	214.07
997.77	214.09
998.06	214.10
998.34	214.05
998.63	214.08
998.92	214.05
999.21	214.04
999.50	214.03
999.79	213.90
1000.08	213.91
1000.37	213.92
1000.66	213.91
1000.95	213.96
1001.24	213.95
1001.53	214.01
1001.82	214.04
1002.11	214.00
1002.40	214.00
1002.68	214.04
1002.97	214.17
1003.26	214.10
1003.55	214.07
1003.84	214.08
1004.13	214.17
1004.42	214.16
1004.71	214.14
1004.99	214.13
1005.28	214.20
1005.57	214.19
1005.86	214.20
1006.15	214.20
1006.44	214.14
1006.72	214.13
1007.01	214.08
1007.30	214.08
1007.59	214.04
1007.88	214.05
1008.17	214.07
1008.45	214.03
1008.74	213.94
1009.03	213.86
1009.32	213.87
1009.60	213.85
1009.89	213.84
1010.18	213.72
1010.47	213.72
1010.76	213.71
1011.04	213.73
1011.33	213.74
1011.62	213.75
1011.91	213.78
1012.19	213.76
1012.48	213.80
1012.77	213.80
1013.05	213.92
1013.34	213.97
1013.63	213.95
1013.92	213.94
1014.20	213.95
1014.49	213.95
1014.78	213.98
1015.06	213.95
1015.35	213.96
1015.64	214.01
1015.92	214.04
1016.21	214.04
1016.50	214.03
1016.78	214.09
1017.07	214.11
1017.36	214.05
1017.64	214.00
1017.93	214.03
1018.22	214.00
1018.50	214.00
1018.79	214.00
1019.08	213.88
1019.36	213.85
1019.65	213.85
1019.93	213.89
1020.22	213.90
1020.51	214.01
1020.79	213.99
1021.08	213.22
1021.36	214.03
1021.65	214.19
1021.94	213.48
1022.22	213.91
1022.51	213.39
1022.79	214.77
1023.08	213.94
1023.36	216.33
1023.65	213.61
>>>>>End Processed Spectral Data<<<<<
