SpectraSuite Data File
++++++++++++++++++++++++++++++++++++
Date: Tue Jan 29 16:37:50 EST 2013
User: group
Dark Spectrum Present: No
Reference Spectrum Present: No
Number of Sampled Component Spectra: 1
Spectrometers: USB2E7196
Integration Time (usec): 65000 (USB2E7196)
Spectra Averaged: 100 (USB2E7196)
Boxcar Smoothing: 10 (USB2E7196)
Correct for Electrical Dark: No (USB2E7196)
Strobe/Lamp Enabled: No (USB2E7196)
Correct for Detector Non-linearity: No (USB2E7196)
Correct for Stray Light: No (USB2E7196)
Number of Pixels in Processed Spectrum: 2048
>>>>>Begin Processed Spectral Data<<<<<
339.09	0.00
339.48	201.75
339.86	203.88
340.24	204.23
340.63	205.76
341.01	210.53
341.39	208.29
341.78	210.34
342.16	211.74
342.54	211.31
342.93	200.95
343.31	211.10
343.69	211.65
344.07	212.08
344.46	212.57
344.84	212.99
345.22	213.15
345.60	213.43
345.99	213.61
346.37	213.74
346.75	213.86
347.13	213.92
347.52	213.97
347.90	214.09
348.28	214.12
348.66	214.25
349.05	214.22
349.43	214.27
349.81	214.36
350.19	214.43
350.57	214.51
350.96	214.60
351.34	214.70
351.72	214.79
352.10	214.90
352.48	214.93
352.87	214.96
353.25	215.02
353.63	215.08
354.01	215.13
354.39	215.20
354.77	215.26
355.15	215.38
355.54	215.44
355.92	215.43
356.30	215.49
356.68	215.64
357.06	215.73
357.44	215.76
357.82	215.79
358.20	215.88
358.58	215.91
358.97	215.97
359.35	216.06
359.73	216.14
360.11	216.20
360.49	216.27
360.87	216.33
361.25	216.41
361.63	216.54
362.01	216.61
362.39	216.65
362.77	216.74
363.15	216.77
363.53	216.80
363.91	216.86
364.29	216.93
364.67	216.79
365.05	216.79
365.43	216.86
365.81	216.90
366.19	217.01
366.57	217.08
366.95	217.10
367.33	217.08
367.71	217.09
368.09	217.11
368.47	217.12
368.85	217.11
369.23	217.18
369.61	217.07
369.99	217.14
370.37	217.17
370.75	217.28
371.13	217.26
371.51	217.23
371.89	217.24
372.27	217.22
372.65	217.21
373.03	217.19
373.41	217.15
373.78	217.10
374.16	216.95
374.54	216.89
374.92	216.82
375.30	216.79
375.68	216.73
376.06	216.70
376.44	216.63
376.82	216.59
377.19	216.51
377.57	216.50
377.95	216.36
378.33	216.30
378.71	216.10
379.09	216.03
379.47	216.01
379.84	215.93
380.22	215.86
380.60	215.76
380.98	215.71
381.36	215.67
381.73	215.60
382.11	215.62
382.49	215.59
382.87	215.55
383.25	215.51
383.62	215.70
384.00	215.65
384.38	215.67
384.76	215.67
385.13	215.71
385.51	215.67
385.89	215.62
386.27	215.58
386.64	215.58
387.02	215.59
387.40	215.55
387.78	215.53
388.15	215.51
388.53	215.50
388.91	215.47
389.29	215.45
389.66	215.46
390.04	215.41
390.42	215.40
390.79	215.36
391.17	215.33
391.55	215.05
391.92	215.02
392.30	215.02
392.68	214.92
393.05	214.90
393.43	214.90
393.81	214.94
394.18	214.86
394.56	214.84
394.94	214.83
395.31	214.83
395.69	214.90
396.06	214.92
396.44	214.93
396.82	214.95
397.19	215.06
397.57	215.04
397.95	215.07
398.32	215.06
398.70	215.13
399.07	215.22
399.45	215.32
399.82	215.39
400.20	215.42
400.58	215.53
400.95	215.51
401.33	215.63
401.70	215.84
402.08	215.98
402.45	216.08
402.83	216.24
403.20	216.36
403.58	216.43
403.95	216.63
404.33	216.80
404.71	216.93
405.08	217.18
405.46	217.39
405.83	217.63
406.21	217.84
406.58	218.06
406.96	218.29
407.33	218.55
407.70	218.84
408.08	219.31
408.45	219.70
408.83	220.10
409.20	220.43
409.58	220.71
409.95	221.20
410.33	221.69
410.70	222.12
411.08	222.67
411.45	223.26
411.82	223.79
412.20	224.47
412.57	225.30
412.95	225.91
413.32	226.73
413.69	227.51
414.07	228.42
414.44	229.41
414.82	230.42
415.19	231.64
415.56	232.82
415.94	234.02
416.31	235.40
416.68	236.84
417.06	238.47
417.43	240.01
417.81	241.73
418.18	243.54
418.55	245.49
418.93	247.53
419.30	249.62
419.67	251.88
420.04	254.18
420.42	256.61
420.79	259.46
421.16	262.28
421.54	265.24
421.91	268.20
422.28	271.33
422.66	274.62
423.03	277.83
423.40	281.19
423.77	284.77
424.15	288.43
424.52	292.25
424.89	296.39
425.26	300.50
425.64	304.41
426.01	308.69
426.38	313.18
426.75	317.73
427.13	322.46
427.50	327.44
427.87	332.59
428.24	337.80
428.61	342.78
428.99	348.28
429.36	354.25
429.73	360.20
430.10	366.07
430.47	372.16
430.85	378.50
431.22	385.20
431.59	392.29
431.96	399.19
432.33	406.72
432.70	414.03
433.08	422.56
433.45	430.61
433.82	438.65
434.19	447.54
434.56	456.30
434.93	464.71
435.30	473.03
435.68	482.26
436.05	491.35
436.42	500.29
436.79	508.46
437.16	517.35
437.53	526.69
437.90	535.81
438.27	544.80
438.64	554.04
439.01	562.66
439.38	570.31
439.75	577.58
440.13	586.07
440.50	594.06
440.87	600.55
441.24	607.21
441.61	614.57
441.98	619.99
442.35	626.32
442.72	632.65
443.09	638.71
443.46	642.48
443.83	644.92
444.20	647.06
444.57	650.26
444.94	651.68
445.31	653.07
445.68	654.51
446.05	655.16
446.42	654.43
446.79	653.45
447.16	652.37
447.53	651.63
447.90	648.26
448.27	644.88
448.64	640.22
449.01	636.98
449.37	631.07
449.74	625.43
450.11	618.48
450.48	611.05
450.85	603.60
451.22	597.03
451.59	590.94
451.96	585.10
452.33	577.21
452.70	570.07
453.07	561.63
453.43	553.05
453.80	544.71
454.17	536.64
454.54	529.05
454.91	520.82
455.28	512.77
455.65	505.32
456.02	497.89
456.38	491.53
456.75	483.59
457.12	476.99
457.49	470.39
457.86	464.22
458.23	458.85
458.59	452.89
458.96	446.88
459.33	441.48
459.70	436.13
460.07	431.85
460.43	426.94
460.80	422.27
461.17	418.22
461.54	414.02
461.91	409.98
462.27	405.86
462.64	402.43
463.01	398.67
463.38	394.94
463.74	391.19
464.11	387.94
464.48	385.10
464.85	382.00
465.21	379.57
465.58	376.89
465.95	373.74
466.32	371.08
466.68	368.51
467.05	365.91
467.42	363.31
467.78	360.63
468.15	358.06
468.52	356.18
468.88	353.67
469.25	351.40
469.62	349.61
469.98	347.65
470.35	345.83
470.72	344.10
471.08	342.33
471.45	340.79
471.82	339.25
472.18	337.55
472.55	336.34
472.92	334.92
473.28	333.71
473.65	332.51
474.02	331.42
474.38	330.50
474.75	329.76
475.11	328.94
475.48	328.33
475.85	327.85
476.21	327.32
476.58	326.97
476.94	326.74
477.31	326.40
477.67	326.15
478.04	325.95
478.41	325.91
478.77	326.05
479.14	326.02
479.50	326.13
479.87	326.44
480.23	326.74
480.60	326.97
480.96	327.22
481.33	327.83
481.69	328.37
482.06	328.93
482.42	329.42
482.79	330.06
483.15	330.90
483.52	331.84
483.88	332.76
484.25	333.66
484.61	334.66
484.98	335.76
485.34	337.07
485.71	338.43
486.07	339.91
486.44	341.23
486.80	342.89
487.17	344.57
487.53	346.40
487.90	348.29
488.26	350.36
488.62	352.55
488.99	354.56
489.35	356.72
489.72	359.05
490.08	361.57
490.44	364.09
490.81	366.78
491.17	369.45
491.54	372.46
491.90	375.56
492.26	378.83
492.63	382.28
492.99	385.77
493.36	389.49
493.72	393.36
494.08	397.43
494.45	401.57
494.81	405.91
495.17	410.37
495.54	415.05
495.90	419.89
496.26	424.83
496.63	430.10
496.99	435.53
497.35	441.14
497.72	446.97
498.08	452.89
498.44	458.98
498.80	465.43
499.17	471.92
499.53	478.68
499.89	485.67
500.26	492.60
500.62	499.75
500.98	507.22
501.34	514.71
501.71	522.47
502.07	530.30
502.43	538.36
502.79	546.52
503.16	554.95
503.52	563.57
503.88	572.31
504.24	581.30
504.60	590.37
504.97	599.63
505.33	608.97
505.69	618.95
506.05	628.88
506.41	638.82
506.78	648.87
507.14	659.14
507.50	669.54
507.86	680.30
508.22	691.09
508.59	701.76
508.95	712.87
509.31	724.11
509.67	735.70
510.03	747.13
510.39	758.85
510.75	770.73
511.12	782.70
511.48	794.87
511.84	807.11
512.20	819.46
512.56	832.18
512.92	845.00
513.28	857.62
513.64	870.39
514.00	883.30
514.37	896.35
514.73	909.52
515.09	922.61
515.45	935.67
515.81	948.77
516.17	962.23
516.53	975.55
516.89	988.73
517.25	1001.95
517.61	1015.49
517.97	1029.03
518.33	1042.26
518.69	1055.75
519.05	1069.55
519.41	1083.35
519.77	1097.30
520.13	1110.65
520.49	1123.90
520.85	1137.42
521.21	1150.84
521.57	1164.57
521.93	1177.69
522.29	1191.48
522.65	1205.18
523.01	1218.79
523.37	1232.05
523.73	1245.47
524.09	1258.83
524.45	1272.34
524.81	1285.91
525.17	1299.47
525.53	1312.72
525.89	1326.11
526.25	1339.44
526.61	1352.37
526.97	1365.59
527.33	1378.72
527.68	1392.27
528.04	1406.00
528.40	1419.23
528.76	1432.74
529.12	1445.70
529.48	1459.15
529.84	1471.57
530.20	1484.46
530.56	1497.34
530.91	1510.57
531.27	1523.51
531.63	1536.18
531.99	1549.09
532.35	1561.46
532.71	1573.80
533.07	1586.83
533.42	1599.28
533.78	1611.45
534.14	1623.65
534.50	1634.96
534.86	1646.67
535.21	1657.71
535.57	1669.25
535.93	1680.63
536.29	1691.72
536.65	1703.28
537.00	1714.40
537.36	1725.88
537.72	1736.99
538.08	1748.41
538.44	1759.64
538.79	1770.88
539.15	1781.97
539.51	1792.95
539.87	1804.46
540.22	1815.64
540.58	1826.68
540.94	1837.64
541.29	1848.15
541.65	1857.99
542.01	1868.63
542.37	1878.83
542.72	1889.05
543.08	1898.82
543.44	1909.39
543.79	1918.90
544.15	1928.62
544.51	1938.68
544.87	1948.69
545.22	1957.97
545.58	1967.01
545.94	1976.01
546.29	1984.51
546.65	1992.95
547.01	2001.15
547.36	2008.85
547.72	2016.59
548.07	2024.22
548.43	2031.99
548.79	2039.84
549.14	2048.17
549.50	2056.77
549.86	2064.71
550.21	2072.31
550.57	2080.11
550.92	2086.75
551.28	2094.35
551.64	2101.57
551.99	2109.09
552.35	2116.26
552.70	2123.19
553.06	2129.77
553.41	2136.20
553.77	2142.85
554.13	2149.35
554.48	2156.32
554.84	2163.40
555.19	2170.04
555.55	2176.60
555.90	2182.91
556.26	2189.79
556.61	2195.91
556.97	2200.71
557.32	2206.45
557.68	2212.90
558.03	2218.75
558.39	2224.32
558.74	2230.33
559.10	2235.96
559.45	2241.55
559.81	2247.16
560.16	2252.59
560.52	2258.51
560.87	2264.70
561.23	2270.53
561.58	2277.11
561.94	2282.48
562.29	2287.30
562.64	2293.31
563.00	2298.93
563.35	2304.57
563.71	2310.33
564.06	2315.94
564.42	2321.92
564.77	2327.14
565.12	2332.27
565.48	2337.43
565.83	2342.92
566.19	2348.22
566.54	2353.46
566.89	2357.99
567.25	2362.54
567.60	2368.40
567.96	2373.45
568.31	2378.15
568.66	2382.57
569.02	2386.57
569.37	2390.29
569.72	2394.62
570.08	2398.05
570.43	2401.09
570.78	2404.21
571.14	2406.58
571.49	2409.69
571.84	2413.05
572.20	2415.88
572.55	2418.85
572.90	2420.98
573.26	2423.70
573.61	2426.07
573.96	2428.21
574.31	2430.28
574.67	2432.07
575.02	2432.70
575.37	2434.12
575.72	2434.60
576.08	2435.91
576.43	2435.84
576.78	2436.17
577.13	2437.67
577.49	2438.87
577.84	2439.89
578.19	2440.99
578.54	2441.66
578.90	2442.20
579.25	2441.92
579.60	2441.60
579.95	2440.80
580.30	2440.78
580.66	2440.13
581.01	2438.38
581.36	2435.76
581.71	2434.23
582.06	2433.11
582.42	2432.06
582.77	2429.63
583.12	2427.93
583.47	2426.40
583.82	2425.71
584.17	2424.50
584.53	2422.30
584.88	2419.94
585.23	2417.88
585.58	2415.44
585.93	2413.25
586.28	2410.91
586.63	2408.46
586.98	2406.21
587.34	2404.11
587.69	2401.59
588.04	2399.27
588.39	2397.88
588.74	2395.36
589.09	2392.49
589.44	2389.13
589.79	2386.52
590.14	2384.57
590.49	2381.74
590.84	2377.83
591.19	2374.67
591.54	2371.15
591.89	2366.94
592.25	2363.62
592.60	2359.39
592.95	2355.25
593.30	2350.93
593.65	2346.51
594.00	2341.96
594.35	2338.90
594.70	2334.19
595.05	2329.62
595.40	2324.14
595.75	2318.14
596.10	2314.59
596.45	2309.77
596.80	2305.01
597.15	2299.77
597.50	2293.80
597.85	2288.76
598.19	2283.45
598.54	2277.52
598.89	2272.20
599.24	2267.46
599.59	2261.15
599.94	2255.19
600.29	2249.18
600.64	2243.18
600.99	2236.33
601.34	2230.90
601.69	2223.87
602.04	2217.33
602.39	2210.58
602.74	2204.44
603.08	2198.95
603.43	2192.26
603.78	2185.29
604.13	2178.31
604.48	2170.97
604.83	2164.82
605.18	2158.51
605.53	2151.47
605.87	2144.40
606.22	2137.61
606.57	2129.76
606.92	2121.85
607.27	2114.90
607.62	2108.27
607.96	2101.36
608.31	2094.81
608.66	2086.91
609.01	2079.17
609.36	2072.00
609.70	2064.22
610.05	2056.27
610.40	2047.88
610.75	2039.51
611.10	2031.72
611.44	2022.74
611.79	2014.03
612.14	2003.89
612.49	1993.23
612.83	1983.93
613.18	1974.64
613.53	1965.35
613.88	1955.82
614.22	1947.15
614.57	1937.36
614.92	1926.64
615.27	1916.25
615.61	1906.25
615.96	1896.51
616.31	1886.98
616.65	1877.49
617.00	1867.79
617.35	1858.26
617.70	1848.61
618.04	1838.70
618.39	1828.61
618.74	1818.95
619.08	1809.34
619.43	1800.73
619.78	1792.55
620.12	1783.91
620.47	1774.31
620.82	1763.99
621.16	1754.15
621.51	1744.29
621.85	1734.35
622.20	1723.96
622.55	1713.40
622.89	1703.37
623.24	1693.82
623.59	1684.01
623.93	1673.84
624.28	1664.01
624.62	1653.96
624.97	1643.71
625.32	1633.85
625.66	1624.91
626.01	1616.18
626.35	1606.84
626.70	1596.69
627.04	1586.42
627.39	1576.36
627.73	1567.09
628.08	1558.15
628.43	1548.61
628.77	1539.41
629.12	1530.61
629.46	1522.86
629.81	1514.66
630.15	1505.18
630.50	1495.28
630.84	1484.78
631.19	1474.95
631.53	1465.70
631.88	1455.45
632.22	1445.28
632.57	1436.04
632.91	1425.91
633.26	1415.98
633.60	1406.47
633.95	1397.33
634.29	1387.92
634.64	1378.56
634.98	1368.59
635.32	1359.34
635.67	1350.88
636.01	1341.57
636.36	1331.73
636.70	1322.29
637.05	1312.79
637.39	1303.91
637.73	1295.31
638.08	1287.79
638.42	1279.77
638.77	1271.05
639.11	1262.86
639.45	1255.16
639.80	1246.49
640.14	1237.80
640.49	1228.95
640.83	1219.96
641.17	1211.74
641.52	1203.60
641.86	1195.00
642.20	1187.25
642.55	1178.59
642.89	1169.67
643.23	1161.11
643.58	1153.01
643.92	1143.92
644.26	1135.20
644.61	1126.68
644.95	1117.94
645.29	1108.71
645.64	1099.36
645.98	1090.75
646.32	1082.80
646.66	1074.26
647.01	1065.89
647.35	1057.82
647.69	1049.52
648.04	1041.30
648.38	1032.38
648.72	1023.62
649.06	1015.13
649.41	1006.88
649.75	998.85
650.09	990.98
650.43	982.86
650.78	974.48
651.12	966.69
651.46	959.26
651.80	952.03
652.14	944.70
652.49	937.10
652.83	929.85
653.17	922.22
653.51	914.51
653.85	907.18
654.20	899.96
654.54	892.40
654.88	885.12
655.22	877.91
655.56	870.99
655.90	864.13
656.25	857.50
656.59	850.58
656.93	843.58
657.27	836.36
657.61	829.32
657.95	823.15
658.29	817.28
658.64	811.17
658.98	804.60
659.32	798.01
659.66	791.80
660.00	785.43
660.34	779.31
660.68	773.21
661.02	766.90
661.36	760.89
661.70	755.06
662.05	749.43
662.39	743.87
662.73	738.40
663.07	733.04
663.41	727.36
663.75	721.55
664.09	715.80
664.43	710.32
664.77	705.03
665.11	699.23
665.45	693.31
665.79	687.44
666.13	681.77
666.47	676.15
666.81	670.66
667.15	665.21
667.49	659.97
667.83	654.69
668.17	649.42
668.51	644.27
668.85	639.34
669.19	634.38
669.53	629.36
669.87	624.22
670.21	619.41
670.55	614.69
670.89	610.25
671.23	605.89
671.57	601.52
671.91	597.12
672.25	593.07
672.58	588.84
672.92	584.81
673.26	580.86
673.60	577.02
673.94	573.10
674.28	569.42
674.62	565.69
674.96	561.87
675.30	558.36
675.64	554.65
675.97	550.98
676.31	547.29
676.65	543.65
676.99	540.19
677.33	536.27
677.67	532.56
678.01	528.67
678.34	525.02
678.68	521.48
679.02	517.86
679.36	514.04
679.70	510.40
680.04	506.76
680.37	503.30
680.71	499.93
681.05	496.75
681.39	493.45
681.73	490.21
682.06	487.20
682.40	484.07
682.74	480.85
683.08	477.63
683.42	474.42
683.75	471.43
684.09	468.33
684.43	465.55
684.77	462.64
685.10	459.71
685.44	456.81
685.78	453.85
686.12	451.03
686.45	448.34
686.79	445.63
687.13	443.04
687.46	440.39
687.80	437.70
688.14	434.86
688.48	432.20
688.81	429.49
689.15	426.85
689.49	424.17
689.82	421.64
690.16	418.93
690.50	416.47
690.83	413.88
691.17	411.30
691.51	408.76
691.84	406.46
692.18	404.24
692.52	401.96
692.85	399.76
693.19	397.58
693.52	395.31
693.86	393.09
694.20	390.87
694.53	388.66
694.87	386.42
695.21	384.27
695.54	382.10
695.88	379.90
696.21	377.68
696.55	375.53
696.88	373.42
697.22	371.47
697.56	369.55
697.89	367.66
698.23	365.87
698.56	364.09
698.90	362.27
699.23	360.38
699.57	358.49
699.90	356.63
700.24	354.79
700.58	353.06
700.91	351.34
701.25	349.75
701.58	348.13
701.92	346.57
702.25	344.93
702.59	343.30
702.92	341.72
703.26	340.16
703.59	338.65
703.93	337.39
704.26	335.94
704.60	334.38
704.93	332.87
705.26	331.34
705.60	329.83
705.93	328.30
706.27	326.95
706.60	325.68
706.94	324.42
707.27	323.01
707.61	321.61
707.94	320.25
708.27	318.73
708.61	317.29
708.94	315.83
709.28	314.52
709.61	313.27
709.94	312.02
710.28	310.78
710.61	309.56
710.95	308.10
711.28	307.04
711.61	305.84
711.95	304.65
712.28	303.46
712.61	302.21
712.95	301.13
713.28	300.06
713.61	298.84
713.95	297.67
714.28	296.67
714.61	295.58
714.95	294.51
715.28	293.45
715.61	292.39
715.95	291.41
716.28	290.43
716.61	289.43
716.95	288.43
717.28	287.46
717.61	286.49
717.94	285.55
718.28	284.45
718.61	283.56
718.94	282.67
719.27	281.83
719.61	281.04
719.94	280.14
720.27	279.16
720.60	278.33
720.94	277.49
721.27	276.67
721.60	276.04
721.93	275.35
722.27	274.67
722.60	273.99
722.93	273.29
723.26	272.63
723.59	271.90
723.93	271.27
724.26	270.60
724.59	269.93
724.92	269.37
725.25	268.86
725.59	268.30
725.92	267.75
726.25	267.14
726.58	266.56
726.91	265.97
727.24	265.44
727.57	264.84
727.91	264.22
728.24	263.67
728.57	263.01
728.90	262.40
729.23	261.81
729.56	261.35
729.89	260.76
730.22	260.15
730.55	259.60
730.89	259.05
731.22	258.50
731.55	258.02
731.88	257.46
732.21	256.90
732.54	256.30
732.87	255.80
733.20	255.31
733.53	254.78
733.86	254.32
734.19	253.80
734.52	253.38
734.85	253.09
735.18	252.61
735.51	252.20
735.84	251.77
736.17	251.39
736.50	250.83
736.83	250.69
737.16	250.33
737.49	249.92
737.82	249.49
738.15	249.12
738.48	248.67
738.81	248.23
739.14	247.77
739.47	247.42
739.80	247.03
740.13	246.67
740.46	246.28
740.79	245.88
741.12	245.50
741.45	245.13
741.78	244.68
742.11	244.39
742.44	244.06
742.77	243.74
743.10	243.36
743.43	243.05
743.75	242.49
744.08	242.40
744.41	242.05
744.74	241.71
745.07	241.34
745.40	241.07
745.73	240.85
746.06	240.53
746.39	240.20
746.71	239.82
747.04	239.43
747.37	239.10
747.70	238.83
748.03	238.52
748.36	238.22
748.68	237.90
749.01	237.54
749.34	237.23
749.67	236.96
750.00	236.67
750.33	236.53
750.65	236.27
750.98	235.76
751.31	235.54
751.64	235.34
751.97	235.18
752.29	234.91
752.62	234.58
752.95	234.35
753.28	234.08
753.60	233.86
753.93	233.70
754.26	233.50
754.59	233.21
754.91	232.99
755.24	232.75
755.57	232.53
755.90	232.28
756.22	232.03
756.55	231.74
756.88	231.51
757.20	231.18
757.53	230.89
757.86	230.65
758.19	230.43
758.51	230.19
758.84	229.90
759.17	229.66
759.49	229.48
759.82	229.39
760.15	229.24
760.47	229.03
760.80	228.78
761.13	228.61
761.45	228.41
761.78	228.20
762.11	228.01
762.43	227.82
762.76	227.66
763.08	227.53
763.41	227.41
763.74	227.24
764.06	227.07
764.39	226.90
764.71	226.76
765.04	226.59
765.37	226.42
765.69	226.26
766.02	226.12
766.34	225.99
766.67	225.76
767.00	225.65
767.32	225.62
767.65	225.65
767.97	225.48
768.30	225.38
768.62	225.23
768.95	225.07
769.27	224.95
769.60	224.89
769.92	224.73
770.25	224.55
770.57	224.41
770.90	224.29
771.22	224.19
771.55	224.07
771.87	223.97
772.20	223.86
772.52	223.92
772.85	224.06
773.17	223.92
773.50	223.79
773.82	223.65
774.15	223.45
774.47	223.21
774.80	223.13
775.12	223.03
775.45	222.96
775.77	222.89
776.09	222.81
776.42	222.68
776.74	222.65
777.07	222.56
777.39	222.47
777.72	222.37
778.04	222.31
778.36	222.21
778.69	222.12
779.01	222.06
779.33	221.80
779.66	221.46
779.98	221.37
780.31	221.33
780.63	221.35
780.95	221.32
781.28	221.24
781.60	221.15
781.92	221.07
782.25	221.00
782.57	220.92
782.89	220.88
783.22	220.79
783.54	220.66
783.86	220.60
784.19	220.54
784.51	220.51
784.83	220.41
785.16	220.35
785.48	220.28
785.80	220.20
786.12	220.20
786.45	220.16
786.77	220.13
787.09	220.03
787.42	219.87
787.74	219.80
788.06	219.72
788.38	219.64
788.71	219.56
789.03	219.51
789.35	219.49
789.67	219.42
789.99	219.39
790.32	219.34
790.64	219.31
790.96	219.41
791.28	219.29
791.61	219.25
791.93	219.18
792.25	219.15
792.57	219.24
792.89	219.13
793.21	219.10
793.54	219.02
793.86	218.97
794.18	218.97
794.50	218.89
794.82	218.86
795.14	218.85
795.47	218.88
795.79	218.83
796.11	218.74
796.43	218.67
796.75	218.62
797.07	218.56
797.39	218.55
797.71	218.34
798.04	218.33
798.36	218.30
798.68	218.27
799.00	218.23
799.32	218.10
799.64	218.09
799.96	218.03
800.28	218.00
800.60	217.97
800.92	217.94
801.24	217.91
801.56	217.84
801.89	217.78
802.21	217.74
802.53	217.67
802.85	217.66
803.17	217.73
803.49	217.64
803.81	217.63
804.13	217.55
804.45	217.54
804.77	217.52
805.09	217.47
805.41	217.41
805.73	217.33
806.05	217.24
806.37	217.19
806.69	217.17
807.01	217.14
807.33	217.10
807.65	217.01
807.97	217.06
808.28	217.06
808.60	217.03
808.92	216.95
809.24	217.07
809.56	217.02
809.88	216.92
810.20	216.92
810.52	216.94
810.84	216.89
811.16	216.84
811.48	216.81
811.80	216.88
812.12	216.87
812.43	216.91
812.75	216.91
813.07	216.88
813.39	216.83
813.71	216.80
814.03	216.76
814.35	216.77
814.67	216.65
814.98	216.60
815.30	216.58
815.62	216.54
815.94	216.38
816.26	216.38
816.58	216.32
816.89	216.31
817.21	216.20
817.53	216.21
817.85	216.19
818.17	216.14
818.48	216.04
818.80	216.06
819.12	216.01
819.44	215.97
819.76	215.93
820.07	215.94
820.39	215.91
820.71	215.92
821.03	215.86
821.34	215.82
821.66	215.84
821.98	215.84
822.30	215.82
822.61	215.94
822.93	215.86
823.25	215.84
823.57	215.80
823.88	215.88
824.20	215.87
824.52	215.89
824.83	215.87
825.15	215.83
825.47	215.78
825.79	215.75
826.10	215.73
826.42	215.74
826.74	215.73
827.05	215.73
827.37	215.69
827.69	215.69
828.00	215.71
828.32	215.72
828.64	215.65
828.95	215.74
829.27	215.68
829.58	215.69
829.90	215.71
830.22	215.70
830.53	215.60
830.85	215.56
831.17	215.48
831.48	215.48
831.80	215.48
832.11	215.49
832.43	215.47
832.75	215.44
833.06	215.55
833.38	215.47
833.69	215.46
834.01	215.48
834.32	215.47
834.64	215.42
834.96	215.39
835.27	215.39
835.59	215.33
835.90	215.23
836.22	215.23
836.53	215.17
836.85	215.15
837.16	215.33
837.48	215.33
837.79	215.39
838.11	215.37
838.42	215.37
838.74	215.37
839.05	215.36
839.37	215.34
839.68	215.19
840.00	215.20
840.31	215.18
840.63	215.13
840.94	215.12
841.26	215.10
841.57	215.09
841.88	215.12
842.20	215.08
842.51	215.06
842.83	215.06
843.14	215.26
843.46	215.25
843.77	215.18
844.08	215.14
844.40	215.11
844.71	215.06
845.03	215.03
845.34	215.02
845.65	215.02
845.97	215.00
846.28	215.03
846.60	215.04
846.91	215.03
847.22	215.05
847.54	215.06
847.85	215.10
848.16	215.06
848.48	215.04
848.79	215.10
849.10	215.11
849.42	215.10
849.73	214.91
850.04	214.90
850.36	214.80
850.67	214.85
850.98	214.83
851.30	214.86
851.61	214.84
851.92	214.81
852.23	214.86
852.55	214.92
852.86	214.88
853.17	214.89
853.49	214.91
853.80	214.93
854.11	214.96
854.42	214.95
854.74	214.93
855.05	214.93
855.36	214.80
855.67	214.82
855.99	214.80
856.30	215.03
856.61	215.04
856.92	215.05
857.23	215.04
857.55	215.03
857.86	215.01
858.17	215.01
858.48	214.97
858.79	214.94
859.11	214.90
859.42	214.91
859.73	214.87
860.04	214.84
860.35	214.79
860.66	214.68
860.98	214.70
861.29	214.73
861.60	214.68
861.91	214.78
862.22	214.74
862.53	214.71
862.84	214.48
863.16	214.53
863.47	214.49
863.78	214.46
864.09	214.47
864.40	214.47
864.71	214.50
865.02	214.52
865.33	214.51
865.64	214.46
865.95	214.47
866.27	214.62
866.58	214.63
866.89	214.64
867.20	214.65
867.51	214.63
867.82	214.60
868.13	214.70
868.44	214.63
868.75	214.66
869.06	214.70
869.37	214.71
869.68	214.63
869.99	214.68
870.30	214.67
870.61	214.67
870.92	214.67
871.23	214.65
871.54	214.68
871.85	214.72
872.16	214.76
872.47	214.71
872.78	214.59
873.09	214.59
873.40	214.57
873.71	214.59
874.02	214.59
874.33	214.56
874.64	214.51
874.95	214.55
875.26	214.53
875.56	214.49
875.87	214.49
876.18	214.49
876.49	214.66
876.80	214.68
877.11	214.64
877.42	214.63
877.73	214.63
878.04	214.60
878.35	214.58
878.66	214.61
878.96	214.63
879.27	214.62
879.58	214.59
879.89	214.56
880.20	214.61
880.51	214.58
880.82	214.60
881.12	214.61
881.43	214.55
881.74	214.49
882.05	214.50
882.36	214.49
882.67	214.53
882.97	214.28
883.28	214.23
883.59	214.24
883.90	214.26
884.21	214.30
884.51	214.27
884.82	214.22
885.13	214.19
885.44	214.18
885.74	214.15
886.05	214.18
886.36	214.21
886.67	214.12
886.98	214.26
887.28	214.30
887.59	214.30
887.90	214.34
888.20	214.37
888.51	214.43
888.82	214.40
889.13	214.40
889.43	214.63
889.74	214.64
890.05	214.63
890.35	214.62
890.66	214.56
890.97	214.60
891.28	214.63
891.58	214.62
891.89	214.64
892.20	214.67
892.50	214.65
892.81	214.65
893.12	214.66
893.42	214.55
893.73	214.55
894.04	214.54
894.34	214.56
894.65	214.56
894.95	214.50
895.26	214.50
895.57	214.58
895.87	214.36
896.18	214.41
896.48	214.48
896.79	214.48
897.10	214.54
897.40	214.52
897.71	214.52
898.01	214.51
898.32	214.50
898.63	214.48
898.93	214.48
899.24	214.48
899.54	214.47
899.85	214.46
900.15	214.42
900.46	214.45
900.76	214.43
901.07	214.41
901.38	214.44
901.68	214.46
901.99	214.33
902.29	214.34
902.60	214.33
902.90	214.29
903.21	214.24
903.51	214.21
903.82	214.27
904.12	214.24
904.43	214.30
904.73	214.30
905.03	214.32
905.34	214.50
905.64	214.46
905.95	214.45
906.25	214.44
906.56	214.45
906.86	214.43
907.17	214.42
907.47	214.40
907.77	214.38
908.08	214.32
908.38	214.36
908.69	214.36
908.99	214.38
909.30	214.37
909.60	214.39
909.90	214.42
910.21	214.36
910.51	214.32
910.81	214.31
911.12	214.32
911.42	214.29
911.73	214.11
912.03	214.14
912.33	214.19
912.64	214.18
912.94	214.13
913.24	214.12
913.55	214.08
913.85	214.10
914.15	214.12
914.46	214.13
914.76	214.10
915.06	214.12
915.37	214.08
915.67	214.06
915.97	214.07
916.27	213.99
916.58	214.00
916.88	213.99
917.18	213.96
917.49	214.09
917.79	214.12
918.09	214.14
918.39	214.19
918.70	214.17
919.00	214.19
919.30	214.31
919.60	214.29
919.91	214.32
920.21	214.31
920.51	214.29
920.81	214.30
921.12	214.35
921.42	214.31
921.72	214.34
922.02	214.35
922.32	214.37
922.63	214.40
922.93	214.47
923.23	214.49
923.53	214.47
923.83	214.32
924.13	214.32
924.44	214.34
924.74	214.37
925.04	214.43
925.34	214.42
925.64	214.34
925.94	214.31
926.24	214.43
926.55	214.43
926.85	214.43
927.15	214.46
927.45	214.43
927.75	214.43
928.05	214.42
928.35	214.44
928.65	214.47
928.95	214.50
929.26	214.42
929.56	214.45
929.86	214.49
930.16	214.50
930.46	214.48
930.76	214.46
931.06	214.33
931.36	214.28
931.66	214.28
931.96	214.31
932.26	214.37
932.56	214.26
932.86	214.31
933.16	214.33
933.46	214.31
933.76	214.28
934.06	214.35
934.36	214.44
934.66	214.44
934.96	214.40
935.26	214.41
935.56	214.45
935.86	214.41
936.16	214.36
936.46	214.30
936.76	214.30
937.06	214.25
937.36	214.30
937.66	214.33
937.96	214.35
938.26	214.32
938.56	214.30
938.86	214.33
939.16	214.33
939.46	214.33
939.76	214.35
940.06	214.36
940.35	214.29
940.65	214.14
940.95	214.13
941.25	214.08
941.55	214.04
941.85	214.03
942.15	214.09
942.45	214.15
942.75	214.16
943.04	214.15
943.34	214.21
943.64	214.19
943.94	214.13
944.24	214.14
944.54	214.13
944.84	214.12
945.13	214.08
945.43	214.03
945.73	214.05
946.03	214.03
946.33	214.03
946.62	214.03
946.92	214.06
947.22	214.07
947.52	214.09
947.82	214.12
948.11	214.11
948.41	214.05
948.71	214.01
949.01	214.03
949.31	214.03
949.60	214.02
949.90	214.04
950.20	214.03
950.50	213.99
950.79	213.99
951.09	214.01
951.39	214.03
951.69	214.01
951.98	214.04
952.28	214.04
952.58	214.02
952.87	214.01
953.17	214.04
953.47	214.01
953.76	214.02
954.06	213.99
954.36	213.95
954.66	213.95
954.95	213.99
955.25	214.01
955.55	214.03
955.84	213.99
956.14	214.02
956.44	214.02
956.73	214.03
957.03	214.03
957.32	214.02
957.62	213.96
957.92	214.02
958.21	213.97
958.51	214.22
958.81	214.26
959.10	214.29
959.40	214.33
959.69	214.35
959.99	214.36
960.29	214.33
960.58	214.33
960.88	214.41
961.17	214.42
961.47	214.44
961.76	214.39
962.06	214.44
962.36	214.40
962.65	214.41
962.95	214.41
963.24	214.42
963.54	214.43
963.83	214.48
964.13	214.45
964.42	214.40
964.72	214.21
965.01	214.22
965.31	214.22
965.60	214.15
965.90	214.27
966.19	214.27
966.49	214.31
966.78	214.30
967.08	214.28
967.37	214.24
967.67	214.21
967.96	214.27
968.26	214.26
968.55	214.28
968.85	214.28
969.14	214.31
969.43	214.27
969.73	214.26
970.02	214.26
970.32	214.23
970.61	214.25
970.91	214.20
971.20	214.19
971.49	214.14
971.79	214.18
972.08	214.06
972.38	214.05
972.67	214.03
972.96	214.10
973.26	214.06
973.55	214.17
973.85	214.15
974.14	214.14
974.43	214.16
974.73	214.16
975.02	214.16
975.31	214.13
975.61	214.15
975.90	214.12
976.19	214.08
976.49	214.12
976.78	214.13
977.07	214.12
977.37	214.14
977.66	214.19
977.95	214.16
978.24	214.15
978.54	214.21
978.83	214.20
979.12	214.16
979.42	214.17
979.71	214.11
980.00	214.10
980.29	214.08
980.59	214.02
980.88	214.04
981.17	214.04
981.46	214.05
981.76	214.02
982.05	214.12
982.34	214.16
982.63	214.16
982.93	214.17
983.22	214.23
983.51	214.21
983.80	214.21
984.09	214.23
984.39	214.23
984.68	214.22
984.97	214.24
985.26	214.22
985.55	214.22
985.85	214.20
986.14	214.22
986.43	214.27
986.72	214.28
987.01	214.24
987.30	214.21
987.59	214.20
987.89	214.21
988.18	214.14
988.47	214.12
988.76	214.08
989.05	214.06
989.34	214.03
989.63	214.10
989.92	214.08
990.22	214.04
990.51	214.01
990.80	213.99
991.09	214.00
991.38	214.02
991.67	214.01
991.96	213.95
992.25	213.97
992.54	213.89
992.83	213.89
993.12	213.86
993.41	213.95
993.70	214.03
993.99	214.06
994.28	214.08
994.58	214.08
994.87	214.05
995.16	214.02
995.45	213.99
995.74	213.88
996.03	213.90
996.32	213.97
996.61	214.04
996.90	214.02
997.19	214.01
997.48	214.02
997.77	214.01
998.06	214.05
998.34	214.01
998.63	214.01
998.92	214.02
999.21	214.06
999.50	213.99
999.79	213.89
1000.08	213.90
1000.37	213.89
1000.66	213.89
1000.95	213.93
1001.24	213.93
1001.53	213.97
1001.82	213.96
1002.11	213.90
1002.40	213.87
1002.68	213.89
1002.97	214.02
1003.26	214.02
1003.55	213.97
1003.84	213.98
1004.13	214.03
1004.42	214.04
1004.71	214.07
1004.99	214.07
1005.28	214.12
1005.57	214.14
1005.86	214.15
1006.15	214.12
1006.44	214.10
1006.72	214.13
1007.01	214.12
1007.30	214.15
1007.59	214.10
1007.88	214.09
1008.17	214.14
1008.45	214.12
1008.74	214.04
1009.03	213.96
1009.32	213.92
1009.60	213.93
1009.89	213.88
1010.18	213.79
1010.47	213.79
1010.76	213.78
1011.04	213.76
1011.33	213.75
1011.62	213.73
1011.91	213.78
1012.19	213.78
1012.48	213.77
1012.77	213.77
1013.05	213.85
1013.34	213.85
1013.63	213.87
1013.92	213.90
1014.20	213.87
1014.49	213.88
1014.78	213.88
1015.06	213.83
1015.35	213.83
1015.64	213.86
1015.92	213.91
1016.21	213.95
1016.50	213.97
1016.78	214.00
1017.07	214.02
1017.36	214.00
1017.64	213.99
1017.93	213.97
1018.22	213.95
1018.50	213.95
1018.79	213.92
1019.08	213.84
1019.36	213.83
1019.65	213.78
1019.93	213.84
1020.22	213.85
1020.51	213.96
1020.79	213.95
1021.08	213.33
1021.36	213.59
1021.65	213.78
1021.94	213.61
1022.22	213.66
1022.51	213.16
1022.79	214.59
1023.08	213.97
1023.36	216.29
1023.65	213.26
>>>>>End Processed Spectral Data<<<<<
