SpectraSuite Data File
++++++++++++++++++++++++++++++++++++
Date: Tue Jan 29 16:55:14 EST 2013
User: group
Dark Spectrum Present: No
Reference Spectrum Present: No
Number of Sampled Component Spectra: 1
Spectrometers: USB2E7196
Integration Time (usec): 65000 (USB2E7196)
Spectra Averaged: 100 (USB2E7196)
Boxcar Smoothing: 10 (USB2E7196)
Correct for Electrical Dark: No (USB2E7196)
Strobe/Lamp Enabled: No (USB2E7196)
Correct for Detector Non-linearity: No (USB2E7196)
Correct for Stray Light: No (USB2E7196)
Number of Pixels in Processed Spectrum: 2048
>>>>>Begin Processed Spectral Data<<<<<
339.09	0.00
339.48	200.61
339.86	202.73
340.24	203.90
340.63	205.66
341.01	210.27
341.39	207.86
341.78	209.80
342.16	211.09
342.54	211.48
342.93	200.49
343.31	210.60
343.69	211.18
344.07	211.64
344.46	212.11
344.84	212.51
345.22	212.68
345.60	212.99
345.99	213.20
346.37	213.33
346.75	213.41
347.13	213.48
347.52	213.56
347.90	213.69
348.28	213.76
348.66	213.87
349.05	213.88
349.43	213.98
349.81	214.04
350.19	214.09
350.57	214.17
350.96	214.29
351.34	214.41
351.72	214.50
352.10	214.62
352.48	214.66
352.87	214.72
353.25	214.79
353.63	214.83
354.01	214.89
354.39	214.99
354.77	215.12
355.15	215.24
355.54	215.30
355.92	215.30
356.30	215.37
356.68	215.61
357.06	215.71
357.44	215.72
357.82	215.77
358.20	215.87
358.58	215.93
358.97	216.00
359.35	216.13
359.73	216.23
360.11	216.32
360.49	216.43
360.87	216.48
361.25	216.57
361.63	216.69
362.01	216.74
362.39	216.79
362.77	216.84
363.15	216.88
363.53	216.89
363.91	216.98
364.29	217.03
364.67	216.82
365.05	216.83
365.43	216.88
365.81	216.94
366.19	217.01
366.57	217.10
366.95	217.11
367.33	217.09
367.71	217.12
368.09	217.16
368.47	217.14
368.85	217.14
369.23	217.17
369.61	217.09
369.99	217.15
370.37	217.17
370.75	217.21
371.13	217.14
371.51	217.11
371.89	217.05
372.27	217.02
372.65	216.99
373.03	216.95
373.41	216.91
373.78	216.85
374.16	216.71
374.54	216.60
374.92	216.54
375.30	216.52
375.68	216.42
376.06	216.36
376.44	216.30
376.82	216.27
377.19	216.19
377.57	216.14
377.95	216.01
378.33	215.93
378.71	215.80
379.09	215.79
379.47	215.80
379.84	215.75
380.22	215.68
380.60	215.64
380.98	215.57
381.36	215.50
381.73	215.46
382.11	215.42
382.49	215.39
382.87	215.34
383.25	215.27
383.62	215.46
384.00	215.41
384.38	215.38
384.76	215.39
385.13	215.41
385.51	215.41
385.89	215.31
386.27	215.26
386.64	215.27
387.02	215.22
387.40	215.13
387.78	215.10
388.15	215.07
388.53	215.05
388.91	215.02
389.29	215.00
389.66	214.99
390.04	214.95
390.42	214.97
390.79	214.96
391.17	214.94
391.55	214.72
391.92	214.70
392.30	214.69
392.68	214.59
393.05	214.57
393.43	214.55
393.81	214.62
394.18	214.59
394.56	214.58
394.94	214.63
395.31	214.66
395.69	214.73
396.06	214.78
396.44	214.80
396.82	214.79
397.19	214.92
397.57	214.93
397.95	215.02
398.32	214.98
398.70	215.03
399.07	215.10
399.45	215.11
399.82	215.13
400.20	215.18
400.58	215.27
400.95	215.27
401.33	215.36
401.70	215.57
402.08	215.70
402.45	215.78
402.83	215.91
403.20	216.00
403.58	216.09
403.95	216.23
404.33	216.37
404.71	216.53
405.08	216.78
405.46	216.95
405.83	217.14
406.21	217.36
406.58	217.59
406.96	217.83
407.33	218.10
407.70	218.41
408.08	218.86
408.45	219.22
408.83	219.62
409.20	220.00
409.58	220.25
409.95	220.71
410.33	221.19
410.70	221.66
411.08	222.22
411.45	222.82
411.82	223.38
412.20	224.08
412.57	224.95
412.95	225.50
413.32	226.36
413.69	227.22
414.07	228.12
414.44	229.10
414.82	230.15
415.19	231.32
415.56	232.55
415.94	233.77
416.31	235.18
416.68	236.57
417.06	238.19
417.43	239.74
417.81	241.51
418.18	243.32
418.55	245.25
418.93	247.27
419.30	249.38
419.67	251.63
420.04	253.91
420.42	256.31
420.79	259.18
421.16	261.95
421.54	264.89
421.91	267.91
422.28	271.03
422.66	274.31
423.03	277.60
423.40	280.91
423.77	284.52
424.15	288.22
424.52	292.08
424.89	296.30
425.26	300.42
425.64	304.30
426.01	308.59
426.38	313.08
426.75	317.67
427.13	322.40
427.50	327.44
427.87	332.67
428.24	337.88
428.61	342.85
428.99	348.40
429.36	354.39
429.73	360.31
430.10	366.23
430.47	372.34
430.85	378.67
431.22	385.47
431.59	392.62
431.96	399.52
432.33	407.07
432.70	414.37
433.08	422.98
433.45	431.13
433.82	439.21
434.19	448.15
434.56	456.94
434.93	465.35
435.30	473.62
435.68	482.83
436.05	491.92
436.42	501.00
436.79	509.22
437.16	518.02
437.53	527.36
437.90	536.59
438.27	545.59
438.64	554.87
439.01	563.44
439.38	571.01
439.75	578.34
440.13	586.83
440.50	594.79
440.87	601.25
441.24	607.93
441.61	615.35
441.98	620.79
442.35	627.19
442.72	633.55
443.09	639.69
443.46	643.41
443.83	645.93
444.20	648.11
444.57	651.30
444.94	652.86
445.31	654.35
445.68	655.77
446.05	656.40
446.42	655.69
446.79	654.73
447.16	653.69
447.53	653.01
447.90	649.66
448.27	646.39
448.64	641.72
449.01	638.37
449.37	632.40
449.74	626.73
450.11	619.76
450.48	612.35
450.85	604.87
451.22	598.44
451.59	592.27
451.96	586.38
452.33	578.46
452.70	571.29
453.07	562.76
453.43	554.07
453.80	545.70
454.17	537.60
454.54	530.05
454.91	521.83
455.28	513.74
455.65	506.28
456.02	498.67
456.38	492.24
456.75	484.33
457.12	477.66
457.49	471.03
457.86	464.75
458.23	459.28
458.59	453.25
458.96	447.16
459.33	441.78
459.70	436.37
460.07	432.04
460.43	427.07
460.80	422.41
461.17	418.35
461.54	414.11
461.91	410.06
462.27	405.93
462.64	402.50
463.01	398.67
463.38	394.92
463.74	391.20
464.11	387.98
464.48	385.13
464.85	382.08
465.21	379.63
465.58	376.97
465.95	373.85
466.32	371.26
466.68	368.61
467.05	366.01
467.42	363.45
467.78	360.74
468.15	358.18
468.52	356.25
468.88	353.77
469.25	351.59
469.62	349.80
469.98	347.79
470.35	345.91
470.72	344.21
471.08	342.43
471.45	340.88
471.82	339.28
472.18	337.50
472.55	336.24
472.92	334.86
473.28	333.63
473.65	332.42
474.02	331.26
474.38	330.38
474.75	329.59
475.11	328.73
475.48	328.16
475.85	327.67
476.21	327.17
476.58	326.78
476.94	326.52
477.31	326.15
477.67	325.86
478.04	325.70
478.41	325.63
478.77	325.75
479.14	325.72
479.50	325.89
479.87	326.27
480.23	326.59
480.60	326.80
480.96	327.06
481.33	327.64
481.69	328.19
482.06	328.66
482.42	329.15
482.79	329.74
483.15	330.51
483.52	331.44
483.88	332.31
484.25	333.25
484.61	334.21
484.98	335.26
485.34	336.63
485.71	337.96
486.07	339.41
486.44	340.74
486.80	342.37
487.17	344.02
487.53	345.80
487.90	347.68
488.26	349.76
488.62	351.97
488.99	354.01
489.35	356.20
489.72	358.61
490.08	361.14
490.44	363.68
490.81	366.43
491.17	369.06
491.54	372.06
491.90	375.11
492.26	378.35
492.63	381.73
492.99	385.13
493.36	388.80
493.72	392.64
494.08	396.62
494.45	400.79
494.81	405.16
495.17	409.59
495.54	414.24
495.90	419.02
496.26	423.87
496.63	429.10
496.99	434.51
497.35	440.11
497.72	445.88
498.08	451.80
498.44	457.84
498.80	464.37
499.17	470.80
499.53	477.45
499.89	484.41
500.26	491.43
500.62	498.51
500.98	505.87
501.34	513.38
501.71	521.12
502.07	528.89
502.43	536.90
502.79	545.01
503.16	553.38
503.52	561.98
503.88	570.65
504.24	579.60
504.60	588.64
504.97	597.82
505.33	607.10
505.69	617.00
506.05	626.85
506.41	636.64
506.78	646.69
507.14	656.96
507.50	667.43
507.86	678.08
508.22	688.83
508.59	699.46
508.95	710.37
509.31	721.49
509.67	732.94
510.03	744.25
510.39	755.95
510.75	767.67
511.12	779.57
511.48	791.61
511.84	803.87
512.20	816.11
512.56	828.63
512.92	841.44
513.28	854.02
513.64	866.71
514.00	879.56
514.37	892.43
514.73	905.44
515.09	918.31
515.45	931.27
515.81	944.35
516.17	957.81
516.53	971.05
516.89	984.21
517.25	997.43
517.61	1010.94
517.97	1024.32
518.33	1037.60
518.69	1051.08
519.05	1064.78
519.41	1078.40
519.77	1092.34
520.13	1105.80
520.49	1118.88
520.85	1132.22
521.21	1145.63
521.57	1159.24
521.93	1172.46
522.29	1186.13
522.65	1199.79
523.01	1213.35
523.37	1226.63
523.73	1239.97
524.09	1253.20
524.45	1266.73
524.81	1280.26
525.17	1293.65
525.53	1306.82
525.89	1320.08
526.25	1333.33
526.61	1346.26
526.97	1359.38
527.33	1372.33
527.68	1385.83
528.04	1399.35
528.40	1412.52
528.76	1425.83
529.12	1438.76
529.48	1452.10
529.84	1464.41
530.20	1477.26
530.56	1489.85
530.91	1502.96
531.27	1515.89
531.63	1528.59
531.99	1541.42
532.35	1553.62
532.71	1566.06
533.07	1579.11
533.42	1591.47
533.78	1603.61
534.14	1615.74
534.50	1627.08
534.86	1638.66
535.21	1649.54
535.57	1661.21
535.93	1672.48
536.29	1683.76
536.65	1695.32
537.00	1706.24
537.36	1717.85
537.72	1728.87
538.08	1740.44
538.44	1751.56
538.79	1762.62
539.15	1773.72
539.51	1784.55
539.87	1795.91
540.22	1806.85
540.58	1817.90
540.94	1828.90
541.29	1839.16
541.65	1849.08
542.01	1859.48
542.37	1869.72
542.72	1879.90
543.08	1889.56
543.44	1900.21
543.79	1909.40
544.15	1918.96
544.51	1928.98
544.87	1938.93
545.22	1948.24
545.58	1957.15
545.94	1966.21
546.29	1974.82
546.65	1983.32
547.01	1991.45
547.36	1999.24
547.72	2006.98
548.07	2014.50
548.43	2022.38
548.79	2030.27
549.14	2038.47
549.50	2047.02
549.86	2054.87
550.21	2062.43
550.57	2070.25
550.92	2077.05
551.28	2084.65
551.64	2091.93
551.99	2099.52
552.35	2106.71
552.70	2113.60
553.06	2120.25
553.41	2126.41
553.77	2132.95
554.13	2139.21
554.48	2146.30
554.84	2153.53
555.19	2160.25
555.55	2166.57
555.90	2172.61
556.26	2179.47
556.61	2185.56
556.97	2190.40
557.32	2196.18
557.68	2202.57
558.03	2208.45
558.39	2213.92
558.74	2219.97
559.10	2225.38
559.45	2230.92
559.81	2236.43
560.16	2241.89
560.52	2247.66
560.87	2254.06
561.23	2259.79
561.58	2266.43
561.94	2271.67
562.29	2276.14
562.64	2281.96
563.00	2287.81
563.35	2293.42
563.71	2298.92
564.06	2304.45
564.42	2310.30
564.77	2315.26
565.12	2320.40
565.48	2325.21
565.83	2330.59
566.19	2335.65
566.54	2340.96
566.89	2345.48
567.25	2349.85
567.60	2355.46
567.96	2360.44
568.31	2364.89
568.66	2369.23
569.02	2373.08
569.37	2376.68
569.72	2381.02
570.08	2384.36
570.43	2387.33
570.78	2390.52
571.14	2393.06
571.49	2396.06
571.84	2399.47
572.20	2402.40
572.55	2405.11
572.90	2407.49
573.26	2409.92
573.61	2412.57
573.96	2414.59
574.31	2416.49
574.67	2418.26
575.02	2418.92
575.37	2420.36
575.72	2420.88
576.08	2422.05
576.43	2421.91
576.78	2422.09
577.13	2423.31
577.49	2424.38
577.84	2425.05
578.19	2425.87
578.54	2426.19
578.90	2426.55
579.25	2426.32
579.60	2425.82
579.95	2424.96
580.30	2424.60
580.66	2423.95
581.01	2422.07
581.36	2419.42
581.71	2417.74
582.06	2416.37
582.42	2415.26
582.77	2412.73
583.12	2410.77
583.47	2409.14
583.82	2408.50
584.17	2407.02
584.53	2404.75
584.88	2402.53
585.23	2400.44
585.58	2397.98
585.93	2395.88
586.28	2393.67
586.63	2391.01
586.98	2388.71
587.34	2386.53
587.69	2383.85
588.04	2381.51
588.39	2379.91
588.74	2377.32
589.09	2374.43
589.44	2371.11
589.79	2368.16
590.14	2366.06
590.49	2363.06
590.84	2359.06
591.19	2355.64
591.54	2352.49
591.89	2348.30
592.25	2344.71
592.60	2340.60
592.95	2336.46
593.30	2332.20
593.65	2327.74
594.00	2323.22
594.35	2320.24
594.70	2315.44
595.05	2311.06
595.40	2305.32
595.75	2299.34
596.10	2295.55
596.45	2290.58
596.80	2285.86
597.15	2280.79
597.50	2274.75
597.85	2269.76
598.19	2264.56
598.54	2258.77
598.89	2253.35
599.24	2248.79
599.59	2242.73
599.94	2236.64
600.29	2230.55
600.64	2224.50
600.99	2217.46
601.34	2211.79
601.69	2204.70
602.04	2198.48
602.39	2191.67
602.74	2185.66
603.08	2180.17
603.43	2173.72
603.78	2166.89
604.13	2159.89
604.48	2152.67
604.83	2146.68
605.18	2140.57
605.53	2133.66
605.87	2126.60
606.22	2119.83
606.57	2111.91
606.92	2103.91
607.27	2097.02
607.62	2090.43
607.96	2083.43
608.31	2077.21
608.66	2069.62
609.01	2061.94
609.36	2054.76
609.70	2047.22
610.05	2039.46
610.40	2031.15
610.75	2022.84
611.10	2015.05
611.44	2006.02
611.79	1997.27
612.14	1987.28
612.49	1976.53
612.83	1967.02
613.18	1957.72
613.53	1948.41
613.88	1938.81
614.22	1930.26
614.57	1920.43
614.92	1909.84
615.27	1899.60
615.61	1889.28
615.96	1879.67
616.31	1870.10
616.65	1860.54
617.00	1850.93
617.35	1841.36
617.70	1831.61
618.04	1821.64
618.39	1811.69
618.74	1802.24
619.08	1792.71
619.43	1784.11
619.78	1775.99
620.12	1767.63
620.47	1758.23
620.82	1747.93
621.16	1738.30
621.51	1728.53
621.85	1718.88
622.20	1708.71
622.55	1698.44
622.89	1688.52
623.24	1678.80
623.59	1669.15
623.93	1659.25
624.28	1649.42
624.62	1639.31
624.97	1629.24
625.32	1619.38
625.66	1610.45
626.01	1601.86
626.35	1592.66
626.70	1582.70
627.04	1572.82
627.39	1562.78
627.73	1553.67
628.08	1545.06
628.43	1535.67
628.77	1526.53
629.12	1517.69
629.46	1510.03
629.81	1501.76
630.15	1492.64
630.50	1482.95
630.84	1472.53
631.19	1462.77
631.53	1453.64
631.88	1443.68
632.22	1433.81
632.57	1424.65
632.91	1414.82
633.26	1405.01
633.60	1395.59
633.95	1386.43
634.29	1377.01
634.64	1367.87
634.98	1357.83
635.32	1348.49
635.67	1340.20
636.01	1330.98
636.36	1321.51
636.70	1311.97
637.05	1302.75
637.39	1293.96
637.73	1285.57
638.08	1278.13
638.42	1270.14
638.77	1261.39
639.11	1253.28
639.45	1245.67
639.80	1237.40
640.14	1228.63
640.49	1219.93
640.83	1211.19
641.17	1203.06
641.52	1195.06
641.86	1186.60
642.20	1178.98
642.55	1170.48
642.89	1161.73
643.23	1153.21
643.58	1145.12
643.92	1136.22
644.26	1127.65
644.61	1119.28
644.95	1110.54
645.29	1101.52
645.64	1092.40
645.98	1083.91
646.32	1076.12
646.66	1067.60
647.01	1059.30
647.35	1051.38
647.69	1043.15
648.04	1034.99
648.38	1026.34
648.72	1017.68
649.06	1009.20
649.41	1001.04
649.75	993.18
650.09	985.25
650.43	977.37
650.78	969.05
651.12	961.35
651.46	953.87
651.80	946.66
652.14	939.41
652.49	931.94
652.83	924.72
653.17	917.23
653.51	909.66
653.85	902.47
654.20	895.27
654.54	887.96
654.88	880.80
655.22	873.58
655.56	866.58
655.90	859.85
656.25	853.32
656.59	846.53
656.93	839.62
657.27	832.60
657.61	825.59
657.95	819.54
658.29	813.65
658.64	807.67
658.98	801.25
659.32	794.80
659.66	788.59
660.00	782.34
660.34	776.29
660.68	770.19
661.02	763.84
661.36	757.89
661.70	752.01
662.05	746.41
662.39	740.93
662.73	735.52
663.07	730.14
663.41	724.54
663.75	718.81
664.09	713.10
664.43	707.68
664.77	702.37
665.11	696.61
665.45	690.81
665.79	684.99
666.13	679.33
666.47	673.93
666.81	668.42
667.15	662.92
667.49	657.74
667.83	652.43
668.17	647.30
668.51	642.22
668.85	637.33
669.19	632.41
669.53	627.37
669.87	622.28
670.21	617.44
670.55	612.70
670.89	608.23
671.23	603.84
671.57	599.44
671.91	595.18
672.25	590.92
672.58	586.85
672.92	582.74
673.26	578.82
673.60	574.80
673.94	570.99
674.28	567.40
674.62	563.63
674.96	559.91
675.30	556.36
675.64	552.66
675.97	548.99
676.31	545.37
676.65	541.85
676.99	538.40
677.33	534.59
677.67	531.01
678.01	527.21
678.34	523.67
678.68	520.15
679.02	516.58
679.36	512.97
679.70	509.22
680.04	505.65
680.37	502.17
680.71	498.84
681.05	495.66
681.39	492.30
681.73	489.11
682.06	486.11
682.40	483.04
682.74	479.92
683.08	476.75
683.42	473.50
683.75	470.38
684.09	467.33
684.43	464.52
684.77	461.59
685.10	458.72
685.44	455.73
685.78	452.81
686.12	449.99
686.45	447.26
686.79	444.62
687.13	442.06
687.46	439.41
687.80	436.73
688.14	433.88
688.48	431.26
688.81	428.59
689.15	425.97
689.49	423.27
689.82	420.67
690.16	418.04
690.50	415.59
690.83	413.14
691.17	410.56
691.51	408.04
691.84	405.67
692.18	403.49
692.52	401.26
692.85	399.08
693.19	396.90
693.52	394.70
693.86	392.46
694.20	390.26
694.53	388.13
694.87	385.95
695.21	383.82
695.54	381.67
695.88	379.48
696.21	377.29
696.55	375.16
696.88	373.08
697.22	371.11
697.56	369.17
697.89	367.25
698.23	365.47
698.56	363.68
698.90	361.95
699.23	360.02
699.57	358.13
699.90	356.26
700.24	354.38
700.58	352.59
700.91	350.87
701.25	349.29
701.58	347.62
701.92	345.98
702.25	344.34
702.59	342.69
702.92	341.13
703.26	339.54
703.59	338.02
703.93	336.75
704.26	335.29
704.60	333.78
704.93	332.28
705.26	330.80
705.60	329.30
705.93	327.72
706.27	326.32
706.60	325.03
706.94	323.76
707.27	322.40
707.61	321.07
707.94	319.69
708.27	318.16
708.61	316.70
708.94	315.30
709.28	313.99
709.61	312.74
709.94	311.51
710.28	310.26
710.61	309.06
710.95	307.62
711.28	306.51
711.61	305.31
711.95	304.19
712.28	302.94
712.61	301.76
712.95	300.70
713.28	299.66
713.61	298.49
713.95	297.33
714.28	296.30
714.61	295.22
714.95	294.18
715.28	293.16
715.61	292.15
715.95	291.19
716.28	290.20
716.61	289.24
716.95	288.21
717.28	287.28
717.61	286.29
717.94	285.36
718.28	284.34
718.61	283.43
718.94	282.54
719.27	281.68
719.61	280.86
719.94	279.97
720.27	279.03
720.60	278.16
720.94	277.36
721.27	276.57
721.60	275.89
721.93	275.18
722.27	274.50
722.60	273.81
722.93	273.07
723.26	272.41
723.59	271.68
723.93	271.06
724.26	270.42
724.59	269.75
724.92	269.13
725.25	268.55
725.59	267.95
725.92	267.36
726.25	266.81
726.58	266.21
726.91	265.58
727.24	264.96
727.57	264.39
727.91	263.74
728.24	263.23
728.57	262.61
728.90	262.03
729.23	261.41
729.56	260.98
729.89	260.47
730.22	259.86
730.55	259.31
730.89	258.77
731.22	258.23
731.55	257.75
731.88	257.23
732.21	256.73
732.54	256.19
732.87	255.68
733.20	255.20
733.53	254.69
733.86	254.24
734.19	253.76
734.52	253.33
734.85	253.02
735.18	252.52
735.51	252.15
735.84	251.69
736.17	251.31
736.50	250.73
736.83	250.53
737.16	250.18
737.49	249.79
737.82	249.34
738.15	248.92
738.48	248.52
738.81	248.14
739.14	247.64
739.47	247.26
739.80	246.85
740.13	246.48
740.46	246.05
740.79	245.68
741.12	245.29
741.45	244.90
741.78	244.44
742.11	244.14
742.44	243.71
742.77	243.42
743.10	243.06
743.43	242.75
743.75	242.19
744.08	242.05
744.41	241.67
744.74	241.36
745.07	240.99
745.40	240.67
745.73	240.40
746.06	240.14
746.39	239.82
746.71	239.52
747.04	239.18
747.37	238.87
747.70	238.60
748.03	238.33
748.36	238.05
748.68	237.75
749.01	237.36
749.34	237.10
749.67	236.82
750.00	236.53
750.33	236.36
750.65	236.09
750.98	235.59
751.31	235.32
751.64	235.09
751.97	234.95
752.29	234.66
752.62	234.28
752.95	234.02
753.28	233.76
753.60	233.49
753.93	233.32
754.26	233.09
754.59	232.78
754.91	232.56
755.24	232.30
755.57	232.07
755.90	231.85
756.22	231.59
756.55	231.29
756.88	231.00
757.20	230.67
757.53	230.42
757.86	230.20
758.19	230.03
758.51	229.81
758.84	229.49
759.17	229.33
759.49	229.18
759.82	229.10
760.15	228.93
760.47	228.75
760.80	228.47
761.13	228.34
761.45	228.15
761.78	227.92
762.11	227.73
762.43	227.55
762.76	227.40
763.08	227.25
763.41	227.12
763.74	227.02
764.06	226.88
764.39	226.72
764.71	226.60
765.04	226.45
765.37	226.29
765.69	226.15
766.02	226.01
766.34	225.85
766.67	225.61
767.00	225.49
767.32	225.48
767.65	225.47
767.97	225.31
768.30	225.19
768.62	225.07
768.95	224.92
769.27	224.80
769.60	224.66
769.92	224.52
770.25	224.37
770.57	224.22
770.90	224.09
771.22	223.96
771.55	223.83
771.87	223.69
772.20	223.57
772.52	223.62
772.85	223.72
773.17	223.63
773.50	223.48
773.82	223.36
774.15	223.14
774.47	222.91
774.80	222.78
775.12	222.66
775.45	222.56
775.77	222.51
776.09	222.41
776.42	222.32
776.74	222.29
777.07	222.18
777.39	222.09
777.72	221.98
778.04	221.91
778.36	221.78
778.69	221.71
779.01	221.64
779.33	221.38
779.66	221.06
779.98	220.94
780.31	220.90
780.63	220.89
780.95	220.86
781.28	220.76
781.60	220.70
781.92	220.65
782.25	220.60
782.57	220.51
782.89	220.42
783.22	220.32
783.54	220.23
783.86	220.18
784.19	220.11
784.51	220.11
784.83	219.98
785.16	219.94
785.48	219.85
785.80	219.80
786.12	219.77
786.45	219.72
786.77	219.71
787.09	219.64
787.42	219.49
787.74	219.44
788.06	219.42
788.38	219.33
788.71	219.25
789.03	219.16
789.35	219.12
789.67	219.06
789.99	219.08
790.32	218.99
790.64	219.00
790.96	219.13
791.28	218.97
791.61	218.96
791.93	218.95
792.25	218.94
792.57	219.00
792.89	218.89
793.21	218.86
793.54	218.76
793.86	218.68
794.18	218.65
794.50	218.56
794.82	218.51
795.14	218.52
795.47	218.50
795.79	218.51
796.11	218.44
796.43	218.38
796.75	218.29
797.07	218.23
797.39	218.15
797.71	217.96
798.04	217.95
798.36	217.90
798.68	217.83
799.00	217.80
799.32	217.67
799.64	217.68
799.96	217.63
800.28	217.64
800.60	217.58
800.92	217.56
801.24	217.51
801.56	217.50
801.89	217.45
802.21	217.43
802.53	217.32
802.85	217.34
803.17	217.43
803.49	217.40
803.81	217.37
804.13	217.32
804.45	217.26
804.77	217.26
805.09	217.20
805.41	217.16
805.73	217.07
806.05	216.99
806.37	216.96
806.69	216.93
807.01	216.90
807.33	216.90
807.65	216.79
807.97	216.86
808.28	216.78
808.60	216.75
808.92	216.70
809.24	216.81
809.56	216.76
809.88	216.62
810.20	216.56
810.52	216.58
810.84	216.57
811.16	216.51
811.48	216.49
811.80	216.56
812.12	216.54
812.43	216.56
812.75	216.56
813.07	216.49
813.39	216.48
813.71	216.44
814.03	216.36
814.35	216.40
814.67	216.27
814.98	216.26
815.30	216.23
815.62	216.17
815.94	216.01
816.26	215.97
816.58	215.91
816.89	215.92
817.21	215.83
817.53	215.79
817.85	215.76
818.17	215.70
818.48	215.60
818.80	215.64
819.12	215.60
819.44	215.52
819.76	215.48
820.07	215.44
820.39	215.40
820.71	215.44
821.03	215.40
821.34	215.42
821.66	215.39
821.98	215.41
822.30	215.38
822.61	215.47
822.93	215.45
823.25	215.44
823.57	215.43
823.88	215.46
824.20	215.47
824.52	215.51
824.83	215.52
825.15	215.49
825.47	215.42
825.79	215.44
826.10	215.42
826.42	215.42
826.74	215.44
827.05	215.44
827.37	215.45
827.69	215.45
828.00	215.42
828.32	215.43
828.64	215.40
828.95	215.48
829.27	215.41
829.58	215.42
829.90	215.47
830.22	215.45
830.53	215.38
830.85	215.37
831.17	215.30
831.48	215.26
831.80	215.27
832.11	215.24
832.43	215.18
832.75	215.16
833.06	215.31
833.38	215.22
833.69	215.18
834.01	215.17
834.32	215.15
834.64	215.11
834.96	215.03
835.27	214.98
835.59	214.93
835.90	214.88
836.22	214.88
836.53	214.82
836.85	214.80
837.16	214.98
837.48	214.95
837.79	215.00
838.11	215.02
838.42	215.01
838.74	215.04
839.05	215.03
839.37	215.02
839.68	214.84
840.00	214.85
840.31	214.86
840.63	214.82
840.94	214.80
841.26	214.76
841.57	214.81
841.88	214.82
842.20	214.79
842.51	214.79
842.83	214.75
843.14	214.92
843.46	214.91
843.77	214.78
844.08	214.74
844.40	214.68
844.71	214.64
845.03	214.63
845.34	214.60
845.65	214.62
845.97	214.60
846.28	214.62
846.60	214.61
846.91	214.56
847.22	214.56
847.54	214.55
847.85	214.60
848.16	214.56
848.48	214.51
848.79	214.59
849.10	214.60
849.42	214.61
849.73	214.40
850.04	214.41
850.36	214.35
850.67	214.40
850.98	214.41
851.30	214.44
851.61	214.40
851.92	214.41
852.23	214.45
852.55	214.47
852.86	214.48
853.17	214.50
853.49	214.57
853.80	214.59
854.11	214.62
854.42	214.64
854.74	214.60
855.05	214.64
855.36	214.53
855.67	214.54
855.99	214.55
856.30	214.80
856.61	214.76
856.92	214.75
857.23	214.74
857.55	214.69
857.86	214.64
858.17	214.67
858.48	214.65
858.79	214.61
859.11	214.64
859.42	214.61
859.73	214.60
860.04	214.59
860.35	214.53
860.66	214.45
860.98	214.45
861.29	214.48
861.60	214.46
861.91	214.49
862.22	214.47
862.53	214.42
862.84	214.18
863.16	214.24
863.47	214.24
863.78	214.17
864.09	214.22
864.40	214.25
864.71	214.26
865.02	214.24
865.33	214.19
865.64	214.13
865.95	214.11
866.27	214.22
866.58	214.19
866.89	214.20
867.20	214.21
867.51	214.17
867.82	214.19
868.13	214.25
868.44	214.18
868.75	214.21
869.06	214.21
869.37	214.23
869.68	214.17
869.99	214.19
870.30	214.24
870.61	214.24
870.92	214.22
871.23	214.19
871.54	214.20
871.85	214.27
872.16	214.31
872.47	214.30
872.78	214.18
873.09	214.23
873.40	214.19
873.71	214.22
874.02	214.22
874.33	214.18
874.64	214.13
874.95	214.20
875.26	214.14
875.56	214.14
875.87	214.17
876.18	214.19
876.49	214.39
876.80	214.35
877.11	214.33
877.42	214.37
877.73	214.34
878.04	214.33
878.35	214.36
878.66	214.37
878.96	214.36
879.27	214.35
879.58	214.32
879.89	214.31
880.20	214.38
880.51	214.39
880.82	214.38
881.12	214.39
881.43	214.32
881.74	214.31
882.05	214.28
882.36	214.27
882.67	214.26
882.97	214.04
883.28	214.04
883.59	214.02
883.90	214.02
884.21	214.08
884.51	214.07
884.82	213.98
885.13	214.00
885.44	214.01
885.74	214.02
886.05	213.98
886.36	214.03
886.67	213.92
886.98	214.03
887.28	214.05
887.59	214.07
887.90	214.10
888.20	214.08
888.51	214.13
888.82	214.06
889.13	214.10
889.43	214.30
889.74	214.29
890.05	214.29
890.35	214.26
890.66	214.25
890.97	214.24
891.28	214.24
891.58	214.22
891.89	214.23
892.20	214.23
892.50	214.27
892.81	214.22
893.12	214.24
893.42	214.10
893.73	214.11
894.04	214.09
894.34	214.13
894.65	214.13
894.95	214.12
895.26	214.15
895.57	214.21
895.87	214.00
896.18	214.04
896.48	214.04
896.79	214.06
897.10	214.08
897.40	214.10
897.71	214.13
898.01	214.12
898.32	214.14
898.63	214.11
898.93	214.09
899.24	214.14
899.54	214.10
899.85	214.12
900.15	214.10
900.46	214.10
900.76	214.08
901.07	214.07
901.38	214.07
901.68	214.11
901.99	214.00
902.29	214.00
902.60	214.01
902.90	213.99
903.21	213.98
903.51	213.95
903.82	213.97
904.12	213.98
904.43	213.96
904.73	213.93
905.03	213.97
905.34	214.17
905.64	214.13
905.95	214.18
906.25	214.16
906.56	214.17
906.86	214.16
907.17	214.14
907.47	214.19
907.77	214.15
908.08	214.10
908.38	214.12
908.69	214.15
908.99	214.15
909.30	214.18
909.60	214.17
909.90	214.14
910.21	214.10
910.51	214.05
910.81	214.09
911.12	214.11
911.42	214.07
911.73	213.84
912.03	213.85
912.33	213.88
912.64	213.86
912.94	213.84
913.24	213.83
913.55	213.83
913.85	213.84
914.15	213.88
914.46	213.91
914.76	213.86
915.06	213.84
915.37	213.79
915.67	213.76
915.97	213.78
916.27	213.77
916.58	213.80
916.88	213.80
917.18	213.79
917.49	213.91
917.79	213.92
918.09	213.95
918.39	214.00
918.70	213.97
919.00	214.00
919.30	214.08
919.60	214.06
919.91	214.03
920.21	214.03
920.51	213.99
920.81	213.99
921.12	214.02
921.42	214.01
921.72	214.00
922.02	214.02
922.32	214.03
922.63	214.04
922.93	214.10
923.23	214.08
923.53	214.05
923.83	213.91
924.13	213.95
924.44	213.95
924.74	213.97
925.04	214.02
925.34	214.01
925.64	213.95
925.94	213.95
926.24	214.07
926.55	214.04
926.85	214.05
927.15	214.03
927.45	214.04
927.75	214.06
928.05	214.08
928.35	214.08
928.65	214.12
928.95	214.12
929.26	214.05
929.56	214.09
929.86	214.08
930.16	214.08
930.46	214.06
930.76	214.10
931.06	214.03
931.36	213.98
931.66	213.99
931.96	214.00
932.26	214.05
932.56	213.93
932.86	213.93
933.16	213.93
933.46	213.90
933.76	213.87
934.06	213.92
934.36	213.99
934.66	213.99
934.96	213.92
935.26	213.93
935.56	213.97
935.86	213.93
936.16	213.95
936.46	213.91
936.76	213.89
937.06	213.84
937.36	213.82
937.66	213.79
937.96	213.80
938.26	213.76
938.56	213.71
938.86	213.76
939.16	213.83
939.46	213.89
939.76	213.91
940.06	213.95
940.35	213.89
940.65	213.79
940.95	213.79
941.25	213.74
941.55	213.69
941.85	213.67
942.15	213.69
942.45	213.73
942.75	213.74
943.04	213.71
943.34	213.76
943.64	213.77
943.94	213.76
944.24	213.75
944.54	213.77
944.84	213.77
945.13	213.74
945.43	213.68
945.73	213.64
946.03	213.64
946.33	213.59
946.62	213.57
946.92	213.56
947.22	213.58
947.52	213.60
947.82	213.65
948.11	213.67
948.41	213.62
948.71	213.55
949.01	213.60
949.31	213.60
949.60	213.58
949.90	213.62
950.20	213.62
950.50	213.62
950.79	213.59
951.09	213.60
951.39	213.59
951.69	213.58
951.98	213.63
952.28	213.58
952.58	213.57
952.87	213.59
953.17	213.64
953.47	213.60
953.76	213.62
954.06	213.59
954.36	213.52
954.66	213.56
954.95	213.61
955.25	213.60
955.55	213.63
955.84	213.59
956.14	213.60
956.44	213.62
956.73	213.58
957.03	213.60
957.32	213.65
957.62	213.65
957.92	213.69
958.21	213.65
958.51	213.92
958.81	213.94
959.10	213.96
959.40	213.98
959.69	214.02
959.99	214.05
960.29	214.06
960.58	214.09
960.88	214.13
961.17	214.09
961.47	214.13
961.76	214.11
962.06	214.17
962.36	214.11
962.65	214.12
962.95	214.16
963.24	214.16
963.54	214.16
963.83	214.17
964.13	214.16
964.42	214.13
964.72	213.96
965.01	213.99
965.31	213.97
965.60	213.93
965.90	214.04
966.19	213.98
966.49	213.98
966.78	213.96
967.08	213.96
967.37	214.02
967.67	213.96
967.96	213.99
968.26	213.99
968.55	214.01
968.85	214.00
969.14	214.01
969.43	213.98
969.73	213.98
970.02	213.98
970.32	213.94
970.61	213.91
970.91	213.88
971.20	213.83
971.49	213.80
971.79	213.83
972.08	213.68
972.38	213.71
972.67	213.70
972.96	213.72
973.26	213.65
973.55	213.67
973.85	213.66
974.14	213.63
974.43	213.62
974.73	213.58
975.02	213.57
975.31	213.55
975.61	213.58
975.90	213.55
976.19	213.50
976.49	213.52
976.78	213.54
977.07	213.51
977.37	213.53
977.66	213.56
977.95	213.55
978.24	213.56
978.54	213.57
978.83	213.56
979.12	213.52
979.42	213.55
979.71	213.50
980.00	213.48
980.29	213.49
980.59	213.46
980.88	213.51
981.17	213.54
981.46	213.53
981.76	213.51
982.05	213.55
982.34	213.57
982.63	213.58
982.93	213.57
983.22	213.61
983.51	213.60
983.80	213.60
984.09	213.62
984.39	213.60
984.68	213.58
984.97	213.61
985.26	213.62
985.55	213.62
985.85	213.58
986.14	213.62
986.43	213.66
986.72	213.63
987.01	213.58
987.30	213.51
987.59	213.51
987.89	213.49
988.18	213.43
988.47	213.42
988.76	213.39
989.05	213.37
989.34	213.37
989.63	213.41
989.92	213.41
990.22	213.35
990.51	213.36
990.80	213.34
991.09	213.33
991.38	213.38
991.67	213.36
991.96	213.35
992.25	213.36
992.54	213.32
992.83	213.35
993.12	213.35
993.41	213.45
993.70	213.52
993.99	213.55
994.28	213.58
994.58	213.59
994.87	213.56
995.16	213.59
995.45	213.59
995.74	213.54
996.03	213.59
996.32	213.64
996.61	213.69
996.90	213.68
997.19	213.65
997.48	213.64
997.77	213.61
998.06	213.63
998.34	213.63
998.63	213.66
998.92	213.66
999.21	213.70
999.50	213.71
999.79	213.64
1000.08	213.67
1000.37	213.68
1000.66	213.66
1000.95	213.77
1001.24	213.74
1001.53	213.75
1001.82	213.75
1002.11	213.68
1002.40	213.69
1002.68	213.74
1002.97	213.91
1003.26	213.93
1003.55	213.88
1003.84	213.92
1004.13	214.01
1004.42	213.97
1004.71	213.98
1004.99	213.94
1005.28	213.99
1005.57	213.95
1005.86	213.95
1006.15	213.94
1006.44	213.90
1006.72	213.95
1007.01	213.88
1007.30	213.90
1007.59	213.87
1007.88	213.85
1008.17	213.86
1008.45	213.85
1008.74	213.72
1009.03	213.62
1009.32	213.60
1009.60	213.65
1009.89	213.60
1010.18	213.50
1010.47	213.50
1010.76	213.45
1011.04	213.46
1011.33	213.47
1011.62	213.47
1011.91	213.45
1012.19	213.47
1012.48	213.45
1012.77	213.43
1013.05	213.52
1013.34	213.51
1013.63	213.50
1013.92	213.51
1014.20	213.53
1014.49	213.51
1014.78	213.58
1015.06	213.49
1015.35	213.50
1015.64	213.51
1015.92	213.55
1016.21	213.58
1016.50	213.58
1016.78	213.62
1017.07	213.66
1017.36	213.57
1017.64	213.51
1017.93	213.56
1018.22	213.49
1018.50	213.47
1018.79	213.48
1019.08	213.37
1019.36	213.38
1019.65	213.37
1019.93	213.45
1020.22	213.45
1020.51	213.58
1020.79	213.51
1021.08	212.84
1021.36	212.64
1021.65	213.65
1021.94	213.25
1022.22	213.60
1022.51	212.99
1022.79	214.88
1023.08	213.70
1023.36	216.21
1023.65	212.58
>>>>>End Processed Spectral Data<<<<<
