SpectraSuite Data File
++++++++++++++++++++++++++++++++++++
Date: Tue Jan 29 16:11:03 EST 2013
User: group
Dark Spectrum Present: No
Reference Spectrum Present: No
Number of Sampled Component Spectra: 1
Spectrometers: USB2E7196
Integration Time (usec): 65000 (USB2E7196)
Spectra Averaged: 100 (USB2E7196)
Boxcar Smoothing: 10 (USB2E7196)
Correct for Electrical Dark: No (USB2E7196)
Strobe/Lamp Enabled: No (USB2E7196)
Correct for Detector Non-linearity: No (USB2E7196)
Correct for Stray Light: No (USB2E7196)
Number of Pixels in Processed Spectrum: 2048
>>>>>Begin Processed Spectral Data<<<<<
339.09	0.00
339.48	202.94
339.86	203.75
340.24	205.14
340.63	206.57
341.01	211.52
341.39	209.63
341.78	211.05
342.16	212.46
342.54	212.64
342.93	201.76
343.31	211.97
343.69	212.50
344.07	212.96
344.46	213.41
344.84	213.83
345.22	213.98
345.60	214.24
345.99	214.45
346.37	214.60
346.75	214.69
347.13	214.79
347.52	214.87
347.90	215.00
348.28	215.07
348.66	215.13
349.05	215.09
349.43	215.17
349.81	215.24
350.19	215.30
350.57	215.36
350.96	215.46
351.34	215.57
351.72	215.66
352.10	215.81
352.48	215.88
352.87	215.91
353.25	216.01
353.63	216.07
354.01	216.12
354.39	216.19
354.77	216.26
355.15	216.39
355.54	216.43
355.92	216.40
356.30	216.48
356.68	216.68
357.06	216.78
357.44	216.78
357.82	216.83
358.20	216.93
358.58	216.97
358.97	217.00
359.35	217.09
359.73	217.18
360.11	217.20
360.49	217.24
360.87	217.29
361.25	217.34
361.63	217.44
362.01	217.54
362.39	217.55
362.77	217.60
363.15	217.63
363.53	217.64
363.91	217.69
364.29	217.68
364.67	217.48
365.05	217.49
365.43	217.53
365.81	217.59
366.19	217.66
366.57	217.75
366.95	217.74
367.33	217.67
367.71	217.64
368.09	217.68
368.47	217.70
368.85	217.68
369.23	217.68
369.61	217.62
369.99	217.62
370.37	217.64
370.75	217.75
371.13	217.64
371.51	217.61
371.89	217.59
372.27	217.60
372.65	217.61
373.03	217.58
373.41	217.53
373.78	217.44
374.16	217.30
374.54	217.19
374.92	217.16
375.30	217.09
375.68	217.04
376.06	217.03
376.44	216.95
376.82	216.92
377.19	216.91
377.57	216.87
377.95	216.75
378.33	216.67
378.71	216.48
379.09	216.50
379.47	216.48
379.84	216.41
380.22	216.36
380.60	216.26
380.98	216.22
381.36	216.18
381.73	216.11
382.11	216.13
382.49	216.10
382.87	216.02
383.25	216.02
383.62	216.22
384.00	216.12
384.38	216.09
384.76	216.12
385.13	216.14
385.51	216.11
385.89	216.06
386.27	216.05
386.64	216.06
387.02	216.04
387.40	215.99
387.78	216.00
388.15	215.99
388.53	215.97
388.91	215.96
389.29	215.93
389.66	215.96
390.04	215.91
390.42	215.95
390.79	215.98
391.17	215.95
391.55	215.72
391.92	215.73
392.30	215.75
392.68	215.68
393.05	215.62
393.43	215.63
393.81	215.66
394.18	215.62
394.56	215.62
394.94	215.64
395.31	215.64
395.69	215.69
396.06	215.71
396.44	215.76
396.82	215.74
397.19	215.91
397.57	215.90
397.95	215.97
398.32	215.94
398.70	215.99
399.07	216.08
399.45	216.10
399.82	216.13
400.20	216.17
400.58	216.26
400.95	216.27
401.33	216.35
401.70	216.55
402.08	216.63
402.45	216.72
402.83	216.86
403.20	216.98
403.58	217.06
403.95	217.20
404.33	217.37
404.71	217.53
405.08	217.74
405.46	217.92
405.83	218.10
406.21	218.27
406.58	218.48
406.96	218.69
407.33	218.94
407.70	219.26
408.08	219.69
408.45	220.02
408.83	220.43
409.20	220.77
409.58	221.08
409.95	221.54
410.33	222.01
410.70	222.41
411.08	222.93
411.45	223.51
411.82	224.07
412.20	224.73
412.57	225.53
412.95	226.05
413.32	226.84
413.69	227.62
414.07	228.52
414.44	229.46
414.82	230.43
415.19	231.62
415.56	232.75
415.94	233.91
416.31	235.28
416.68	236.62
417.06	238.16
417.43	239.63
417.81	241.32
418.18	243.04
418.55	244.90
418.93	246.91
419.30	248.91
419.67	251.06
420.04	253.28
420.42	255.57
420.79	258.35
421.16	261.03
421.54	263.84
421.91	266.67
422.28	269.70
422.66	272.92
423.03	276.05
423.40	279.29
423.77	282.72
424.15	286.27
424.52	289.95
424.89	294.01
425.26	297.95
425.64	301.72
426.01	305.85
426.38	310.15
426.75	314.50
427.13	319.09
427.50	323.90
427.87	328.92
428.24	333.95
428.61	338.73
428.99	344.06
429.36	349.90
429.73	355.61
430.10	361.26
430.47	367.08
430.85	373.20
431.22	379.72
431.59	386.60
431.96	393.16
432.33	400.36
432.70	407.37
433.08	415.61
433.45	423.35
433.82	431.19
434.19	439.73
434.56	448.22
434.93	456.28
435.30	464.29
435.68	473.08
436.05	481.75
436.42	490.31
436.79	498.20
437.16	506.67
437.53	515.67
437.90	524.47
438.27	533.10
438.64	541.94
439.01	550.10
439.38	557.38
439.75	564.52
440.13	572.73
440.50	580.33
440.87	586.48
441.24	592.89
441.61	599.86
441.98	605.07
442.35	611.06
442.72	617.18
443.09	623.03
443.46	626.61
443.83	629.04
444.20	631.21
444.57	634.20
444.94	635.50
445.31	636.82
445.68	638.21
446.05	638.81
446.42	638.06
446.79	637.18
447.16	636.20
447.53	635.39
447.90	632.17
448.27	629.02
448.64	624.59
449.01	621.42
449.37	615.79
449.74	610.38
450.11	603.71
450.48	596.53
450.85	589.23
451.22	583.02
451.59	577.14
451.96	571.49
452.33	563.92
452.70	557.08
453.07	548.92
453.43	540.60
453.80	532.63
454.17	524.93
454.54	517.55
454.91	509.65
455.28	501.96
455.65	494.81
456.02	487.64
456.38	481.59
456.75	473.97
457.12	467.63
457.49	461.40
457.86	455.54
458.23	450.38
458.59	444.77
458.96	438.96
459.33	433.81
459.70	428.60
460.07	424.54
460.43	419.90
460.80	415.52
461.17	411.67
461.54	407.62
461.91	403.77
462.27	399.88
462.64	396.58
463.01	392.94
463.38	389.36
463.74	385.71
464.11	382.49
464.48	379.77
464.85	376.79
465.21	374.37
465.58	371.78
465.95	368.71
466.32	366.18
466.68	363.67
467.05	361.20
467.42	358.74
467.78	356.16
468.15	353.71
468.52	351.84
468.88	349.43
469.25	347.31
469.62	345.62
469.98	343.77
470.35	342.06
470.72	340.44
471.08	338.74
471.45	337.36
471.82	335.95
472.18	334.36
472.55	333.20
472.92	331.87
473.28	330.69
473.65	329.62
474.02	328.55
474.38	327.76
474.75	327.03
475.11	326.33
475.48	325.82
475.85	325.34
476.21	324.89
476.58	324.61
476.94	324.41
477.31	324.07
477.67	323.83
478.04	323.69
478.41	323.72
478.77	323.92
479.14	323.88
479.50	324.04
479.87	324.31
480.23	324.66
480.60	324.96
480.96	325.32
481.33	325.97
481.69	326.61
482.06	327.13
482.42	327.66
482.79	328.25
483.15	329.04
483.52	330.01
483.88	330.94
484.25	331.84
484.61	332.90
484.98	333.97
485.34	335.29
485.71	336.65
486.07	338.06
486.44	339.37
486.80	341.01
487.17	342.64
487.53	344.55
487.90	346.41
488.26	348.43
488.62	350.54
488.99	352.52
489.35	354.62
489.72	356.98
490.08	359.45
490.44	361.99
490.81	364.64
491.17	367.35
491.54	370.33
491.90	373.39
492.26	376.58
492.63	380.02
492.99	383.47
493.36	387.10
493.72	391.01
494.08	395.05
494.45	399.17
494.81	403.54
495.17	407.94
495.54	412.66
495.90	417.44
496.26	422.33
496.63	427.53
496.99	432.90
497.35	438.44
497.72	444.24
498.08	450.22
498.44	456.32
498.80	462.75
499.17	469.18
499.53	475.86
499.89	482.76
500.26	489.66
500.62	496.74
500.98	504.11
501.34	511.48
501.71	519.17
502.07	527.00
502.43	534.91
502.79	543.02
503.16	551.31
503.52	559.87
503.88	568.53
504.24	577.42
504.60	586.39
504.97	595.62
505.33	604.86
505.69	614.63
506.05	624.44
506.41	634.25
506.78	644.25
507.14	654.43
507.50	664.83
507.86	675.52
508.22	686.21
508.59	696.82
508.95	707.80
509.31	718.95
509.67	730.29
510.03	741.68
510.39	753.35
510.75	765.19
511.12	777.00
511.48	789.08
511.84	801.25
512.20	813.56
512.56	826.04
512.92	838.67
513.28	851.15
513.64	863.73
514.00	876.35
514.37	889.14
514.73	902.03
515.09	914.76
515.45	927.44
515.81	940.31
516.17	953.50
516.53	966.58
516.89	979.58
517.25	992.59
517.61	1005.97
517.97	1019.19
518.33	1032.05
518.69	1045.40
519.05	1058.92
519.41	1072.35
519.77	1085.99
520.13	1099.17
520.49	1112.16
520.85	1125.36
521.21	1138.55
521.57	1152.01
521.93	1164.95
522.29	1178.57
522.65	1192.03
523.01	1205.40
523.37	1218.41
523.73	1231.49
524.09	1244.33
524.45	1257.41
524.81	1270.62
525.17	1283.63
525.53	1296.42
525.89	1309.50
526.25	1322.38
526.61	1334.88
526.97	1347.61
527.33	1360.28
527.68	1373.37
528.04	1386.58
528.40	1399.37
528.76	1412.44
529.12	1425.06
529.48	1438.02
529.84	1449.99
530.20	1462.41
530.56	1474.71
530.91	1487.67
531.27	1500.25
531.63	1512.83
531.99	1525.33
532.35	1537.36
532.71	1549.42
533.07	1561.94
533.42	1573.77
533.78	1585.43
534.14	1597.23
534.50	1608.20
534.86	1619.36
535.21	1629.95
535.57	1641.11
535.93	1652.15
536.29	1662.91
536.65	1674.11
537.00	1684.65
537.36	1695.65
537.72	1706.30
538.08	1717.35
538.44	1727.97
538.79	1738.70
539.15	1749.19
539.51	1759.61
539.87	1770.52
540.22	1781.03
540.58	1791.74
540.94	1802.45
541.29	1812.52
541.65	1821.96
542.01	1832.27
542.37	1842.11
542.72	1852.01
543.08	1861.54
543.44	1871.69
543.79	1880.73
544.15	1889.76
544.51	1899.59
544.87	1909.12
545.22	1918.15
545.58	1926.85
545.94	1935.35
546.29	1943.63
546.65	1951.82
547.01	1959.78
547.36	1967.26
547.72	1974.80
548.07	1982.21
548.43	1989.59
548.79	1997.28
549.14	2005.26
549.50	2013.34
549.86	2021.03
550.21	2028.05
550.57	2035.37
550.92	2041.83
551.28	2049.11
551.64	2056.17
551.99	2063.47
552.35	2070.46
552.70	2076.99
553.06	2083.37
553.41	2089.52
553.77	2095.80
554.13	2102.00
554.48	2108.88
554.84	2115.76
555.19	2122.17
555.55	2128.41
555.90	2134.56
556.26	2141.17
556.61	2146.89
556.97	2151.81
557.32	2157.56
557.68	2163.96
558.03	2169.74
558.39	2175.02
558.74	2180.74
559.10	2186.23
559.45	2191.71
559.81	2197.20
560.16	2202.79
560.52	2208.76
560.87	2215.17
561.23	2221.17
561.58	2227.83
561.94	2232.97
562.29	2237.68
562.64	2243.85
563.00	2249.43
563.35	2255.08
563.71	2260.83
564.06	2266.52
564.42	2272.30
564.77	2277.36
565.12	2282.56
565.48	2287.72
565.83	2293.22
566.19	2298.78
566.54	2304.19
566.89	2308.86
567.25	2313.43
567.60	2319.26
567.96	2324.44
568.31	2329.00
568.66	2333.26
569.02	2337.06
569.37	2340.86
569.72	2345.34
570.08	2348.78
570.43	2352.01
570.78	2355.20
571.14	2357.80
571.49	2360.99
571.84	2364.66
572.20	2367.58
572.55	2370.70
572.90	2372.92
573.26	2376.00
573.61	2378.59
573.96	2380.94
574.31	2383.07
574.67	2385.16
575.02	2386.08
575.37	2387.37
575.72	2388.20
576.08	2389.80
576.43	2390.14
576.78	2390.84
577.13	2392.74
577.49	2393.86
577.84	2395.19
578.19	2396.75
578.54	2397.54
578.90	2398.71
579.25	2398.79
579.60	2398.98
579.95	2398.49
580.30	2399.00
580.66	2398.45
581.01	2397.00
581.36	2394.86
581.71	2393.60
582.06	2392.81
582.42	2392.01
582.77	2390.30
583.12	2388.92
583.47	2387.77
583.82	2387.50
584.17	2386.47
584.53	2384.38
584.88	2382.69
585.23	2380.77
585.58	2378.62
585.93	2376.73
586.28	2374.59
586.63	2372.43
586.98	2370.39
587.34	2368.49
587.69	2366.23
588.04	2364.46
588.39	2363.16
588.74	2360.86
589.09	2358.40
589.44	2355.26
589.79	2353.12
590.14	2351.34
590.49	2348.67
590.84	2345.03
591.19	2342.04
591.54	2338.86
591.89	2335.01
592.25	2331.85
592.60	2327.87
592.95	2323.93
593.30	2319.94
593.65	2315.69
594.00	2311.27
594.35	2308.39
594.70	2303.90
595.05	2299.45
595.40	2293.98
595.75	2288.45
596.10	2284.77
596.45	2279.91
596.80	2275.57
597.15	2270.27
597.50	2264.49
597.85	2259.68
598.19	2254.56
598.54	2248.85
598.89	2243.87
599.24	2239.31
599.59	2233.31
599.94	2227.88
600.29	2222.03
600.64	2216.27
600.99	2209.60
601.34	2204.33
601.69	2197.34
602.04	2191.10
602.39	2184.72
602.74	2178.72
603.08	2173.24
603.43	2166.92
603.78	2160.24
604.13	2153.17
604.48	2146.12
604.83	2140.00
605.18	2133.78
605.53	2126.87
605.87	2120.00
606.22	2113.26
606.57	2105.56
606.92	2097.77
607.27	2090.77
607.62	2084.27
607.96	2077.24
608.31	2070.84
608.66	2063.19
609.01	2055.79
609.36	2048.75
609.70	2040.89
610.05	2033.29
610.40	2025.12
610.75	2016.88
611.10	2009.28
611.44	2000.62
611.79	1991.99
612.14	1982.00
612.49	1971.52
612.83	1962.40
613.18	1953.37
613.53	1943.95
613.88	1934.45
614.22	1925.78
614.57	1915.90
614.92	1905.33
615.27	1895.24
615.61	1885.39
615.96	1875.80
616.31	1866.20
616.65	1856.95
617.00	1847.32
617.35	1837.64
617.70	1827.85
618.04	1817.95
618.39	1807.82
618.74	1798.06
619.08	1788.47
619.43	1779.85
619.78	1771.69
620.12	1762.96
620.47	1753.18
620.82	1743.06
621.16	1733.24
621.51	1723.51
621.85	1713.72
622.20	1703.30
622.55	1692.77
622.89	1682.88
623.24	1673.22
623.59	1663.45
623.93	1653.32
624.28	1643.73
624.62	1633.55
624.97	1623.33
625.32	1613.53
625.66	1604.79
626.01	1596.04
626.35	1586.60
626.70	1576.53
627.04	1566.33
627.39	1556.39
627.73	1547.11
628.08	1538.03
628.43	1528.56
628.77	1519.35
629.12	1510.55
629.46	1502.80
629.81	1494.47
630.15	1484.85
630.50	1474.93
630.84	1464.62
631.19	1454.66
631.53	1445.16
631.88	1435.04
632.22	1425.13
632.57	1415.76
632.91	1405.54
633.26	1395.77
633.60	1386.28
633.95	1376.94
634.29	1367.63
634.64	1358.24
634.98	1348.32
635.32	1339.11
635.67	1330.53
636.01	1321.17
636.36	1311.31
636.70	1301.73
637.05	1292.32
637.39	1283.46
637.73	1274.81
638.08	1267.25
638.42	1259.04
638.77	1250.27
639.11	1242.14
639.45	1234.30
639.80	1225.76
640.14	1216.99
640.49	1208.14
640.83	1199.30
641.17	1191.36
641.52	1183.07
641.86	1174.47
642.20	1166.66
642.55	1158.11
642.89	1149.30
643.23	1140.58
643.58	1132.52
643.92	1123.52
644.26	1114.93
644.61	1106.48
644.95	1097.74
645.29	1088.41
645.64	1079.27
645.98	1070.96
646.32	1063.01
646.66	1054.51
647.01	1046.20
647.35	1038.19
647.69	1029.83
648.04	1021.63
648.38	1012.63
648.72	1003.88
649.06	995.48
649.41	987.29
649.75	979.29
650.09	971.48
650.43	963.53
650.78	955.31
651.12	947.70
651.46	940.33
651.80	933.06
652.14	925.80
652.49	918.37
652.83	911.10
653.17	903.34
653.51	895.77
653.85	888.52
654.20	881.35
654.54	873.87
654.88	866.79
655.22	859.60
655.56	852.70
655.90	846.07
656.25	839.53
656.59	832.61
656.93	825.64
657.27	818.51
657.61	811.72
657.95	805.76
658.29	799.85
658.64	793.71
658.98	787.31
659.32	780.81
659.66	774.60
660.00	768.35
660.34	762.41
660.68	756.33
661.02	750.11
661.36	744.22
661.70	738.52
662.05	732.90
662.39	727.45
662.73	722.22
663.07	716.86
663.41	711.35
663.75	705.77
664.09	700.28
664.43	695.04
664.77	689.72
665.11	683.89
665.45	678.12
665.79	672.44
666.13	666.88
666.47	661.49
666.81	656.13
667.15	650.76
667.49	645.66
667.83	640.53
668.17	635.37
668.51	630.33
668.85	625.46
669.19	620.59
669.53	615.62
669.87	610.56
670.21	605.86
670.55	601.12
670.89	596.75
671.23	592.52
671.57	588.22
671.91	584.00
672.25	579.94
672.58	575.81
672.92	571.81
673.26	567.93
673.60	564.17
673.94	560.49
674.28	557.00
674.62	553.22
674.96	549.54
675.30	546.11
675.64	542.52
675.97	538.98
676.31	535.43
676.65	531.92
676.99	528.49
677.33	524.72
677.67	521.08
678.01	517.28
678.34	513.61
678.68	510.11
679.02	506.53
679.36	502.85
679.70	499.27
680.04	495.73
680.37	492.34
680.71	489.04
681.05	485.87
681.39	482.62
681.73	479.58
682.06	476.59
682.40	473.54
682.74	470.35
683.08	467.20
683.42	464.09
683.75	461.18
684.09	458.25
684.43	455.53
684.77	452.68
685.10	449.90
685.44	447.08
685.78	444.21
686.12	441.49
686.45	438.87
686.79	436.30
687.13	433.82
687.46	431.25
687.80	428.59
688.14	425.79
688.48	423.27
688.81	420.61
689.15	418.07
689.49	415.48
689.82	413.04
690.16	410.50
690.50	408.07
690.83	405.57
691.17	403.10
691.51	400.65
691.84	398.44
692.18	396.27
692.52	394.09
692.85	391.98
693.19	389.94
693.52	387.77
693.86	385.57
694.20	383.46
694.53	381.42
694.87	379.24
695.21	377.13
695.54	374.97
695.88	372.88
696.21	370.78
696.55	368.71
696.88	366.67
697.22	364.79
697.56	362.96
697.89	361.17
698.23	359.42
698.56	357.71
698.90	356.00
699.23	354.15
699.57	352.33
699.90	350.49
700.24	348.70
700.58	347.01
700.91	345.38
701.25	343.89
701.58	342.26
701.92	340.77
702.25	339.27
702.59	337.72
702.92	336.20
703.26	334.68
703.59	333.27
703.93	332.06
704.26	330.62
704.60	329.14
704.93	327.67
705.26	326.21
705.60	324.79
705.93	323.29
706.27	322.01
706.60	320.77
706.94	319.57
707.27	318.21
707.61	316.91
707.94	315.62
708.27	314.08
708.61	312.69
708.94	311.35
709.28	310.07
709.61	308.88
709.94	307.73
710.28	306.55
710.61	305.37
710.95	303.94
711.28	302.87
711.61	301.74
711.95	300.61
712.28	299.44
712.61	298.25
712.95	297.27
713.28	296.25
713.61	295.12
713.95	294.04
714.28	293.03
714.61	292.02
714.95	291.00
715.28	290.03
715.61	289.02
715.95	288.11
716.28	287.18
716.61	286.24
716.95	285.26
717.28	284.36
717.61	283.43
717.94	282.62
718.28	281.66
718.61	280.79
718.94	279.93
719.27	279.09
719.61	278.31
719.94	277.42
720.27	276.49
720.60	275.66
720.94	274.87
721.27	274.18
721.60	273.52
721.93	272.86
722.27	272.26
722.60	271.64
722.93	270.92
723.26	270.29
723.59	269.64
723.93	269.06
724.26	268.38
724.59	267.77
724.92	267.21
725.25	266.67
725.59	266.11
725.92	265.64
726.25	265.11
726.58	264.53
726.91	263.99
727.24	263.44
727.57	262.93
727.91	262.36
728.24	261.80
728.57	261.21
728.90	260.63
729.23	260.02
729.56	259.59
729.89	259.08
730.22	258.54
730.55	257.95
730.89	257.41
731.22	256.91
731.55	256.37
731.88	255.85
732.21	255.31
732.54	254.76
732.87	254.25
733.20	253.78
733.53	253.33
733.86	252.87
734.19	252.43
734.52	252.02
734.85	251.75
735.18	251.28
735.51	250.93
735.84	250.51
736.17	250.14
736.50	249.61
736.83	249.44
737.16	249.05
737.49	248.68
737.82	248.28
738.15	247.92
738.48	247.64
738.81	247.24
739.14	246.85
739.47	246.48
739.80	246.10
740.13	245.74
740.46	245.37
740.79	244.98
741.12	244.65
741.45	244.25
741.78	243.82
742.11	243.55
742.44	243.18
742.77	242.90
743.10	242.57
743.43	242.27
743.75	241.76
744.08	241.68
744.41	241.34
744.74	241.04
745.07	240.73
745.40	240.37
745.73	240.13
746.06	239.85
746.39	239.63
746.71	239.30
747.04	238.99
747.37	238.69
747.70	238.46
748.03	238.14
748.36	237.89
748.68	237.59
749.01	237.23
749.34	236.97
749.67	236.68
750.00	236.42
750.33	236.32
750.65	236.08
750.98	235.61
751.31	235.39
751.64	235.15
751.97	235.01
752.29	234.79
752.62	234.47
752.95	234.19
753.28	233.89
753.60	233.65
753.93	233.47
754.26	233.23
754.59	232.94
754.91	232.72
755.24	232.51
755.57	232.25
755.90	232.02
756.22	231.75
756.55	231.52
756.88	231.26
757.20	230.92
757.53	230.62
757.86	230.39
758.19	230.20
758.51	230.02
758.84	229.73
759.17	229.52
759.49	229.34
759.82	229.31
760.15	229.22
760.47	229.03
760.80	228.82
761.13	228.69
761.45	228.51
761.78	228.33
762.11	228.14
762.43	227.97
762.76	227.82
763.08	227.71
763.41	227.58
763.74	227.45
764.06	227.29
764.39	227.18
764.71	227.01
765.04	226.83
765.37	226.64
765.69	226.50
766.02	226.37
766.34	226.25
766.67	226.01
767.00	225.84
767.32	225.83
767.65	225.82
767.97	225.67
768.30	225.55
768.62	225.44
768.95	225.32
769.27	225.22
769.60	225.15
769.92	225.00
770.25	224.85
770.57	224.68
770.90	224.56
771.22	224.41
771.55	224.29
771.87	224.21
772.20	224.10
772.52	224.15
772.85	224.28
773.17	224.19
773.50	224.04
773.82	223.94
774.15	223.75
774.47	223.49
774.80	223.36
775.12	223.28
775.45	223.19
775.77	223.12
776.09	223.04
776.42	222.92
776.74	222.91
777.07	222.84
777.39	222.78
777.72	222.69
778.04	222.61
778.36	222.52
778.69	222.46
779.01	222.37
779.33	222.10
779.66	221.79
779.98	221.67
780.31	221.63
780.63	221.64
780.95	221.59
781.28	221.53
781.60	221.47
781.92	221.39
782.25	221.34
782.57	221.26
782.89	221.19
783.22	221.11
783.54	220.98
783.86	220.92
784.19	220.87
784.51	220.86
784.83	220.81
785.16	220.78
785.48	220.71
785.80	220.68
786.12	220.68
786.45	220.63
786.77	220.60
787.09	220.52
787.42	220.35
787.74	220.29
788.06	220.24
788.38	220.17
788.71	220.11
789.03	220.03
789.35	220.02
789.67	219.95
789.99	219.94
790.32	219.87
790.64	219.83
790.96	219.94
791.28	219.82
791.61	219.76
791.93	219.71
792.25	219.62
792.57	219.74
792.89	219.63
793.21	219.59
793.54	219.56
793.86	219.52
794.18	219.47
794.50	219.40
794.82	219.39
795.14	219.36
795.47	219.36
795.79	219.36
796.11	219.25
796.43	219.18
796.75	219.14
797.07	219.12
797.39	219.07
797.71	218.89
798.04	218.86
798.36	218.86
798.68	218.82
799.00	218.80
799.32	218.65
799.64	218.64
799.96	218.62
800.28	218.55
800.60	218.50
800.92	218.52
801.24	218.47
801.56	218.41
801.89	218.36
802.21	218.37
802.53	218.27
802.85	218.29
803.17	218.34
803.49	218.24
803.81	218.20
804.13	218.14
804.45	218.06
804.77	218.04
805.09	217.99
805.41	217.96
805.73	217.91
806.05	217.81
806.37	217.78
806.69	217.68
807.01	217.69
807.33	217.69
807.65	217.62
807.97	217.73
808.28	217.68
808.60	217.68
808.92	217.61
809.24	217.73
809.56	217.67
809.88	217.60
810.20	217.60
810.52	217.60
810.84	217.56
811.16	217.55
811.48	217.54
811.80	217.58
812.12	217.56
812.43	217.57
812.75	217.56
813.07	217.50
813.39	217.51
813.71	217.43
814.03	217.37
814.35	217.34
814.67	217.23
814.98	217.22
815.30	217.17
815.62	217.09
815.94	216.93
816.26	216.90
816.58	216.87
816.89	216.86
817.21	216.78
817.53	216.78
817.85	216.77
818.17	216.70
818.48	216.61
818.80	216.62
819.12	216.60
819.44	216.57
819.76	216.56
820.07	216.57
820.39	216.58
820.71	216.59
821.03	216.54
821.34	216.48
821.66	216.45
821.98	216.44
822.30	216.43
822.61	216.55
822.93	216.53
823.25	216.48
823.57	216.47
823.88	216.48
824.20	216.47
824.52	216.50
824.83	216.52
825.15	216.47
825.47	216.44
825.79	216.44
826.10	216.39
826.42	216.36
826.74	216.38
827.05	216.32
827.37	216.31
827.69	216.33
828.00	216.32
828.32	216.34
828.64	216.32
828.95	216.43
829.27	216.35
829.58	216.35
829.90	216.38
830.22	216.40
830.53	216.37
830.85	216.35
831.17	216.31
831.48	216.28
831.80	216.26
832.11	216.25
832.43	216.21
832.75	216.22
833.06	216.36
833.38	216.24
833.69	216.24
834.01	216.27
834.32	216.25
834.64	216.24
834.96	216.25
835.27	216.24
835.59	216.18
835.90	216.10
836.22	216.08
836.53	216.07
836.85	216.01
837.16	216.19
837.48	216.15
837.79	216.17
838.11	216.16
838.42	216.17
838.74	216.19
839.05	216.20
839.37	216.16
839.68	216.05
840.00	216.07
840.31	216.10
840.63	216.05
840.94	216.03
841.26	215.99
841.57	215.97
841.88	215.97
842.20	215.92
842.51	215.91
842.83	215.90
843.14	216.04
843.46	216.05
843.77	215.94
844.08	215.94
844.40	215.87
844.71	215.87
845.03	215.84
845.34	215.77
845.65	215.75
845.97	215.79
846.28	215.78
846.60	215.77
846.91	215.75
847.22	215.73
847.54	215.75
847.85	215.77
848.16	215.75
848.48	215.69
848.79	215.79
849.10	215.81
849.42	215.82
849.73	215.63
850.04	215.62
850.36	215.55
850.67	215.56
850.98	215.57
851.30	215.57
851.61	215.57
851.92	215.60
852.23	215.62
852.55	215.62
852.86	215.62
853.17	215.61
853.49	215.63
853.80	215.68
854.11	215.65
854.42	215.67
854.74	215.65
855.05	215.70
855.36	215.58
855.67	215.57
855.99	215.56
856.30	215.84
856.61	215.83
856.92	215.84
857.23	215.84
857.55	215.81
857.86	215.80
858.17	215.84
858.48	215.78
858.79	215.76
859.11	215.77
859.42	215.75
859.73	215.74
860.04	215.69
860.35	215.62
860.66	215.58
860.98	215.58
861.29	215.60
861.60	215.57
861.91	215.63
862.22	215.59
862.53	215.57
862.84	215.28
863.16	215.34
863.47	215.30
863.78	215.31
864.09	215.30
864.40	215.31
864.71	215.31
865.02	215.33
865.33	215.31
865.64	215.23
865.95	215.24
866.27	215.36
866.58	215.36
866.89	215.39
867.20	215.42
867.51	215.37
867.82	215.34
868.13	215.40
868.44	215.36
868.75	215.41
869.06	215.39
869.37	215.42
869.68	215.35
869.99	215.40
870.30	215.37
870.61	215.42
870.92	215.41
871.23	215.41
871.54	215.45
871.85	215.48
872.16	215.51
872.47	215.48
872.78	215.37
873.09	215.39
873.40	215.36
873.71	215.37
874.02	215.39
874.33	215.41
874.64	215.35
874.95	215.34
875.26	215.30
875.56	215.30
875.87	215.27
876.18	215.27
876.49	215.44
876.80	215.44
877.11	215.40
877.42	215.39
877.73	215.37
878.04	215.35
878.35	215.35
878.66	215.35
878.96	215.36
879.27	215.36
879.58	215.35
879.89	215.33
880.20	215.36
880.51	215.39
880.82	215.36
881.12	215.38
881.43	215.34
881.74	215.29
882.05	215.28
882.36	215.31
882.67	215.31
882.97	215.05
883.28	215.02
883.59	215.01
883.90	215.03
884.21	215.06
884.51	215.01
884.82	214.96
885.13	214.98
885.44	214.97
885.74	214.94
886.05	214.94
886.36	214.96
886.67	214.89
886.98	214.96
887.28	215.01
887.59	215.01
887.90	215.01
888.20	215.00
888.51	215.07
888.82	214.99
889.13	215.01
889.43	215.20
889.74	215.22
890.05	215.21
890.35	215.18
890.66	215.15
890.97	215.16
891.28	215.16
891.58	215.16
891.89	215.16
892.20	215.15
892.50	215.10
892.81	215.09
893.12	215.12
893.42	215.00
893.73	215.01
894.04	215.02
894.34	215.07
894.65	215.09
894.95	215.07
895.26	215.09
895.57	215.15
895.87	214.98
896.18	215.02
896.48	215.04
896.79	215.06
897.10	215.09
897.40	215.14
897.71	215.17
898.01	215.16
898.32	215.19
898.63	215.19
898.93	215.24
899.24	215.24
899.54	215.21
899.85	215.21
900.15	215.16
900.46	215.12
900.76	215.09
901.07	215.09
901.38	215.06
901.68	215.11
901.99	215.06
902.29	215.10
902.60	215.06
902.90	215.06
903.21	215.04
903.51	215.01
903.82	215.01
904.12	215.01
904.43	215.01
904.73	215.00
905.03	215.01
905.34	215.23
905.64	215.19
905.95	215.20
906.25	215.20
906.56	215.20
906.86	215.21
907.17	215.22
907.47	215.27
907.77	215.24
908.08	215.19
908.38	215.17
908.69	215.17
908.99	215.22
909.30	215.19
909.60	215.21
909.90	215.24
910.21	215.18
910.51	215.09
910.81	215.09
911.12	215.13
911.42	215.13
911.73	214.89
912.03	214.92
912.33	214.96
912.64	214.97
912.94	214.96
913.24	214.91
913.55	214.91
913.85	214.85
914.15	214.89
914.46	214.91
914.76	214.86
915.06	214.83
915.37	214.78
915.67	214.76
915.97	214.74
916.27	214.67
916.58	214.69
916.88	214.72
917.18	214.71
917.49	214.79
917.79	214.78
918.09	214.82
918.39	214.86
918.70	214.83
919.00	214.82
919.30	214.93
919.60	214.94
919.91	214.91
920.21	214.94
920.51	214.92
920.81	214.90
921.12	214.97
921.42	214.96
921.72	214.99
922.02	215.04
922.32	215.08
922.63	215.09
922.93	215.16
923.23	215.17
923.53	215.13
923.83	215.01
924.13	215.03
924.44	215.01
924.74	215.05
925.04	215.08
925.34	215.08
925.64	214.96
925.94	214.96
926.24	215.08
926.55	215.06
926.85	215.10
927.15	215.11
927.45	215.08
927.75	215.11
928.05	215.07
928.35	215.06
928.65	215.06
928.95	215.07
929.26	215.02
929.56	215.07
929.86	215.09
930.16	215.10
930.46	215.05
930.76	215.07
931.06	214.98
931.36	214.92
931.66	214.97
931.96	215.01
932.26	215.01
932.56	214.89
932.86	214.91
933.16	214.88
933.46	214.87
933.76	214.86
934.06	214.92
934.36	215.00
934.66	214.99
934.96	214.98
935.26	215.02
935.56	215.01
935.86	214.96
936.16	214.94
936.46	214.90
936.76	214.91
937.06	214.91
937.36	214.92
937.66	214.92
937.96	214.88
938.26	214.84
938.56	214.84
938.86	214.90
939.16	214.92
939.46	214.95
939.76	214.94
940.06	214.95
940.35	214.89
940.65	214.80
940.95	214.81
941.25	214.74
941.55	214.72
941.85	214.75
942.15	214.77
942.45	214.82
942.75	214.82
943.04	214.86
943.34	214.89
943.64	214.87
943.94	214.85
944.24	214.87
944.54	214.87
944.84	214.86
945.13	214.81
945.43	214.79
945.73	214.77
946.03	214.77
946.33	214.72
946.62	214.66
946.92	214.68
947.22	214.67
947.52	214.69
947.82	214.70
948.11	214.65
948.41	214.62
948.71	214.56
949.01	214.59
949.31	214.53
949.60	214.51
949.90	214.54
950.20	214.52
950.50	214.51
950.79	214.52
951.09	214.58
951.39	214.57
951.69	214.57
951.98	214.62
952.28	214.62
952.58	214.63
952.87	214.66
953.17	214.66
953.47	214.63
953.76	214.59
954.06	214.56
954.36	214.56
954.66	214.56
954.95	214.64
955.25	214.63
955.55	214.67
955.84	214.62
956.14	214.65
956.44	214.71
956.73	214.66
957.03	214.66
957.32	214.63
957.62	214.62
957.92	214.64
958.21	214.59
958.51	214.84
958.81	214.88
959.10	214.87
959.40	214.88
959.69	214.93
959.99	215.01
960.29	215.01
960.58	214.99
960.88	215.07
961.17	215.02
961.47	215.05
961.76	215.00
962.06	215.03
962.36	214.97
962.65	214.96
962.95	214.98
963.24	214.97
963.54	215.01
963.83	215.02
964.13	215.01
964.42	214.97
964.72	214.79
965.01	214.79
965.31	214.81
965.60	214.78
965.90	214.91
966.19	214.85
966.49	214.88
966.78	214.89
967.08	214.85
967.37	214.87
967.67	214.82
967.96	214.88
968.26	214.89
968.55	214.96
968.85	214.94
969.14	214.96
969.43	214.96
969.73	214.91
970.02	214.89
970.32	214.89
970.61	214.90
970.91	214.85
971.20	214.82
971.49	214.80
971.79	214.83
972.08	214.68
972.38	214.70
972.67	214.68
972.96	214.73
973.26	214.69
973.55	214.76
973.85	214.77
974.14	214.75
974.43	214.74
974.73	214.68
975.02	214.67
975.31	214.68
975.61	214.64
975.90	214.63
976.19	214.62
976.49	214.66
976.78	214.68
977.07	214.65
977.37	214.67
977.66	214.69
977.95	214.66
978.24	214.66
978.54	214.69
978.83	214.65
979.12	214.59
979.42	214.60
979.71	214.54
980.00	214.53
980.29	214.56
980.59	214.50
980.88	214.53
981.17	214.55
981.46	214.54
981.76	214.56
982.05	214.63
982.34	214.67
982.63	214.62
982.93	214.64
983.22	214.67
983.51	214.68
983.80	214.71
984.09	214.74
984.39	214.74
984.68	214.72
984.97	214.76
985.26	214.75
985.55	214.78
985.85	214.73
986.14	214.74
986.43	214.73
986.72	214.76
987.01	214.73
987.30	214.71
987.59	214.70
987.89	214.71
988.18	214.62
988.47	214.58
988.76	214.58
989.05	214.55
989.34	214.56
989.63	214.61
989.92	214.56
990.22	214.53
990.51	214.53
990.80	214.50
991.09	214.53
991.38	214.56
991.67	214.52
991.96	214.49
992.25	214.47
992.54	214.43
992.83	214.41
993.12	214.42
993.41	214.43
993.70	214.50
993.99	214.54
994.28	214.57
994.58	214.63
994.87	214.62
995.16	214.62
995.45	214.57
995.74	214.51
996.03	214.56
996.32	214.56
996.61	214.60
996.90	214.63
997.19	214.61
997.48	214.61
997.77	214.59
998.06	214.65
998.34	214.68
998.63	214.70
998.92	214.71
999.21	214.71
999.50	214.70
999.79	214.64
1000.08	214.65
1000.37	214.65
1000.66	214.62
1000.95	214.68
1001.24	214.69
1001.53	214.71
1001.82	214.68
1002.11	214.63
1002.40	214.66
1002.68	214.70
1002.97	214.82
1003.26	214.80
1003.55	214.75
1003.84	214.78
1004.13	214.86
1004.42	214.82
1004.71	214.80
1004.99	214.76
1005.28	214.82
1005.57	214.84
1005.86	214.84
1006.15	214.77
1006.44	214.73
1006.72	214.75
1007.01	214.69
1007.30	214.69
1007.59	214.69
1007.88	214.68
1008.17	214.68
1008.45	214.66
1008.74	214.58
1009.03	214.46
1009.32	214.46
1009.60	214.47
1009.89	214.46
1010.18	214.37
1010.47	214.36
1010.76	214.37
1011.04	214.39
1011.33	214.40
1011.62	214.41
1011.91	214.42
1012.19	214.46
1012.48	214.51
1012.77	214.50
1013.05	214.61
1013.34	214.61
1013.63	214.59
1013.92	214.62
1014.20	214.63
1014.49	214.60
1014.78	214.62
1015.06	214.57
1015.35	214.57
1015.64	214.60
1015.92	214.63
1016.21	214.63
1016.50	214.65
1016.78	214.68
1017.07	214.73
1017.36	214.68
1017.64	214.65
1017.93	214.68
1018.22	214.68
1018.50	214.63
1018.79	214.63
1019.08	214.52
1019.36	214.53
1019.65	214.52
1019.93	214.53
1020.22	214.59
1020.51	214.69
1020.79	214.69
1021.08	214.66
1021.36	213.86
1021.65	214.74
1021.94	214.26
1022.22	214.77
1022.51	214.23
1022.79	214.66
1023.08	215.66
1023.36	216.45
1023.65	214.63
>>>>>End Processed Spectral Data<<<<<
