SpectraSuite Data File
++++++++++++++++++++++++++++++++++++
Date: Tue Jan 29 16:20:46 EST 2013
User: group
Dark Spectrum Present: No
Reference Spectrum Present: No
Number of Sampled Component Spectra: 1
Spectrometers: USB2E7196
Integration Time (usec): 65000 (USB2E7196)
Spectra Averaged: 100 (USB2E7196)
Boxcar Smoothing: 10 (USB2E7196)
Correct for Electrical Dark: No (USB2E7196)
Strobe/Lamp Enabled: No (USB2E7196)
Correct for Detector Non-linearity: No (USB2E7196)
Correct for Stray Light: No (USB2E7196)
Number of Pixels in Processed Spectrum: 2048
>>>>>Begin Processed Spectral Data<<<<<
339.09	0.00
339.48	202.75
339.86	204.03
340.24	205.18
340.63	206.95
341.01	211.59
341.39	209.49
341.78	211.28
342.16	212.57
342.54	212.85
342.93	201.85
343.31	212.03
343.69	212.59
344.07	213.07
344.46	213.54
344.84	213.92
345.22	214.10
345.60	214.35
345.99	214.54
346.37	214.68
346.75	214.78
347.13	214.85
347.52	214.89
347.90	215.00
348.28	215.04
348.66	215.13
349.05	215.11
349.43	215.15
349.81	215.23
350.19	215.28
350.57	215.35
350.96	215.41
351.34	215.54
351.72	215.59
352.10	215.68
352.48	215.74
352.87	215.83
353.25	215.86
353.63	215.93
354.01	215.98
354.39	216.02
354.77	216.08
355.15	216.18
355.54	216.24
355.92	216.22
356.30	216.32
356.68	216.50
357.06	216.60
357.44	216.65
357.82	216.70
358.20	216.79
358.58	216.84
358.97	216.88
359.35	216.97
359.73	217.10
360.11	217.15
360.49	217.20
360.87	217.22
361.25	217.30
361.63	217.42
362.01	217.50
362.39	217.53
362.77	217.60
363.15	217.62
363.53	217.64
363.91	217.68
364.29	217.67
364.67	217.52
365.05	217.51
365.43	217.55
365.81	217.59
366.19	217.68
366.57	217.79
366.95	217.82
367.33	217.78
367.71	217.76
368.09	217.78
368.47	217.79
368.85	217.77
369.23	217.82
369.61	217.74
369.99	217.77
370.37	217.77
370.75	217.83
371.13	217.79
371.51	217.74
371.89	217.73
372.27	217.72
372.65	217.71
373.03	217.72
373.41	217.66
373.78	217.58
374.16	217.45
374.54	217.32
374.92	217.24
375.30	217.18
375.68	217.12
376.06	217.09
376.44	217.03
376.82	217.01
377.19	216.95
377.57	216.87
377.95	216.74
378.33	216.70
378.71	216.55
379.09	216.54
379.47	216.54
379.84	216.46
380.22	216.38
380.60	216.29
380.98	216.21
381.36	216.18
381.73	216.14
382.11	216.13
382.49	216.11
382.87	216.04
383.25	216.02
383.62	216.20
384.00	216.14
384.38	216.11
384.76	216.10
385.13	216.13
385.51	216.12
385.89	216.08
386.27	216.05
386.64	216.07
387.02	216.02
387.40	215.95
387.78	215.95
388.15	215.96
388.53	215.94
388.91	215.96
389.29	215.91
389.66	215.93
390.04	215.87
390.42	215.87
390.79	215.89
391.17	215.88
391.55	215.64
391.92	215.66
392.30	215.69
392.68	215.64
393.05	215.65
393.43	215.67
393.81	215.68
394.18	215.66
394.56	215.65
394.94	215.68
395.31	215.68
395.69	215.74
396.06	215.74
396.44	215.79
396.82	215.79
397.19	215.93
397.57	215.90
397.95	215.98
398.32	215.95
398.70	216.01
399.07	216.05
399.45	216.07
399.82	216.10
400.20	216.13
400.58	216.15
400.95	216.10
401.33	216.20
401.70	216.37
402.08	216.49
402.45	216.57
402.83	216.72
403.20	216.85
403.58	216.93
403.95	217.10
404.33	217.23
404.71	217.33
405.08	217.58
405.46	217.76
405.83	217.92
406.21	218.12
406.58	218.34
406.96	218.54
407.33	218.83
407.70	219.12
408.08	219.56
408.45	219.95
408.83	220.35
409.20	220.68
409.58	221.01
409.95	221.44
410.33	221.93
410.70	222.35
411.08	222.90
411.45	223.46
411.82	224.04
412.20	224.71
412.57	225.55
412.95	226.11
413.32	226.94
413.69	227.78
414.07	228.70
414.44	229.66
414.82	230.70
415.19	231.87
415.56	233.03
415.94	234.19
416.31	235.56
416.68	236.98
417.06	238.56
417.43	240.10
417.81	241.82
418.18	243.55
418.55	245.49
418.93	247.47
419.30	249.56
419.67	251.73
420.04	254.02
420.42	256.37
420.79	259.16
421.16	261.94
421.54	264.83
421.91	267.77
422.28	270.84
422.66	274.09
423.03	277.31
423.40	280.65
423.77	284.23
424.15	287.88
424.52	291.64
424.89	295.73
425.26	299.76
425.64	303.63
426.01	307.86
426.38	312.26
426.75	316.77
427.13	321.44
427.50	326.37
427.87	331.49
428.24	336.64
428.61	341.55
428.99	347.02
429.36	352.98
429.73	358.79
430.10	364.54
430.47	370.52
430.85	376.76
431.22	383.31
431.59	390.29
431.96	396.98
432.33	404.39
432.70	411.57
433.08	419.94
433.45	427.84
433.82	435.76
434.19	444.50
434.56	453.10
434.93	461.32
435.30	469.46
435.68	478.42
436.05	487.26
436.42	496.06
436.79	504.03
437.16	512.59
437.53	521.75
437.90	530.83
438.27	539.66
438.64	548.71
439.01	557.18
439.38	564.72
439.75	572.03
440.13	580.31
440.50	588.12
440.87	594.50
441.24	601.05
441.61	608.32
441.98	613.64
442.35	619.90
442.72	626.10
443.09	632.09
443.46	635.82
443.83	638.27
444.20	640.43
444.57	643.53
444.94	644.99
445.31	646.43
445.68	647.82
446.05	648.45
446.42	647.69
446.79	646.76
447.16	645.68
447.53	644.87
447.90	641.63
448.27	638.39
448.64	633.75
449.01	630.46
449.37	624.61
449.74	619.02
450.11	612.17
450.48	604.93
450.85	597.55
451.22	591.18
451.59	585.18
451.96	579.42
452.33	571.67
452.70	564.66
453.07	556.32
453.43	547.82
453.80	539.63
454.17	531.76
454.54	524.28
454.91	516.19
455.28	508.31
455.65	500.94
456.02	493.55
456.38	487.37
456.75	479.68
457.12	473.19
457.49	466.81
457.86	460.73
458.23	455.43
458.59	449.58
458.96	443.64
459.33	438.42
459.70	433.14
460.07	428.96
460.43	424.12
460.80	419.56
461.17	415.64
461.54	411.47
461.91	407.53
462.27	403.45
462.64	400.00
463.01	396.25
463.38	392.64
463.74	389.01
464.11	385.78
464.48	382.96
464.85	379.91
465.21	377.48
465.58	374.87
465.95	371.77
466.32	369.20
466.68	366.61
467.05	364.00
467.42	361.47
467.78	358.82
468.15	356.35
468.52	354.46
468.88	351.95
469.25	349.80
469.62	347.99
469.98	346.09
470.35	344.38
470.72	342.72
471.08	340.92
471.45	339.45
471.82	337.94
472.18	336.31
472.55	335.12
472.92	333.73
473.28	332.52
473.65	331.45
474.02	330.39
474.38	329.56
474.75	328.84
475.11	328.05
475.48	327.49
475.85	326.99
476.21	326.54
476.58	326.23
476.94	326.02
477.31	325.76
477.67	325.54
478.04	325.39
478.41	325.38
478.77	325.63
479.14	325.55
479.50	325.73
479.87	326.03
480.23	326.37
480.60	326.64
480.96	326.94
481.33	327.50
481.69	328.06
482.06	328.56
482.42	329.09
482.79	329.71
483.15	330.50
483.52	331.47
483.88	332.31
484.25	333.22
484.61	334.24
484.98	335.27
485.34	336.57
485.71	337.94
486.07	339.38
486.44	340.66
486.80	342.35
487.17	343.99
487.53	345.81
487.90	347.73
488.26	349.77
488.62	351.92
488.99	353.93
489.35	356.08
489.72	358.47
490.08	360.99
490.44	363.56
490.81	366.30
491.17	369.02
491.54	372.11
491.90	375.19
492.26	378.42
492.63	381.86
492.99	385.39
493.36	389.07
493.72	392.95
494.08	397.03
494.45	401.18
494.81	405.55
495.17	410.06
495.54	414.74
495.90	419.56
496.26	424.48
496.63	429.79
496.99	435.23
497.35	440.85
497.72	446.66
498.08	452.66
498.44	458.77
498.80	465.23
499.17	471.72
499.53	478.46
499.89	485.45
500.26	492.47
500.62	499.52
500.98	506.99
501.34	514.50
501.71	522.26
502.07	530.12
502.43	538.19
502.79	546.30
503.16	554.72
503.52	563.38
503.88	572.19
504.24	581.21
504.60	590.35
504.97	599.60
505.33	608.94
505.69	618.83
506.05	628.73
506.41	638.62
506.78	648.69
507.14	658.95
507.50	669.47
507.86	680.23
508.22	691.11
508.59	701.85
508.95	712.95
509.31	724.27
509.67	735.87
510.03	747.27
510.39	759.15
510.75	771.12
511.12	783.10
511.48	795.29
511.84	807.63
512.20	820.02
512.56	832.77
512.92	845.63
513.28	858.33
513.64	871.17
514.00	884.13
514.37	897.19
514.73	910.33
515.09	923.29
515.45	936.22
515.81	949.30
516.17	962.75
516.53	975.97
516.89	989.06
517.25	1002.26
517.61	1015.88
517.97	1029.31
518.33	1042.49
518.69	1056.13
519.05	1069.80
519.41	1083.53
519.77	1097.45
520.13	1110.76
520.49	1123.94
520.85	1137.41
521.21	1150.90
521.57	1164.56
521.93	1177.65
522.29	1191.50
522.65	1205.18
523.01	1218.94
523.37	1232.20
523.73	1245.57
524.09	1258.95
524.45	1272.48
524.81	1285.98
525.17	1299.45
525.53	1312.70
525.89	1326.01
526.25	1339.13
526.61	1352.14
526.97	1365.23
527.33	1378.17
527.68	1391.58
528.04	1405.18
528.40	1418.30
528.76	1431.54
529.12	1444.56
529.48	1457.98
529.84	1470.30
530.20	1483.08
530.56	1495.62
530.91	1508.91
531.27	1521.68
531.63	1534.38
531.99	1547.24
532.35	1559.52
532.71	1571.87
533.07	1584.73
533.42	1596.97
533.78	1609.15
534.14	1621.27
534.50	1632.43
534.86	1644.07
535.21	1655.08
535.57	1666.57
535.93	1677.79
536.29	1688.90
536.65	1700.31
537.00	1711.19
537.36	1722.54
537.72	1733.45
538.08	1744.82
538.44	1755.78
538.79	1766.89
539.15	1777.83
539.51	1788.43
539.87	1799.68
540.22	1810.45
540.58	1821.43
540.94	1832.33
541.29	1842.61
541.65	1852.28
542.01	1862.94
542.37	1872.96
542.72	1882.92
543.08	1892.69
543.44	1903.18
543.79	1912.51
544.15	1921.83
544.51	1931.90
544.87	1941.78
545.22	1951.06
545.58	1960.00
545.94	1968.77
546.29	1977.27
546.65	1985.71
547.01	1994.02
547.36	2001.80
547.72	2009.63
548.07	2017.04
548.43	2024.82
548.79	2032.69
549.14	2040.75
549.50	2049.04
549.86	2056.91
550.21	2064.42
550.57	2072.10
550.92	2078.85
551.28	2086.33
551.64	2093.61
551.99	2101.00
552.35	2108.18
552.70	2115.11
553.06	2121.76
553.41	2128.19
553.77	2134.56
554.13	2140.93
554.48	2147.94
554.84	2155.00
555.19	2161.50
555.55	2168.07
555.90	2174.37
556.26	2181.04
556.61	2187.16
556.97	2192.07
557.32	2197.86
557.68	2204.48
558.03	2210.30
558.39	2215.66
558.74	2221.60
559.10	2227.17
559.45	2232.76
559.81	2238.38
560.16	2243.88
560.52	2249.78
560.87	2256.11
561.23	2262.21
561.58	2268.83
561.94	2274.07
562.29	2278.80
562.64	2285.04
563.00	2290.74
563.35	2296.31
563.71	2302.19
564.06	2308.13
564.42	2314.15
564.77	2319.23
565.12	2324.43
565.48	2329.58
565.83	2335.28
566.19	2340.85
566.54	2346.38
566.89	2351.12
567.25	2355.79
567.60	2361.60
567.96	2366.91
568.31	2371.66
568.66	2376.08
569.02	2380.06
569.37	2383.94
569.72	2388.44
570.08	2391.86
570.43	2394.95
570.78	2398.24
571.14	2400.70
571.49	2403.72
571.84	2407.41
572.20	2410.51
572.55	2413.57
572.90	2415.95
573.26	2418.87
573.61	2421.66
573.96	2424.01
574.31	2426.10
574.67	2427.99
575.02	2429.01
575.37	2430.45
575.72	2431.28
576.08	2432.77
576.43	2432.99
576.78	2433.58
577.13	2435.43
577.49	2436.80
577.84	2437.98
578.19	2439.48
578.54	2440.42
578.90	2441.31
579.25	2441.34
579.60	2441.52
579.95	2440.84
580.30	2441.11
580.66	2440.56
581.01	2438.92
581.36	2436.62
581.71	2435.27
582.06	2434.29
582.42	2433.44
582.77	2431.29
583.12	2429.87
583.47	2428.62
583.82	2428.25
584.17	2427.08
584.53	2424.94
584.88	2422.90
585.23	2421.14
585.58	2419.00
585.93	2417.05
586.28	2414.99
586.63	2412.59
586.98	2410.23
587.34	2408.54
587.69	2406.33
588.04	2404.27
588.39	2402.85
588.74	2400.53
589.09	2397.99
589.44	2394.93
589.79	2392.48
590.14	2390.67
590.49	2387.79
590.84	2384.09
591.19	2381.06
591.54	2377.98
591.89	2373.92
592.25	2370.76
592.60	2366.81
592.95	2362.53
593.30	2358.43
593.65	2354.10
594.00	2349.63
594.35	2346.89
594.70	2342.28
595.05	2337.69
595.40	2332.34
595.75	2326.64
596.10	2322.97
596.45	2318.16
596.80	2313.62
597.15	2308.67
597.50	2302.84
597.85	2297.99
598.19	2292.87
598.54	2287.14
598.89	2281.89
599.24	2277.49
599.59	2271.38
599.94	2265.53
600.29	2259.76
600.64	2253.85
600.99	2247.06
601.34	2241.71
601.69	2234.71
602.04	2228.36
602.39	2221.61
602.74	2215.45
603.08	2209.90
603.43	2203.57
603.78	2196.79
604.13	2189.79
604.48	2182.26
604.83	2175.94
605.18	2169.69
605.53	2162.74
605.87	2155.61
606.22	2148.93
606.57	2141.04
606.92	2133.01
607.27	2126.07
607.62	2119.25
607.96	2112.22
608.31	2105.82
608.66	2097.85
609.01	2090.13
609.36	2082.95
609.70	2075.27
610.05	2067.52
610.40	2059.20
610.75	2050.68
611.10	2042.91
611.44	2033.90
611.79	2025.28
612.14	2015.30
612.49	2004.41
612.83	1994.86
613.18	1985.44
613.53	1975.96
613.88	1966.26
614.22	1957.62
614.57	1947.63
614.92	1937.16
615.27	1926.87
615.61	1916.57
615.96	1906.91
616.31	1897.31
616.65	1887.68
617.00	1877.75
617.35	1868.01
617.70	1858.23
618.04	1847.98
618.39	1837.73
618.74	1828.01
619.08	1818.23
619.43	1809.48
619.78	1801.37
620.12	1792.80
620.47	1783.17
620.82	1772.85
621.16	1762.93
621.51	1752.91
621.85	1742.88
622.20	1732.31
622.55	1721.63
622.89	1711.67
623.24	1701.88
623.59	1691.95
623.93	1681.85
624.28	1672.09
624.62	1661.85
624.97	1651.43
625.32	1641.62
625.66	1632.66
626.01	1623.83
626.35	1614.39
626.70	1604.30
627.04	1594.07
627.39	1583.84
627.73	1574.50
628.08	1565.39
628.43	1555.71
628.77	1546.40
629.12	1537.44
629.46	1529.52
629.81	1520.99
630.15	1511.28
630.50	1501.56
630.84	1490.91
631.19	1480.85
631.53	1471.44
631.88	1461.17
632.22	1451.07
632.57	1441.66
632.91	1431.39
633.26	1421.27
633.60	1411.59
633.95	1402.14
634.29	1392.59
634.64	1383.17
634.98	1373.09
635.32	1363.68
635.67	1355.18
636.01	1345.82
636.36	1335.99
636.70	1326.32
637.05	1316.93
637.39	1308.08
637.73	1299.20
638.08	1291.58
638.42	1283.31
638.77	1274.38
639.11	1266.08
639.45	1258.10
639.80	1249.42
640.14	1240.58
640.49	1231.75
640.83	1222.75
641.17	1214.43
641.52	1206.08
641.86	1197.35
642.20	1189.37
642.55	1180.53
642.89	1171.48
643.23	1162.59
643.58	1154.45
643.92	1145.31
644.26	1136.47
644.61	1127.74
644.95	1118.85
645.29	1109.49
645.64	1100.20
645.98	1091.63
646.32	1083.64
646.66	1075.05
647.01	1066.63
647.35	1058.41
647.69	1049.98
648.04	1041.65
648.38	1032.76
648.72	1023.89
649.06	1015.35
649.41	1006.93
649.75	998.97
650.09	991.03
650.43	983.01
650.78	974.52
651.12	966.76
651.46	959.27
651.80	952.00
652.14	944.60
652.49	937.01
652.83	929.57
653.17	921.77
653.51	913.97
653.85	906.61
654.20	899.20
654.54	891.55
654.88	884.13
655.22	876.87
655.56	869.76
655.90	862.91
656.25	856.18
656.59	849.31
656.93	842.24
657.27	835.04
657.61	827.96
657.95	821.79
658.29	815.81
658.64	809.59
658.98	803.10
659.32	796.49
659.66	790.19
660.00	783.79
660.34	777.65
660.68	771.44
661.02	765.14
661.36	759.14
661.70	753.36
662.05	747.65
662.39	742.05
662.73	736.56
663.07	731.11
663.41	725.41
663.75	719.67
664.09	713.85
664.43	708.29
664.77	703.00
665.11	697.11
665.45	691.07
665.79	685.24
666.13	679.51
666.47	673.95
666.81	668.44
667.15	663.01
667.49	657.71
667.83	652.43
668.17	647.04
668.51	641.84
668.85	636.87
669.19	631.96
669.53	626.89
669.87	621.71
670.21	616.89
670.55	612.11
670.89	607.62
671.23	603.32
671.57	598.93
671.91	594.47
672.25	590.32
672.58	586.22
672.92	582.09
673.26	578.08
673.60	574.12
673.94	570.26
674.28	566.61
674.62	562.89
674.96	559.15
675.30	555.60
675.64	551.90
675.97	548.24
676.31	544.64
676.65	541.00
676.99	537.61
677.33	533.73
677.67	530.09
678.01	526.15
678.34	522.47
678.68	518.92
679.02	515.39
679.36	511.66
679.70	507.97
680.04	504.38
680.37	500.88
680.71	497.60
681.05	494.37
681.39	491.09
681.73	487.87
682.06	484.74
682.40	481.64
682.74	478.49
683.08	475.32
683.42	472.02
683.75	468.96
684.09	465.89
684.43	463.07
684.77	460.13
685.10	457.26
685.44	454.31
685.78	451.40
686.12	448.53
686.45	445.70
686.79	443.02
687.13	440.50
687.46	437.89
687.80	435.20
688.14	432.33
688.48	429.65
688.81	426.96
689.15	424.44
689.49	421.81
689.82	419.25
690.16	416.59
690.50	414.18
690.83	411.72
691.17	409.13
691.51	406.64
691.84	404.32
692.18	402.12
692.52	399.92
692.85	397.71
693.19	395.58
693.52	393.49
693.86	391.29
694.20	389.08
694.53	386.90
694.87	384.64
695.21	382.52
695.54	380.38
695.88	378.21
696.21	375.97
696.55	373.84
696.88	371.75
697.22	369.76
697.56	367.85
697.89	365.96
698.23	364.20
698.56	362.42
698.90	360.68
699.23	358.74
699.57	356.87
699.90	355.00
700.24	353.16
700.58	351.40
700.91	349.66
701.25	348.06
701.58	346.44
701.92	344.84
702.25	343.19
702.59	341.55
702.92	339.94
703.26	338.40
703.59	336.94
703.93	335.70
704.26	334.28
704.60	332.75
704.93	331.28
705.26	329.74
705.60	328.24
705.93	326.68
706.27	325.34
706.60	324.05
706.94	322.80
707.27	321.45
707.61	320.05
707.94	318.74
708.27	317.26
708.61	315.82
708.94	314.46
709.28	313.21
709.61	311.94
709.94	310.76
710.28	309.50
710.61	308.29
710.95	306.83
711.28	305.73
711.61	304.56
711.95	303.39
712.28	302.24
712.61	301.03
712.95	300.00
713.28	298.96
713.61	297.82
713.95	296.69
714.28	295.64
714.61	294.61
714.95	293.57
715.28	292.49
715.61	291.47
715.95	290.49
716.28	289.49
716.61	288.52
716.95	287.53
717.28	286.64
717.61	285.71
717.94	284.84
718.28	283.79
718.61	282.90
718.94	282.02
719.27	281.16
719.61	280.39
719.94	279.50
720.27	278.55
720.60	277.69
720.94	276.91
721.27	276.17
721.60	275.48
721.93	274.75
722.27	274.13
722.60	273.45
722.93	272.75
723.26	272.13
723.59	271.46
723.93	270.84
724.26	270.20
724.59	269.55
724.92	268.92
725.25	268.39
725.59	267.80
725.92	267.29
726.25	266.71
726.58	266.11
726.91	265.52
727.24	264.97
727.57	264.41
727.91	263.75
728.24	263.15
728.57	262.55
728.90	261.97
729.23	261.38
729.56	260.95
729.89	260.42
730.22	259.83
730.55	259.28
730.89	258.74
731.22	258.21
731.55	257.67
731.88	257.15
732.21	256.59
732.54	256.07
732.87	255.52
733.20	255.05
733.53	254.57
733.86	254.12
734.19	253.66
734.52	253.22
734.85	253.00
735.18	252.51
735.51	252.18
735.84	251.75
736.17	251.34
736.50	250.79
736.83	250.61
737.16	250.22
737.49	249.87
737.82	249.48
738.15	249.07
738.48	248.69
738.81	248.29
739.14	247.89
739.47	247.52
739.80	247.13
740.13	246.75
740.46	246.37
740.79	245.97
741.12	245.58
741.45	245.18
741.78	244.70
742.11	244.47
742.44	244.04
742.77	243.75
743.10	243.39
743.43	243.04
743.75	242.48
744.08	242.41
744.41	242.03
744.74	241.69
745.07	241.31
745.40	241.04
745.73	240.81
746.06	240.49
746.39	240.19
746.71	239.85
747.04	239.54
747.37	239.23
747.70	238.98
748.03	238.69
748.36	238.45
748.68	238.14
749.01	237.78
749.34	237.48
749.67	237.18
750.00	236.90
750.33	236.77
750.65	236.55
750.98	236.06
751.31	235.86
751.64	235.63
751.97	235.55
752.29	235.26
752.62	234.89
752.95	234.66
753.28	234.38
753.60	234.12
753.93	233.96
754.26	233.77
754.59	233.48
754.91	233.24
755.24	232.99
755.57	232.76
755.90	232.53
756.22	232.30
756.55	232.06
756.88	231.83
757.20	231.52
757.53	231.23
757.86	230.98
758.19	230.78
758.51	230.52
758.84	230.24
759.17	230.01
759.49	229.87
759.82	229.77
760.15	229.64
760.47	229.47
760.80	229.23
761.13	229.04
761.45	228.86
761.78	228.66
762.11	228.51
762.43	228.33
762.76	228.16
763.08	228.00
763.41	227.85
763.74	227.71
764.06	227.55
764.39	227.40
764.71	227.25
765.04	227.08
765.37	226.92
765.69	226.73
766.02	226.63
766.34	226.49
766.67	226.26
767.00	226.14
767.32	226.11
767.65	226.04
767.97	225.89
768.30	225.77
768.62	225.70
768.95	225.51
769.27	225.40
769.60	225.30
769.92	225.19
770.25	225.01
770.57	224.88
770.90	224.75
771.22	224.63
771.55	224.54
771.87	224.40
772.20	224.28
772.52	224.33
772.85	224.44
773.17	224.31
773.50	224.21
773.82	224.04
774.15	223.87
774.47	223.66
774.80	223.54
775.12	223.47
775.45	223.33
775.77	223.28
776.09	223.21
776.42	223.14
776.74	223.09
777.07	223.01
777.39	222.91
777.72	222.81
778.04	222.74
778.36	222.62
778.69	222.56
779.01	222.49
779.33	222.27
779.66	221.94
779.98	221.85
780.31	221.76
780.63	221.79
780.95	221.77
781.28	221.72
781.60	221.63
781.92	221.57
782.25	221.51
782.57	221.45
782.89	221.35
783.22	221.25
783.54	221.15
783.86	221.07
784.19	221.02
784.51	221.03
784.83	220.93
785.16	220.85
785.48	220.81
785.80	220.74
786.12	220.69
786.45	220.62
786.77	220.58
787.09	220.53
787.42	220.38
787.74	220.27
788.06	220.21
788.38	220.18
788.71	220.08
789.03	220.03
789.35	219.97
789.67	219.92
789.99	219.91
790.32	219.85
790.64	219.87
790.96	219.96
791.28	219.81
791.61	219.78
791.93	219.76
792.25	219.67
792.57	219.78
792.89	219.70
793.21	219.67
793.54	219.61
793.86	219.53
794.18	219.54
794.50	219.48
794.82	219.46
795.14	219.41
795.47	219.40
795.79	219.36
796.11	219.28
796.43	219.20
796.75	219.15
797.07	219.10
797.39	219.00
797.71	218.81
798.04	218.80
798.36	218.76
798.68	218.75
799.00	218.74
799.32	218.57
799.64	218.56
799.96	218.54
800.28	218.55
800.60	218.49
800.92	218.45
801.24	218.40
801.56	218.35
801.89	218.31
802.21	218.28
802.53	218.20
802.85	218.21
803.17	218.27
803.49	218.20
803.81	218.17
804.13	218.14
804.45	218.08
804.77	218.06
805.09	218.06
805.41	217.98
805.73	217.90
806.05	217.87
806.37	217.81
806.69	217.71
807.01	217.66
807.33	217.65
807.65	217.54
807.97	217.60
808.28	217.57
808.60	217.56
808.92	217.49
809.24	217.60
809.56	217.54
809.88	217.45
810.20	217.39
810.52	217.41
810.84	217.39
811.16	217.35
811.48	217.33
811.80	217.34
812.12	217.31
812.43	217.35
812.75	217.31
813.07	217.27
813.39	217.28
813.71	217.21
814.03	217.20
814.35	217.20
814.67	217.07
814.98	217.04
815.30	216.98
815.62	216.94
815.94	216.82
816.26	216.79
816.58	216.75
816.89	216.79
817.21	216.71
817.53	216.69
817.85	216.68
818.17	216.64
818.48	216.57
818.80	216.60
819.12	216.56
819.44	216.49
819.76	216.49
820.07	216.48
820.39	216.46
820.71	216.48
821.03	216.46
821.34	216.42
821.66	216.40
821.98	216.45
822.30	216.44
822.61	216.52
822.93	216.46
823.25	216.42
823.57	216.38
823.88	216.40
824.20	216.41
824.52	216.45
824.83	216.46
825.15	216.42
825.47	216.40
825.79	216.39
826.10	216.40
826.42	216.36
826.74	216.37
827.05	216.38
827.37	216.33
827.69	216.28
828.00	216.31
828.32	216.30
828.64	216.24
828.95	216.35
829.27	216.27
829.58	216.27
829.90	216.33
830.22	216.33
830.53	216.28
830.85	216.21
831.17	216.13
831.48	216.11
831.80	216.11
832.11	216.07
832.43	216.04
832.75	216.03
833.06	216.13
833.38	216.05
833.69	216.02
834.01	216.03
834.32	216.04
834.64	216.02
834.96	216.02
835.27	216.02
835.59	215.95
835.90	215.90
836.22	215.88
836.53	215.83
836.85	215.79
837.16	215.96
837.48	215.97
837.79	216.02
838.11	215.99
838.42	216.00
838.74	216.02
839.05	216.00
839.37	215.98
839.68	215.83
840.00	215.79
840.31	215.83
840.63	215.79
840.94	215.78
841.26	215.72
841.57	215.74
841.88	215.74
842.20	215.70
842.51	215.69
842.83	215.76
843.14	215.91
843.46	215.90
843.77	215.81
844.08	215.80
844.40	215.73
844.71	215.72
845.03	215.69
845.34	215.66
845.65	215.66
845.97	215.67
846.28	215.70
846.60	215.76
846.91	215.73
847.22	215.72
847.54	215.75
847.85	215.80
848.16	215.76
848.48	215.73
848.79	215.80
849.10	215.80
849.42	215.78
849.73	215.60
850.04	215.61
850.36	215.50
850.67	215.52
850.98	215.52
851.30	215.53
851.61	215.49
851.92	215.46
852.23	215.56
852.55	215.59
852.86	215.60
853.17	215.59
853.49	215.62
853.80	215.67
854.11	215.66
854.42	215.68
854.74	215.62
855.05	215.63
855.36	215.55
855.67	215.56
855.99	215.53
856.30	215.77
856.61	215.78
856.92	215.80
857.23	215.82
857.55	215.81
857.86	215.82
858.17	215.86
858.48	215.85
858.79	215.77
859.11	215.77
859.42	215.74
859.73	215.72
860.04	215.66
860.35	215.59
860.66	215.52
860.98	215.50
861.29	215.55
861.60	215.51
861.91	215.53
862.22	215.47
862.53	215.44
862.84	215.21
863.16	215.26
863.47	215.23
863.78	215.18
864.09	215.21
864.40	215.19
864.71	215.21
865.02	215.25
865.33	215.23
865.64	215.19
865.95	215.17
866.27	215.32
866.58	215.34
866.89	215.39
867.20	215.40
867.51	215.36
867.82	215.35
868.13	215.43
868.44	215.40
868.75	215.43
869.06	215.42
869.37	215.42
869.68	215.31
869.99	215.37
870.30	215.40
870.61	215.41
870.92	215.37
871.23	215.32
871.54	215.32
871.85	215.34
872.16	215.36
872.47	215.34
872.78	215.18
873.09	215.22
873.40	215.18
873.71	215.21
874.02	215.21
874.33	215.19
874.64	215.13
874.95	215.14
875.26	215.11
875.56	215.11
875.87	215.10
876.18	215.11
876.49	215.26
876.80	215.17
877.11	215.13
877.42	215.15
877.73	215.14
878.04	215.12
878.35	215.13
878.66	215.12
878.96	215.14
879.27	215.15
879.58	215.12
879.89	215.09
880.20	215.15
880.51	215.19
880.82	215.16
881.12	215.16
881.43	215.10
881.74	215.09
882.05	215.09
882.36	215.13
882.67	215.15
882.97	214.95
883.28	214.96
883.59	214.91
883.90	214.93
884.21	214.97
884.51	214.95
884.82	214.93
885.13	214.93
885.44	214.91
885.74	214.92
886.05	214.88
886.36	214.88
886.67	214.78
886.98	214.85
887.28	214.89
887.59	214.89
887.90	214.91
888.20	214.91
888.51	214.92
888.82	214.89
889.13	214.91
889.43	215.08
889.74	215.08
890.05	215.11
890.35	215.10
890.66	215.05
890.97	215.04
891.28	215.01
891.58	215.03
891.89	215.01
892.20	214.97
892.50	214.94
892.81	214.97
893.12	214.99
893.42	214.90
893.73	214.86
894.04	214.87
894.34	214.90
894.65	214.91
894.95	214.88
895.26	214.89
895.57	214.99
895.87	214.77
896.18	214.83
896.48	214.83
896.79	214.83
897.10	214.86
897.40	214.88
897.71	214.94
898.01	214.90
898.32	214.94
898.63	214.97
898.93	215.00
899.24	215.00
899.54	214.97
899.85	214.94
900.15	214.96
900.46	214.97
900.76	214.98
901.07	214.94
901.38	214.95
901.68	214.94
901.99	214.83
902.29	214.86
902.60	214.85
902.90	214.84
903.21	214.83
903.51	214.80
903.82	214.86
904.12	214.83
904.43	214.86
904.73	214.86
905.03	214.89
905.34	215.09
905.64	215.07
905.95	215.07
906.25	215.04
906.56	215.05
906.86	215.04
907.17	215.00
907.47	215.00
907.77	215.01
908.08	215.01
908.38	215.03
908.69	215.05
908.99	215.05
909.30	215.05
909.60	215.05
909.90	215.10
910.21	215.02
910.51	214.98
910.81	214.96
911.12	214.96
911.42	214.98
911.73	214.75
912.03	214.73
912.33	214.79
912.64	214.78
912.94	214.76
913.24	214.70
913.55	214.70
913.85	214.71
914.15	214.72
914.46	214.73
914.76	214.71
915.06	214.69
915.37	214.68
915.67	214.64
915.97	214.63
916.27	214.56
916.58	214.57
916.88	214.57
917.18	214.54
917.49	214.64
917.79	214.59
918.09	214.66
918.39	214.74
918.70	214.74
919.00	214.78
919.30	214.90
919.60	214.91
919.91	214.88
920.21	214.86
920.51	214.82
920.81	214.82
921.12	214.84
921.42	214.82
921.72	214.85
922.02	214.90
922.32	214.94
922.63	214.93
922.93	215.04
923.23	215.06
923.53	215.05
923.83	214.95
924.13	214.96
924.44	214.94
924.74	214.94
925.04	214.97
925.34	214.95
925.64	214.83
925.94	214.86
926.24	214.99
926.55	214.98
926.85	215.00
927.15	215.03
927.45	215.02
927.75	215.00
928.05	214.96
928.35	214.94
928.65	214.96
928.95	214.99
929.26	214.89
929.56	214.94
929.86	215.00
930.16	214.98
930.46	214.97
930.76	214.97
931.06	214.88
931.36	214.80
931.66	214.84
931.96	214.86
932.26	214.85
932.56	214.74
932.86	214.77
933.16	214.77
933.46	214.73
933.76	214.72
934.06	214.76
934.36	214.83
934.66	214.83
934.96	214.79
935.26	214.82
935.56	214.87
935.86	214.82
936.16	214.79
936.46	214.78
936.76	214.79
937.06	214.78
937.36	214.83
937.66	214.87
937.96	214.85
938.26	214.83
938.56	214.81
938.86	214.84
939.16	214.88
939.46	214.92
939.76	214.94
940.06	214.95
940.35	214.91
940.65	214.82
940.95	214.83
941.25	214.79
941.55	214.75
941.85	214.72
942.15	214.75
942.45	214.79
942.75	214.81
943.04	214.82
943.34	214.86
943.64	214.82
943.94	214.82
944.24	214.80
944.54	214.85
944.84	214.85
945.13	214.82
945.43	214.74
945.73	214.68
946.03	214.67
946.33	214.64
946.62	214.62
946.92	214.66
947.22	214.67
947.52	214.70
947.82	214.76
948.11	214.76
948.41	214.73
948.71	214.67
949.01	214.66
949.31	214.61
949.60	214.60
949.90	214.64
950.20	214.62
950.50	214.64
950.79	214.58
951.09	214.64
951.39	214.68
951.69	214.70
951.98	214.73
952.28	214.75
952.58	214.74
952.87	214.77
953.17	214.77
953.47	214.78
953.76	214.75
954.06	214.69
954.36	214.66
954.66	214.66
954.95	214.70
955.25	214.71
955.55	214.75
955.84	214.71
956.14	214.73
956.44	214.74
956.73	214.70
957.03	214.72
957.32	214.72
957.62	214.68
957.92	214.75
958.21	214.74
958.51	214.95
958.81	215.00
959.10	215.02
959.40	215.07
959.69	215.04
959.99	215.09
960.29	215.11
960.58	215.11
960.88	215.21
961.17	215.19
961.47	215.21
961.76	215.18
962.06	215.20
962.36	215.17
962.65	215.18
962.95	215.19
963.24	215.17
963.54	215.15
963.83	215.15
964.13	215.12
964.42	215.09
964.72	214.90
965.01	214.90
965.31	214.86
965.60	214.79
965.90	214.92
966.19	214.85
966.49	214.85
966.78	214.82
967.08	214.79
967.37	214.79
967.67	214.73
967.96	214.78
968.26	214.76
968.55	214.78
968.85	214.77
969.14	214.76
969.43	214.78
969.73	214.78
970.02	214.76
970.32	214.72
970.61	214.70
970.91	214.67
971.20	214.61
971.49	214.62
971.79	214.64
972.08	214.51
972.38	214.53
972.67	214.50
972.96	214.53
973.26	214.48
973.55	214.53
973.85	214.58
974.14	214.53
974.43	214.58
974.73	214.58
975.02	214.57
975.31	214.60
975.61	214.59
975.90	214.56
976.19	214.55
976.49	214.57
976.78	214.59
977.07	214.56
977.37	214.60
977.66	214.61
977.95	214.60
978.24	214.62
978.54	214.67
978.83	214.66
979.12	214.66
979.42	214.66
979.71	214.62
980.00	214.57
980.29	214.58
980.59	214.56
980.88	214.56
981.17	214.55
981.46	214.54
981.76	214.52
982.05	214.57
982.34	214.59
982.63	214.57
982.93	214.60
983.22	214.64
983.51	214.66
983.80	214.68
984.09	214.71
984.39	214.68
984.68	214.67
984.97	214.71
985.26	214.68
985.55	214.72
985.85	214.68
986.14	214.72
986.43	214.79
986.72	214.73
987.01	214.68
987.30	214.67
987.59	214.65
987.89	214.67
988.18	214.64
988.47	214.63
988.76	214.67
989.05	214.58
989.34	214.55
989.63	214.58
989.92	214.55
990.22	214.51
990.51	214.55
990.80	214.51
991.09	214.48
991.38	214.53
991.67	214.48
991.96	214.44
992.25	214.42
992.54	214.38
992.83	214.42
993.12	214.40
993.41	214.45
993.70	214.52
993.99	214.54
994.28	214.56
994.58	214.59
994.87	214.55
995.16	214.59
995.45	214.60
995.74	214.53
996.03	214.56
996.32	214.56
996.61	214.57
996.90	214.58
997.19	214.62
997.48	214.60
997.77	214.59
998.06	214.61
998.34	214.58
998.63	214.54
998.92	214.54
999.21	214.57
999.50	214.54
999.79	214.48
1000.08	214.47
1000.37	214.46
1000.66	214.42
1000.95	214.47
1001.24	214.48
1001.53	214.47
1001.82	214.45
1002.11	214.41
1002.40	214.46
1002.68	214.52
1002.97	214.66
1003.26	214.62
1003.55	214.59
1003.84	214.62
1004.13	214.73
1004.42	214.73
1004.71	214.75
1004.99	214.74
1005.28	214.79
1005.57	214.79
1005.86	214.74
1006.15	214.74
1006.44	214.73
1006.72	214.76
1007.01	214.72
1007.30	214.71
1007.59	214.71
1007.88	214.74
1008.17	214.77
1008.45	214.70
1008.74	214.62
1009.03	214.52
1009.32	214.55
1009.60	214.55
1009.89	214.55
1010.18	214.43
1010.47	214.41
1010.76	214.40
1011.04	214.40
1011.33	214.43
1011.62	214.47
1011.91	214.50
1012.19	214.50
1012.48	214.52
1012.77	214.53
1013.05	214.66
1013.34	214.69
1013.63	214.66
1013.92	214.67
1014.20	214.61
1014.49	214.64
1014.78	214.66
1015.06	214.59
1015.35	214.55
1015.64	214.59
1015.92	214.61
1016.21	214.66
1016.50	214.70
1016.78	214.70
1017.07	214.70
1017.36	214.62
1017.64	214.58
1017.93	214.60
1018.22	214.61
1018.50	214.59
1018.79	214.57
1019.08	214.44
1019.36	214.45
1019.65	214.44
1019.93	214.46
1020.22	214.52
1020.51	214.60
1020.79	214.57
1021.08	214.69
1021.36	214.48
1021.65	214.15
1021.94	214.34
1022.22	214.84
1022.51	213.85
1022.79	215.14
1023.08	214.78
1023.36	216.48
1023.65	214.16
>>>>>End Processed Spectral Data<<<<<
