SpectraSuite Data File
++++++++++++++++++++++++++++++++++++
Date: Tue Jan 29 16:42:50 EST 2013
User: group
Dark Spectrum Present: No
Reference Spectrum Present: No
Number of Sampled Component Spectra: 1
Spectrometers: USB2E7196
Integration Time (usec): 65000 (USB2E7196)
Spectra Averaged: 100 (USB2E7196)
Boxcar Smoothing: 10 (USB2E7196)
Correct for Electrical Dark: No (USB2E7196)
Strobe/Lamp Enabled: No (USB2E7196)
Correct for Detector Non-linearity: No (USB2E7196)
Correct for Stray Light: No (USB2E7196)
Number of Pixels in Processed Spectrum: 2048
>>>>>Begin Processed Spectral Data<<<<<
339.09	0.00
339.48	201.52
339.86	203.12
340.24	203.91
340.63	205.68
341.01	210.38
341.39	208.14
341.78	210.42
342.16	211.03
342.54	211.40
342.93	200.81
343.31	210.94
343.69	211.48
344.07	211.95
344.46	212.40
344.84	212.83
345.22	212.99
345.60	213.28
345.99	213.46
346.37	213.63
346.75	213.74
347.13	213.84
347.52	213.92
347.90	214.03
348.28	214.08
348.66	214.13
349.05	214.10
349.43	214.16
349.81	214.24
350.19	214.29
350.57	214.36
350.96	214.45
351.34	214.57
351.72	214.71
352.10	214.82
352.48	214.94
352.87	215.01
353.25	215.08
353.63	215.14
354.01	215.21
354.39	215.29
354.77	215.39
355.15	215.52
355.54	215.58
355.92	215.62
356.30	215.71
356.68	215.91
357.06	216.01
357.44	216.07
357.82	216.12
358.20	216.23
358.58	216.28
358.97	216.35
359.35	216.45
359.73	216.55
360.11	216.64
360.49	216.69
360.87	216.71
361.25	216.83
361.63	216.97
362.01	217.03
362.39	217.05
362.77	217.14
363.15	217.15
363.53	217.21
363.91	217.24
364.29	217.28
364.67	217.16
365.05	217.16
365.43	217.19
365.81	217.25
366.19	217.35
366.57	217.47
366.95	217.48
367.33	217.44
367.71	217.42
368.09	217.44
368.47	217.45
368.85	217.41
369.23	217.39
369.61	217.30
369.99	217.34
370.37	217.34
370.75	217.38
371.13	217.30
371.51	217.25
371.89	217.22
372.27	217.20
372.65	217.16
373.03	217.16
373.41	217.14
373.78	217.08
374.16	216.95
374.54	216.81
374.92	216.77
375.30	216.75
375.68	216.68
376.06	216.64
376.44	216.58
376.82	216.57
377.19	216.52
377.57	216.47
377.95	216.40
378.33	216.36
378.71	216.22
379.09	216.23
379.47	216.19
379.84	216.10
380.22	216.03
380.60	215.93
380.98	215.86
381.36	215.79
381.73	215.72
382.11	215.69
382.49	215.66
382.87	215.56
383.25	215.51
383.62	215.71
384.00	215.59
384.38	215.57
384.76	215.56
385.13	215.61
385.51	215.59
385.89	215.53
386.27	215.51
386.64	215.51
387.02	215.44
387.40	215.41
387.78	215.43
388.15	215.40
388.53	215.40
388.91	215.39
389.29	215.38
389.66	215.37
390.04	215.33
390.42	215.36
390.79	215.40
391.17	215.39
391.55	215.10
391.92	215.15
392.30	215.16
392.68	215.13
393.05	215.10
393.43	215.09
393.81	215.08
394.18	215.05
394.56	215.04
394.94	215.11
395.31	215.09
395.69	215.17
396.06	215.20
396.44	215.26
396.82	215.27
397.19	215.39
397.57	215.41
397.95	215.47
398.32	215.40
398.70	215.42
399.07	215.48
399.45	215.58
399.82	215.60
400.20	215.63
400.58	215.70
400.95	215.68
401.33	215.79
401.70	216.01
402.08	216.07
402.45	216.17
402.83	216.30
403.20	216.45
403.58	216.53
403.95	216.68
404.33	216.81
404.71	216.97
405.08	217.20
405.46	217.37
405.83	217.55
406.21	217.82
406.58	218.04
406.96	218.29
407.33	218.56
407.70	218.85
408.08	219.31
408.45	219.67
408.83	220.08
409.20	220.41
409.58	220.69
409.95	221.19
410.33	221.67
410.70	222.08
411.08	222.63
411.45	223.16
411.82	223.74
412.20	224.44
412.57	225.26
412.95	225.88
413.32	226.72
413.69	227.60
414.07	228.46
414.44	229.51
414.82	230.52
415.19	231.69
415.56	232.91
415.94	234.08
416.31	235.51
416.68	236.90
417.06	238.56
417.43	240.10
417.81	241.82
418.18	243.59
418.55	245.57
418.93	247.59
419.30	249.76
419.67	252.00
420.04	254.30
420.42	256.70
420.79	259.49
421.16	262.27
421.54	265.19
421.91	268.20
422.28	271.28
422.66	274.59
423.03	277.85
423.40	281.19
423.77	284.80
424.15	288.51
424.52	292.38
424.89	296.54
425.26	300.62
425.64	304.50
426.01	308.80
426.38	313.27
426.75	317.81
427.13	322.53
427.50	327.54
427.87	332.80
428.24	338.02
428.61	343.07
428.99	348.61
429.36	354.68
429.73	360.58
430.10	366.46
430.47	372.58
430.85	378.96
431.22	385.72
431.59	392.88
431.96	399.68
432.33	407.17
432.70	414.46
433.08	423.01
433.45	431.15
433.82	439.19
434.19	448.15
434.56	456.94
434.93	465.30
435.30	473.62
435.68	482.73
436.05	491.76
436.42	500.61
436.79	508.78
437.16	517.53
437.53	526.86
437.90	536.03
438.27	544.97
438.64	554.15
439.01	562.74
439.38	570.32
439.75	577.68
440.13	586.15
440.50	594.08
440.87	600.48
441.24	607.14
441.61	614.56
441.98	619.96
442.35	626.27
442.72	632.61
443.09	638.66
443.46	642.45
443.83	644.97
444.20	647.29
444.57	650.44
444.94	651.86
445.31	653.31
445.68	654.73
446.05	655.36
446.42	654.68
446.79	653.69
447.16	652.62
447.53	651.81
447.90	648.47
448.27	645.21
448.64	640.64
449.01	637.35
449.37	631.38
449.74	625.75
450.11	618.84
450.48	611.48
450.85	604.00
451.22	597.48
451.59	591.37
451.96	585.43
452.33	577.57
452.70	570.51
453.07	561.99
453.43	553.36
453.80	545.03
454.17	536.96
454.54	529.37
454.91	521.17
455.28	513.24
455.65	505.84
456.02	498.34
456.38	491.92
456.75	483.94
457.12	477.32
457.49	470.71
457.86	464.49
458.23	458.97
458.59	453.00
458.96	446.98
459.33	441.55
459.70	436.18
460.07	431.90
460.43	426.98
460.80	422.40
461.17	418.36
461.54	414.18
461.91	410.11
462.27	405.96
462.64	402.54
463.01	398.67
463.38	394.92
463.74	391.15
464.11	387.94
464.48	385.12
464.85	382.02
465.21	379.61
465.58	376.93
465.95	373.83
466.32	371.21
466.68	368.61
467.05	366.02
467.42	363.42
467.78	360.72
468.15	358.15
468.52	356.22
468.88	353.73
469.25	351.49
469.62	349.68
469.98	347.74
470.35	345.88
470.72	344.19
471.08	342.41
471.45	340.90
471.82	339.33
472.18	337.66
472.55	336.45
472.92	335.03
473.28	333.82
473.65	332.70
474.02	331.60
474.38	330.69
474.75	329.96
475.11	329.14
475.48	328.54
475.85	328.02
476.21	327.52
476.58	327.16
476.94	326.90
477.31	326.55
477.67	326.29
478.04	326.09
478.41	326.03
478.77	326.16
479.14	326.14
479.50	326.31
479.87	326.61
480.23	326.90
480.60	327.08
480.96	327.38
481.33	327.92
481.69	328.45
482.06	328.97
482.42	329.41
482.79	330.03
483.15	330.81
483.52	331.80
483.88	332.65
484.25	333.59
484.61	334.60
484.98	335.69
485.34	336.98
485.71	338.36
486.07	339.83
486.44	341.10
486.80	342.71
487.17	344.36
487.53	346.17
487.90	348.07
488.26	350.16
488.62	352.32
488.99	354.34
489.35	356.55
489.72	358.95
490.08	361.49
490.44	364.05
490.81	366.78
491.17	369.50
491.54	372.49
491.90	375.56
492.26	378.79
492.63	382.19
492.99	385.70
493.36	389.38
493.72	393.21
494.08	397.21
494.45	401.37
494.81	405.76
495.17	410.21
495.54	414.90
495.90	419.73
496.26	424.61
496.63	429.85
496.99	435.24
497.35	440.77
497.72	446.62
498.08	452.61
498.44	458.76
498.80	465.18
499.17	471.67
499.53	478.33
499.89	485.23
500.26	492.19
500.62	499.26
500.98	506.70
501.34	514.20
501.71	521.99
502.07	529.80
502.43	537.80
502.79	545.96
503.16	554.35
503.52	562.94
503.88	571.72
504.24	580.62
504.60	589.68
504.97	598.92
505.33	608.15
505.69	617.91
506.05	627.73
506.41	637.62
506.78	647.71
507.14	658.02
507.50	668.58
507.86	679.23
508.22	690.03
508.59	700.67
508.95	711.67
509.31	722.94
509.67	734.44
510.03	745.82
510.39	757.63
510.75	769.44
511.12	781.36
511.48	793.48
511.84	805.77
512.20	818.14
512.56	830.89
512.92	843.67
513.28	856.36
513.64	869.17
514.00	882.03
514.37	895.02
514.73	908.14
515.09	921.09
515.45	934.16
515.81	947.25
516.17	960.70
516.53	974.10
516.89	987.21
517.25	1000.46
517.61	1014.10
517.97	1027.51
518.33	1040.66
518.69	1054.28
519.05	1068.06
519.41	1081.79
519.77	1095.72
520.13	1108.90
520.49	1122.16
520.85	1135.69
521.21	1149.10
521.57	1162.81
521.93	1175.90
522.29	1189.74
522.65	1203.49
523.01	1217.05
523.37	1230.26
523.73	1243.65
524.09	1256.77
524.45	1270.41
524.81	1284.06
525.17	1297.55
525.53	1310.79
525.89	1324.19
526.25	1337.37
526.61	1350.22
526.97	1363.43
527.33	1376.48
527.68	1390.14
528.04	1403.84
528.40	1417.02
528.76	1430.51
529.12	1443.43
529.48	1456.85
529.84	1469.10
530.20	1481.75
530.56	1494.56
530.91	1507.97
531.27	1520.93
531.63	1533.84
531.99	1546.61
532.35	1558.88
532.71	1571.23
533.07	1584.32
533.42	1596.65
533.78	1608.86
534.14	1621.03
534.50	1632.39
534.86	1643.97
535.21	1654.84
535.57	1666.29
535.93	1677.61
536.29	1688.59
536.65	1700.19
537.00	1711.34
537.36	1722.88
537.72	1734.19
538.08	1745.63
538.44	1756.74
538.79	1768.00
539.15	1779.12
539.51	1789.99
539.87	1801.36
540.22	1812.37
540.58	1823.28
540.94	1834.44
541.29	1844.78
541.65	1854.66
542.01	1865.26
542.37	1875.49
542.72	1885.83
543.08	1895.68
543.44	1906.38
543.79	1915.85
544.15	1925.45
544.51	1935.52
544.87	1945.49
545.22	1954.65
545.58	1963.65
545.94	1972.60
546.29	1981.04
546.65	1989.37
547.01	1997.73
547.36	2005.48
547.72	2013.33
548.07	2020.99
548.43	2028.87
548.79	2036.94
549.14	2045.19
549.50	2053.66
549.86	2061.64
550.21	2069.10
550.57	2076.83
550.92	2083.55
551.28	2091.04
551.64	2098.21
551.99	2105.61
552.35	2112.78
552.70	2119.74
553.06	2126.42
553.41	2132.72
553.77	2139.38
554.13	2145.75
554.48	2152.76
554.84	2159.96
555.19	2166.46
555.55	2173.01
555.90	2179.17
556.26	2185.98
556.61	2192.10
556.97	2196.95
557.32	2202.69
557.68	2209.23
558.03	2215.08
558.39	2220.60
558.74	2226.65
559.10	2232.39
559.45	2238.17
559.81	2243.74
560.16	2249.37
560.52	2255.22
560.87	2261.62
561.23	2267.43
561.58	2274.08
561.94	2279.32
562.29	2283.87
562.64	2289.96
563.00	2295.61
563.35	2301.12
563.71	2306.60
564.06	2312.25
564.42	2318.29
564.77	2323.40
565.12	2328.49
565.48	2333.49
565.83	2338.82
566.19	2344.19
566.54	2349.36
566.89	2353.66
567.25	2358.10
567.60	2363.73
567.96	2368.79
568.31	2373.29
568.66	2377.51
569.02	2381.48
569.37	2385.26
569.72	2389.66
570.08	2392.93
570.43	2395.84
570.78	2398.91
571.14	2401.46
571.49	2404.46
571.84	2407.71
572.20	2410.43
572.55	2413.39
572.90	2415.64
573.26	2418.37
573.61	2420.84
573.96	2422.96
574.31	2425.11
574.67	2426.91
575.02	2427.45
575.37	2428.85
575.72	2429.31
576.08	2430.67
576.43	2430.52
576.78	2430.69
577.13	2432.11
577.49	2433.30
577.84	2434.34
578.19	2435.45
578.54	2436.03
578.90	2436.56
579.25	2436.36
579.60	2436.32
579.95	2435.43
580.30	2435.37
580.66	2434.50
581.01	2432.59
581.36	2429.99
581.71	2428.45
582.06	2427.23
582.42	2426.31
582.77	2423.83
583.12	2422.11
583.47	2420.54
583.82	2420.01
584.17	2418.70
584.53	2416.45
584.88	2414.16
585.23	2412.20
585.58	2409.83
585.93	2407.58
586.28	2405.14
586.63	2402.54
586.98	2400.12
587.34	2398.01
587.69	2395.49
588.04	2393.27
588.39	2391.70
588.74	2389.20
589.09	2386.19
589.44	2382.87
589.79	2380.14
590.14	2378.18
590.49	2375.22
590.84	2371.26
591.19	2367.99
591.54	2364.64
591.89	2360.50
592.25	2357.24
592.60	2352.83
592.95	2348.62
593.30	2344.36
593.65	2340.08
594.00	2335.63
594.35	2332.61
594.70	2327.89
595.05	2323.27
595.40	2317.75
595.75	2311.97
596.10	2308.23
596.45	2303.33
596.80	2298.66
597.15	2293.50
597.50	2287.39
597.85	2282.47
598.19	2277.25
598.54	2271.29
598.89	2265.90
599.24	2261.40
599.59	2255.02
599.94	2249.02
600.29	2243.08
600.64	2237.13
600.99	2230.24
601.34	2224.69
601.69	2217.50
602.04	2211.09
602.39	2204.35
602.74	2198.18
603.08	2192.67
603.43	2186.15
603.78	2179.30
604.13	2172.25
604.48	2164.92
604.83	2158.82
605.18	2152.62
605.53	2145.76
605.87	2138.74
606.22	2131.98
606.57	2123.90
606.92	2116.00
607.27	2109.09
607.62	2102.41
607.96	2095.25
608.31	2088.90
608.66	2081.13
609.01	2073.56
609.36	2066.44
609.70	2058.73
610.05	2050.84
610.40	2042.49
610.75	2033.98
611.10	2026.28
611.44	2017.34
611.79	2008.54
612.14	1998.48
612.49	1987.66
612.83	1978.26
613.18	1968.98
613.53	1959.67
613.88	1950.00
614.22	1941.36
614.57	1931.57
614.92	1920.86
615.27	1910.68
615.61	1900.37
615.96	1890.62
616.31	1881.02
616.65	1871.42
617.00	1861.75
617.35	1852.23
617.70	1842.52
618.04	1832.60
618.39	1822.52
618.74	1812.97
619.08	1803.40
619.43	1794.81
619.78	1786.77
620.12	1778.16
620.47	1768.60
620.82	1758.27
621.16	1748.60
621.51	1738.71
621.85	1728.90
622.20	1718.67
622.55	1708.28
622.89	1698.41
623.24	1688.85
623.59	1679.07
623.93	1669.02
624.28	1659.19
624.62	1649.14
624.97	1638.84
625.32	1629.15
625.66	1620.23
626.01	1611.48
626.35	1602.26
626.70	1592.23
627.04	1582.25
627.39	1572.07
627.73	1562.79
628.08	1553.88
628.43	1544.44
628.77	1535.30
629.12	1526.51
629.46	1518.67
629.81	1510.30
630.15	1500.91
630.50	1490.97
630.84	1480.51
631.19	1470.71
631.53	1461.44
631.88	1451.33
632.22	1441.52
632.57	1432.22
632.91	1422.16
633.26	1412.38
633.60	1402.76
633.95	1393.51
634.29	1383.88
634.64	1374.74
634.98	1364.83
635.32	1355.63
635.67	1347.09
636.01	1337.87
636.36	1328.02
636.70	1318.61
637.05	1309.25
637.39	1300.40
637.73	1291.85
638.08	1284.38
638.42	1276.33
638.77	1267.65
639.11	1259.49
639.45	1251.68
639.80	1243.22
640.14	1234.51
640.49	1225.68
640.83	1216.96
641.17	1208.86
641.52	1200.81
641.86	1192.17
642.20	1184.41
642.55	1175.83
642.89	1167.02
643.23	1158.39
643.58	1150.33
643.92	1141.43
644.26	1132.83
644.61	1124.41
644.95	1115.73
645.29	1106.58
645.64	1097.37
645.98	1088.87
646.32	1080.89
646.66	1072.25
647.01	1063.95
647.35	1055.91
647.69	1047.59
648.04	1039.31
648.38	1030.52
648.72	1021.84
649.06	1013.58
649.41	1005.32
649.75	997.30
650.09	989.49
650.43	981.42
650.78	973.16
651.12	965.37
651.46	957.93
651.80	950.71
652.14	943.47
652.49	935.93
652.83	928.61
653.17	921.01
653.51	913.44
653.85	906.29
654.20	899.00
654.54	891.51
654.88	884.38
655.22	877.20
655.56	870.15
655.90	863.32
656.25	856.51
656.59	849.68
656.93	842.69
657.27	835.56
657.61	828.56
657.95	822.49
658.29	816.49
658.64	810.38
658.98	803.90
659.32	797.35
659.66	791.12
660.00	784.78
660.34	778.60
660.68	772.49
661.02	766.06
661.36	760.01
661.70	754.16
662.05	748.39
662.39	742.84
662.73	737.42
663.07	731.99
663.41	726.45
663.75	720.74
664.09	715.08
664.43	709.68
664.77	704.39
665.11	698.56
665.45	692.64
665.79	686.78
666.13	681.09
666.47	675.52
666.81	670.00
667.15	664.60
667.49	659.38
667.83	654.09
668.17	648.90
668.51	643.86
668.85	638.87
669.19	633.99
669.53	628.94
669.87	623.79
670.21	619.00
670.55	614.22
670.89	609.71
671.23	605.40
671.57	600.95
671.91	596.64
672.25	592.41
672.58	588.28
672.92	584.25
673.26	580.26
673.60	576.37
673.94	572.57
674.28	568.91
674.62	565.29
674.96	561.55
675.30	558.01
675.64	554.31
675.97	550.69
676.31	546.98
676.65	543.39
676.99	539.93
677.33	536.05
677.67	532.37
678.01	528.51
678.34	524.83
678.68	521.27
679.02	517.63
679.36	513.94
679.70	510.26
680.04	506.67
680.37	503.22
680.71	499.89
681.05	496.62
681.39	493.37
681.73	490.11
682.06	487.03
682.40	483.90
682.74	480.70
683.08	477.47
683.42	474.30
683.75	471.23
684.09	468.16
684.43	465.31
684.77	462.34
685.10	459.47
685.44	456.52
685.78	453.63
686.12	450.78
686.45	448.04
686.79	445.36
687.13	442.79
687.46	440.16
687.80	437.44
688.14	434.64
688.48	431.95
688.81	429.23
689.15	426.59
689.49	423.93
689.82	421.34
690.16	418.73
690.50	416.22
690.83	413.68
691.17	411.11
691.51	408.60
691.84	406.28
692.18	403.99
692.52	401.75
692.85	399.56
693.19	397.42
693.52	395.17
693.86	392.90
694.20	390.66
694.53	388.50
694.87	386.26
695.21	384.08
695.54	381.90
695.88	379.75
696.21	377.52
696.55	375.41
696.88	373.33
697.22	371.33
697.56	369.42
697.89	367.54
698.23	365.76
698.56	364.03
698.90	362.27
699.23	360.34
699.57	358.45
699.90	356.56
700.24	354.74
700.58	352.98
700.91	351.30
701.25	349.70
701.58	348.03
701.92	346.43
702.25	344.79
702.59	343.07
702.92	341.48
703.26	339.96
703.59	338.46
703.93	337.19
704.26	335.73
704.60	334.15
704.93	332.64
705.26	331.13
705.60	329.59
705.93	328.01
706.27	326.67
706.60	325.36
706.94	324.10
707.27	322.67
707.61	321.36
707.94	320.00
708.27	318.47
708.61	316.98
708.94	315.57
709.28	314.29
709.61	313.09
709.94	311.82
710.28	310.55
710.61	309.36
710.95	307.85
711.28	306.74
711.61	305.59
711.95	304.42
712.28	303.18
712.61	301.99
712.95	301.00
713.28	299.94
713.61	298.79
713.95	297.64
714.28	296.60
714.61	295.53
714.95	294.46
715.28	293.42
715.61	292.42
715.95	291.45
716.28	290.49
716.61	289.49
716.95	288.51
717.28	287.58
717.61	286.56
717.94	285.67
718.28	284.64
718.61	283.75
718.94	282.81
719.27	281.99
719.61	281.09
719.94	280.17
720.27	279.16
720.60	278.29
720.94	277.42
721.27	276.68
721.60	275.96
721.93	275.25
722.27	274.62
722.60	273.93
722.93	273.24
723.26	272.55
723.59	271.84
723.93	271.21
724.26	270.54
724.59	269.90
724.92	269.28
725.25	268.71
725.59	268.11
725.92	267.61
726.25	267.01
726.58	266.44
726.91	265.81
727.24	265.30
727.57	264.73
727.91	264.10
728.24	263.48
728.57	262.84
728.90	262.25
729.23	261.65
729.56	261.16
729.89	260.58
730.22	259.98
730.55	259.46
730.89	258.89
731.22	258.36
731.55	257.82
731.88	257.32
732.21	256.76
732.54	256.21
732.87	255.66
733.20	255.15
733.53	254.66
733.86	254.21
734.19	253.73
734.52	253.28
734.85	252.99
735.18	252.52
735.51	252.18
735.84	251.77
736.17	251.34
736.50	250.84
736.83	250.69
737.16	250.33
737.49	249.93
737.82	249.52
738.15	249.12
738.48	248.76
738.81	248.31
739.14	247.91
739.47	247.52
739.80	247.16
740.13	246.83
740.46	246.44
740.79	246.05
741.12	245.63
741.45	245.29
741.78	244.85
742.11	244.55
742.44	244.16
742.77	243.84
743.10	243.48
743.43	243.13
743.75	242.53
744.08	242.43
744.41	242.04
744.74	241.68
745.07	241.31
745.40	240.97
745.73	240.68
746.06	240.35
746.39	240.05
746.71	239.72
747.04	239.33
747.37	239.01
747.70	238.72
748.03	238.40
748.36	238.09
748.68	237.78
749.01	237.44
749.34	237.15
749.67	236.84
750.00	236.55
750.33	236.44
750.65	236.21
750.98	235.66
751.31	235.43
751.64	235.19
751.97	235.07
752.29	234.84
752.62	234.53
752.95	234.30
753.28	234.01
753.60	233.74
753.93	233.57
754.26	233.38
754.59	233.08
754.91	232.86
755.24	232.61
755.57	232.34
755.90	232.12
756.22	231.85
756.55	231.59
756.88	231.34
757.20	230.95
757.53	230.64
757.86	230.42
758.19	230.23
758.51	229.99
758.84	229.70
759.17	229.46
759.49	229.30
759.82	229.23
760.15	229.08
760.47	228.88
760.80	228.62
761.13	228.47
761.45	228.31
761.78	228.13
762.11	227.95
762.43	227.80
762.76	227.63
763.08	227.50
763.41	227.40
763.74	227.26
764.06	227.10
764.39	226.98
764.71	226.84
765.04	226.67
765.37	226.56
765.69	226.38
766.02	226.23
766.34	226.11
766.67	225.87
767.00	225.76
767.32	225.76
767.65	225.75
767.97	225.58
768.30	225.49
768.62	225.39
768.95	225.24
769.27	225.13
769.60	225.04
769.92	224.88
770.25	224.69
770.57	224.54
770.90	224.43
771.22	224.29
771.55	224.22
771.87	224.10
772.20	223.97
772.52	224.04
772.85	224.16
773.17	224.01
773.50	223.90
773.82	223.75
774.15	223.54
774.47	223.34
774.80	223.21
775.12	223.08
775.45	222.97
775.77	222.89
776.09	222.80
776.42	222.69
776.74	222.67
777.07	222.57
777.39	222.50
777.72	222.38
778.04	222.35
778.36	222.21
778.69	222.14
779.01	222.05
779.33	221.80
779.66	221.48
779.98	221.42
780.31	221.34
780.63	221.35
780.95	221.33
781.28	221.26
781.60	221.19
781.92	221.11
782.25	221.07
782.57	220.98
782.89	220.87
783.22	220.80
783.54	220.68
783.86	220.67
784.19	220.58
784.51	220.60
784.83	220.49
785.16	220.46
785.48	220.40
785.80	220.36
786.12	220.31
786.45	220.25
786.77	220.19
787.09	220.10
787.42	219.96
787.74	219.92
788.06	219.84
788.38	219.75
788.71	219.68
789.03	219.59
789.35	219.56
789.67	219.50
789.99	219.46
790.32	219.37
790.64	219.29
790.96	219.43
791.28	219.29
791.61	219.24
791.93	219.21
792.25	219.13
792.57	219.22
792.89	219.11
793.21	219.10
793.54	219.03
793.86	218.97
794.18	218.92
794.50	218.80
794.82	218.77
795.14	218.77
795.47	218.75
795.79	218.73
796.11	218.67
796.43	218.60
796.75	218.56
797.07	218.52
797.39	218.48
797.71	218.26
798.04	218.24
798.36	218.23
798.68	218.17
799.00	218.13
799.32	218.01
799.64	218.04
799.96	217.99
800.28	218.00
800.60	217.94
800.92	217.93
801.24	217.89
801.56	217.87
801.89	217.81
802.21	217.79
802.53	217.69
802.85	217.69
803.17	217.78
803.49	217.69
803.81	217.64
804.13	217.60
804.45	217.56
804.77	217.52
805.09	217.47
805.41	217.42
805.73	217.35
806.05	217.24
806.37	217.17
806.69	217.11
807.01	217.06
807.33	217.07
807.65	216.99
807.97	217.11
808.28	217.06
808.60	217.03
808.92	216.97
809.24	217.09
809.56	217.06
809.88	216.96
810.20	216.96
810.52	216.99
810.84	216.95
811.16	216.90
811.48	216.87
811.80	216.93
812.12	216.89
812.43	216.90
812.75	216.90
813.07	216.84
813.39	216.82
813.71	216.78
814.03	216.72
814.35	216.72
814.67	216.58
814.98	216.52
815.30	216.49
815.62	216.45
815.94	216.30
816.26	216.26
816.58	216.20
816.89	216.17
817.21	216.10
817.53	216.09
817.85	216.08
818.17	216.01
818.48	215.91
818.80	215.95
819.12	215.92
819.44	215.87
819.76	215.84
820.07	215.81
820.39	215.81
820.71	215.81
821.03	215.80
821.34	215.75
821.66	215.75
821.98	215.77
822.30	215.74
822.61	215.85
822.93	215.82
823.25	215.78
823.57	215.76
823.88	215.78
824.20	215.75
824.52	215.79
824.83	215.84
825.15	215.81
825.47	215.78
825.79	215.77
826.10	215.71
826.42	215.73
826.74	215.76
827.05	215.73
827.37	215.73
827.69	215.69
828.00	215.75
828.32	215.76
828.64	215.72
828.95	215.85
829.27	215.79
829.58	215.79
829.90	215.83
830.22	215.84
830.53	215.78
830.85	215.76
831.17	215.71
831.48	215.67
831.80	215.65
832.11	215.61
832.43	215.58
832.75	215.58
833.06	215.68
833.38	215.62
833.69	215.60
834.01	215.58
834.32	215.57
834.64	215.51
834.96	215.49
835.27	215.47
835.59	215.35
835.90	215.30
836.22	215.27
836.53	215.22
836.85	215.18
837.16	215.39
837.48	215.42
837.79	215.46
838.11	215.47
838.42	215.46
838.74	215.48
839.05	215.45
839.37	215.47
839.68	215.35
840.00	215.31
840.31	215.32
840.63	215.28
840.94	215.26
841.26	215.22
841.57	215.23
841.88	215.26
842.20	215.23
842.51	215.17
842.83	215.18
843.14	215.37
843.46	215.37
843.77	215.21
844.08	215.17
844.40	215.08
844.71	215.02
845.03	215.01
845.34	215.01
845.65	215.02
845.97	214.99
846.28	214.99
846.60	215.01
846.91	214.99
847.22	215.02
847.54	215.04
847.85	215.04
848.16	215.00
848.48	214.92
848.79	215.01
849.10	215.03
849.42	215.04
849.73	214.85
850.04	214.82
850.36	214.76
850.67	214.77
850.98	214.78
851.30	214.82
851.61	214.81
851.92	214.79
852.23	214.83
852.55	214.85
852.86	214.83
853.17	214.85
853.49	214.88
853.80	214.88
854.11	214.90
854.42	214.91
854.74	214.89
855.05	214.92
855.36	214.80
855.67	214.80
855.99	214.79
856.30	215.04
856.61	215.03
856.92	215.04
857.23	215.03
857.55	215.03
857.86	215.03
858.17	215.04
858.48	215.01
858.79	214.96
859.11	214.96
859.42	214.95
859.73	214.93
860.04	214.91
860.35	214.89
860.66	214.82
860.98	214.82
861.29	214.85
861.60	214.85
861.91	214.91
862.22	214.88
862.53	214.86
862.84	214.61
863.16	214.67
863.47	214.66
863.78	214.66
864.09	214.68
864.40	214.67
864.71	214.67
865.02	214.72
865.33	214.68
865.64	214.63
865.95	214.63
866.27	214.79
866.58	214.77
866.89	214.78
867.20	214.76
867.51	214.70
867.82	214.66
868.13	214.70
868.44	214.65
868.75	214.65
869.06	214.66
869.37	214.67
869.68	214.59
869.99	214.57
870.30	214.58
870.61	214.58
870.92	214.54
871.23	214.50
871.54	214.48
871.85	214.53
872.16	214.55
872.47	214.56
872.78	214.39
873.09	214.44
873.40	214.42
873.71	214.44
874.02	214.48
874.33	214.48
874.64	214.46
874.95	214.47
875.26	214.45
875.56	214.43
875.87	214.41
876.18	214.43
876.49	214.64
876.80	214.63
877.11	214.61
877.42	214.65
877.73	214.67
878.04	214.65
878.35	214.66
878.66	214.68
878.96	214.65
879.27	214.65
879.58	214.61
879.89	214.59
880.20	214.64
880.51	214.62
880.82	214.60
881.12	214.63
881.43	214.58
881.74	214.58
882.05	214.55
882.36	214.60
882.67	214.60
882.97	214.41
883.28	214.39
883.59	214.38
883.90	214.37
884.21	214.38
884.51	214.39
884.82	214.37
885.13	214.38
885.44	214.36
885.74	214.37
886.05	214.34
886.36	214.36
886.67	214.30
886.98	214.41
887.28	214.44
887.59	214.41
887.90	214.44
888.20	214.40
888.51	214.47
888.82	214.44
889.13	214.45
889.43	214.61
889.74	214.58
890.05	214.58
890.35	214.54
890.66	214.53
890.97	214.49
891.28	214.49
891.58	214.47
891.89	214.50
892.20	214.48
892.50	214.48
892.81	214.47
893.12	214.46
893.42	214.33
893.73	214.31
894.04	214.30
894.34	214.31
894.65	214.32
894.95	214.26
895.26	214.25
895.57	214.35
895.87	214.12
896.18	214.12
896.48	214.14
896.79	214.13
897.10	214.13
897.40	214.16
897.71	214.18
898.01	214.15
898.32	214.20
898.63	214.19
898.93	214.20
899.24	214.22
899.54	214.22
899.85	214.23
900.15	214.23
900.46	214.22
900.76	214.25
901.07	214.27
901.38	214.27
901.68	214.27
901.99	214.14
902.29	214.17
902.60	214.18
902.90	214.16
903.21	214.16
903.51	214.16
903.82	214.20
904.12	214.19
904.43	214.22
904.73	214.17
905.03	214.15
905.34	214.34
905.64	214.31
905.95	214.28
906.25	214.31
906.56	214.30
906.86	214.30
907.17	214.26
907.47	214.28
907.77	214.25
908.08	214.23
908.38	214.25
908.69	214.28
908.99	214.33
909.30	214.34
909.60	214.35
909.90	214.36
910.21	214.28
910.51	214.22
910.81	214.23
911.12	214.24
911.42	214.24
911.73	214.03
912.03	214.03
912.33	214.09
912.64	214.07
912.94	214.06
913.24	214.03
913.55	214.02
913.85	213.98
914.15	214.05
914.46	214.10
914.76	214.08
915.06	214.07
915.37	214.02
915.67	214.02
915.97	214.00
916.27	213.93
916.58	213.97
916.88	213.99
917.18	213.94
917.49	214.08
917.79	214.10
918.09	214.12
918.39	214.14
918.70	214.13
919.00	214.16
919.30	214.28
919.60	214.26
919.91	214.27
920.21	214.31
920.51	214.28
920.81	214.24
921.12	214.28
921.42	214.26
921.72	214.28
922.02	214.28
922.32	214.32
922.63	214.34
922.93	214.44
923.23	214.44
923.53	214.43
923.83	214.31
924.13	214.32
924.44	214.31
924.74	214.36
925.04	214.37
925.34	214.35
925.64	214.25
925.94	214.26
926.24	214.36
926.55	214.31
926.85	214.31
927.15	214.31
927.45	214.29
927.75	214.30
928.05	214.30
928.35	214.29
928.65	214.30
928.95	214.30
929.26	214.22
929.56	214.26
929.86	214.26
930.16	214.25
930.46	214.23
930.76	214.25
931.06	214.17
931.36	214.13
931.66	214.15
931.96	214.16
932.26	214.23
932.56	214.16
932.86	214.17
933.16	214.16
933.46	214.15
933.76	214.10
934.06	214.16
934.36	214.24
934.66	214.21
934.96	214.19
935.26	214.21
935.56	214.25
935.86	214.19
936.16	214.19
936.46	214.19
936.76	214.18
937.06	214.14
937.36	214.14
937.66	214.16
937.96	214.14
938.26	214.12
938.56	214.04
938.86	214.03
939.16	214.09
939.46	214.11
939.76	214.09
940.06	214.13
940.35	214.06
940.65	213.94
940.95	213.93
941.25	213.87
941.55	213.87
941.85	213.83
942.15	213.91
942.45	213.95
942.75	213.92
943.04	213.93
943.34	213.97
943.64	213.94
943.94	213.93
944.24	213.94
944.54	213.94
944.84	213.94
945.13	213.89
945.43	213.83
945.73	213.79
946.03	213.76
946.33	213.74
946.62	213.75
946.92	213.74
947.22	213.80
947.52	213.83
947.82	213.83
948.11	213.81
948.41	213.76
948.71	213.71
949.01	213.74
949.31	213.72
949.60	213.71
949.90	213.78
950.20	213.77
950.50	213.77
950.79	213.75
951.09	213.79
951.39	213.83
951.69	213.82
951.98	213.90
952.28	213.93
952.58	213.94
952.87	213.94
953.17	213.98
953.47	213.92
953.76	213.94
954.06	213.91
954.36	213.88
954.66	213.87
954.95	213.93
955.25	213.93
955.55	213.97
955.84	213.92
956.14	213.93
956.44	213.93
956.73	213.88
957.03	213.90
957.32	213.89
957.62	213.86
957.92	213.90
958.21	213.88
958.51	214.14
958.81	214.16
959.10	214.19
959.40	214.22
959.69	214.27
959.99	214.28
960.29	214.28
960.58	214.31
960.88	214.42
961.17	214.38
961.47	214.40
961.76	214.35
962.06	214.41
962.36	214.35
962.65	214.34
962.95	214.39
963.24	214.38
963.54	214.40
963.83	214.43
964.13	214.43
964.42	214.37
964.72	214.19
965.01	214.17
965.31	214.14
965.60	214.08
965.90	214.19
966.19	214.17
966.49	214.18
966.78	214.16
967.08	214.12
967.37	214.12
967.67	214.08
967.96	214.14
968.26	214.10
968.55	214.15
968.85	214.17
969.14	214.17
969.43	214.12
969.73	214.11
970.02	214.10
970.32	214.07
970.61	214.04
970.91	213.97
971.20	213.93
971.49	213.91
971.79	213.95
972.08	213.82
972.38	213.83
972.67	213.82
972.96	213.85
973.26	213.80
973.55	213.85
973.85	213.81
974.14	213.80
974.43	213.81
974.73	213.80
975.02	213.79
975.31	213.80
975.61	213.81
975.90	213.80
976.19	213.78
976.49	213.81
976.78	213.85
977.07	213.88
977.37	213.91
977.66	213.97
977.95	213.92
978.24	213.93
978.54	213.98
978.83	213.98
979.12	213.93
979.42	213.93
979.71	213.93
980.00	213.91
980.29	213.89
980.59	213.86
980.88	213.89
981.17	213.87
981.46	213.86
981.76	213.86
982.05	213.90
982.34	213.92
982.63	213.91
982.93	213.92
983.22	213.95
983.51	213.95
983.80	213.96
984.09	214.00
984.39	213.98
984.68	213.93
984.97	213.95
985.26	213.99
985.55	214.00
985.85	213.95
986.14	214.00
986.43	214.04
986.72	214.02
987.01	213.98
987.30	213.97
987.59	213.95
987.89	213.96
988.18	213.91
988.47	213.90
988.76	213.88
989.05	213.85
989.34	213.82
989.63	213.88
989.92	213.85
990.22	213.83
990.51	213.83
990.80	213.83
991.09	213.83
991.38	213.83
991.67	213.81
991.96	213.83
992.25	213.86
992.54	213.83
992.83	213.84
993.12	213.84
993.41	213.89
993.70	213.98
993.99	213.99
994.28	214.03
994.58	214.06
994.87	214.04
995.16	214.04
995.45	214.04
995.74	213.96
996.03	213.98
996.32	214.04
996.61	214.09
996.90	214.07
997.19	214.07
997.48	214.09
997.77	214.07
998.06	214.01
998.34	213.97
998.63	213.96
998.92	213.99
999.21	214.01
999.50	213.98
999.79	213.90
1000.08	213.93
1000.37	213.96
1000.66	213.94
1000.95	214.01
1001.24	214.02
1001.53	214.04
1001.82	214.05
1002.11	213.99
1002.40	214.00
1002.68	214.05
1002.97	214.22
1003.26	214.19
1003.55	214.18
1003.84	214.22
1004.13	214.33
1004.42	214.33
1004.71	214.34
1004.99	214.34
1005.28	214.40
1005.57	214.39
1005.86	214.41
1006.15	214.38
1006.44	214.33
1006.72	214.32
1007.01	214.25
1007.30	214.27
1007.59	214.19
1007.88	214.19
1008.17	214.22
1008.45	214.18
1008.74	214.06
1009.03	213.93
1009.32	213.93
1009.60	213.89
1009.89	213.86
1010.18	213.80
1010.47	213.77
1010.76	213.79
1011.04	213.77
1011.33	213.78
1011.62	213.79
1011.91	213.80
1012.19	213.81
1012.48	213.82
1012.77	213.83
1013.05	213.97
1013.34	213.97
1013.63	214.01
1013.92	214.00
1014.20	213.98
1014.49	213.95
1014.78	213.99
1015.06	213.92
1015.35	213.91
1015.64	213.97
1015.92	214.01
1016.21	214.00
1016.50	214.02
1016.78	214.03
1017.07	214.08
1017.36	214.01
1017.64	213.97
1017.93	214.00
1018.22	213.95
1018.50	213.93
1018.79	213.92
1019.08	213.78
1019.36	213.78
1019.65	213.76
1019.93	213.80
1020.22	213.85
1020.51	213.94
1020.79	213.91
1021.08	212.98
1021.36	213.40
1021.65	213.83
1021.94	213.63
1022.22	213.85
1022.51	213.38
1022.79	214.56
1023.08	214.48
1023.36	215.64
1023.65	213.15
>>>>>End Processed Spectral Data<<<<<
