SpectraSuite Data File
++++++++++++++++++++++++++++++++++++
Date: Tue Jan 29 16:23:53 EST 2013
User: group
Dark Spectrum Present: No
Reference Spectrum Present: No
Number of Sampled Component Spectra: 1
Spectrometers: USB2E7196
Integration Time (usec): 65000 (USB2E7196)
Spectra Averaged: 100 (USB2E7196)
Boxcar Smoothing: 10 (USB2E7196)
Correct for Electrical Dark: No (USB2E7196)
Strobe/Lamp Enabled: No (USB2E7196)
Correct for Detector Non-linearity: No (USB2E7196)
Correct for Stray Light: No (USB2E7196)
Number of Pixels in Processed Spectrum: 2048
>>>>>Begin Processed Spectral Data<<<<<
339.09	0.00
339.48	202.09
339.86	202.92
340.24	205.07
340.63	206.55
341.01	210.85
341.39	209.63
341.78	211.45
342.16	211.75
342.54	212.43
342.93	201.47
343.31	211.67
343.69	212.25
344.07	212.74
344.46	213.19
344.84	213.58
345.22	213.75
345.60	214.01
345.99	214.17
346.37	214.32
346.75	214.42
347.13	214.53
347.52	214.61
347.90	214.71
348.28	214.73
348.66	214.82
349.05	214.81
349.43	214.87
349.81	214.95
350.19	214.98
350.57	215.03
350.96	215.11
351.34	215.19
351.72	215.27
352.10	215.39
352.48	215.46
352.87	215.50
353.25	215.61
353.63	215.65
354.01	215.73
354.39	215.80
354.77	215.89
355.15	216.02
355.54	216.05
355.92	216.08
356.30	216.16
356.68	216.36
357.06	216.42
357.44	216.46
357.82	216.50
358.20	216.61
358.58	216.67
358.97	216.73
359.35	216.87
359.73	216.95
360.11	216.99
360.49	217.04
360.87	217.11
361.25	217.14
361.63	217.26
362.01	217.29
362.39	217.34
362.77	217.37
363.15	217.39
363.53	217.43
363.91	217.48
364.29	217.50
364.67	217.31
365.05	217.34
365.43	217.37
365.81	217.42
366.19	217.49
366.57	217.57
366.95	217.59
367.33	217.51
367.71	217.52
368.09	217.57
368.47	217.59
368.85	217.57
369.23	217.62
369.61	217.55
369.99	217.62
370.37	217.64
370.75	217.72
371.13	217.67
371.51	217.63
371.89	217.62
372.27	217.62
372.65	217.61
373.03	217.57
373.41	217.54
373.78	217.49
374.16	217.35
374.54	217.25
374.92	217.20
375.30	217.19
375.68	217.10
376.06	217.04
376.44	216.98
376.82	216.97
377.19	216.92
377.57	216.86
377.95	216.74
378.33	216.67
378.71	216.50
379.09	216.49
379.47	216.44
379.84	216.35
380.22	216.28
380.60	216.18
380.98	216.12
381.36	216.05
381.73	215.99
382.11	215.99
382.49	215.97
382.87	215.88
383.25	215.82
383.62	216.03
384.00	215.95
384.38	215.93
384.76	215.89
385.13	215.91
385.51	215.87
385.89	215.82
386.27	215.79
386.64	215.78
387.02	215.69
387.40	215.70
387.78	215.70
388.15	215.69
388.53	215.68
388.91	215.65
389.29	215.63
389.66	215.66
390.04	215.62
390.42	215.62
390.79	215.64
391.17	215.62
391.55	215.40
391.92	215.38
392.30	215.41
392.68	215.39
393.05	215.37
393.43	215.35
393.81	215.38
394.18	215.34
394.56	215.33
394.94	215.39
395.31	215.35
395.69	215.40
396.06	215.41
396.44	215.44
396.82	215.47
397.19	215.59
397.57	215.60
397.95	215.64
398.32	215.63
398.70	215.66
399.07	215.76
399.45	215.78
399.82	215.85
400.20	215.86
400.58	215.90
400.95	215.87
401.33	215.99
401.70	216.18
402.08	216.28
402.45	216.39
402.83	216.52
403.20	216.64
403.58	216.73
403.95	216.91
404.33	217.08
404.71	217.21
405.08	217.45
405.46	217.64
405.83	217.85
406.21	218.03
406.58	218.26
406.96	218.48
407.33	218.74
407.70	219.04
408.08	219.50
408.45	219.89
408.83	220.31
409.20	220.66
409.58	220.93
409.95	221.40
410.33	221.88
410.70	222.31
411.08	222.85
411.45	223.44
411.82	223.99
412.20	224.65
412.57	225.50
412.95	226.10
413.32	226.89
413.69	227.70
414.07	228.62
414.44	229.59
414.82	230.58
415.19	231.76
415.56	232.94
415.94	234.09
416.31	235.47
416.68	236.84
417.06	238.43
417.43	240.00
417.81	241.71
418.18	243.45
418.55	245.36
418.93	247.40
419.30	249.49
419.67	251.73
420.04	254.05
420.42	256.40
420.79	259.17
421.16	261.99
421.54	264.87
421.91	267.82
422.28	270.91
422.66	274.18
423.03	277.43
423.40	280.78
423.77	284.38
424.15	288.03
424.52	291.86
424.89	295.98
425.26	300.02
425.64	303.88
426.01	308.22
426.38	312.66
426.75	317.17
427.13	321.85
427.50	326.81
427.87	331.91
428.24	337.10
428.61	342.08
428.99	347.56
429.36	353.57
429.73	359.44
430.10	365.33
430.47	371.39
430.85	377.62
431.22	384.30
431.59	391.36
431.96	398.13
432.33	405.60
432.70	412.83
433.08	421.31
433.45	429.32
433.82	437.27
434.19	446.09
434.56	454.77
434.93	463.08
435.30	471.30
435.68	480.40
436.05	489.28
436.42	498.14
436.79	506.19
437.16	514.90
437.53	524.16
437.90	533.25
438.27	542.16
438.64	551.36
439.01	559.85
439.38	567.41
439.75	574.72
440.13	583.08
440.50	590.97
440.87	597.34
441.24	603.98
441.61	611.18
441.98	616.52
442.35	622.80
442.72	629.09
443.09	635.10
443.46	638.82
443.83	641.35
444.20	643.50
444.57	646.66
444.94	648.10
445.31	649.59
445.68	650.84
446.05	651.41
446.42	650.58
446.79	649.53
447.16	648.41
447.53	647.54
447.90	644.19
448.27	640.87
448.64	636.25
449.01	632.93
449.37	627.05
449.74	621.39
450.11	614.42
450.48	607.03
450.85	599.54
451.22	593.12
451.59	587.04
451.96	581.26
452.33	573.39
452.70	566.27
453.07	557.72
453.43	549.19
453.80	540.96
454.17	533.07
454.54	525.60
454.91	517.44
455.28	509.56
455.65	502.23
456.02	494.83
456.38	488.54
456.75	480.67
457.12	474.21
457.49	467.79
457.86	461.70
458.23	456.36
458.59	450.55
458.96	444.54
459.33	439.30
459.70	433.90
460.07	429.70
460.43	424.89
460.80	420.34
461.17	416.40
461.54	412.24
461.91	408.25
462.27	404.17
462.64	400.79
463.01	397.03
463.38	393.36
463.74	389.71
464.11	386.54
464.48	383.80
464.85	380.66
465.21	378.20
465.58	375.63
465.95	372.50
466.32	369.90
466.68	367.34
467.05	364.73
467.42	362.26
467.78	359.58
468.15	357.05
468.52	355.17
468.88	352.70
469.25	350.53
469.62	348.74
469.98	346.81
470.35	345.00
470.72	343.34
471.08	341.54
471.45	340.02
471.82	338.49
472.18	336.81
472.55	335.69
472.92	334.33
473.28	333.15
473.65	332.05
474.02	330.90
474.38	330.02
474.75	329.24
475.11	328.40
475.48	327.84
475.85	327.36
476.21	326.88
476.58	326.52
476.94	326.32
477.31	326.00
477.67	325.77
478.04	325.63
478.41	325.63
478.77	325.78
479.14	325.71
479.50	325.82
479.87	326.10
480.23	326.46
480.60	326.73
480.96	326.97
481.33	327.57
481.69	328.14
482.06	328.73
482.42	329.27
482.79	329.90
483.15	330.69
483.52	331.69
483.88	332.57
484.25	333.52
484.61	334.49
484.98	335.55
485.34	336.89
485.71	338.25
486.07	339.66
486.44	341.04
486.80	342.71
487.17	344.40
487.53	346.28
487.90	348.11
488.26	350.16
488.62	352.34
488.99	354.39
489.35	356.60
489.72	358.95
490.08	361.46
490.44	364.05
490.81	366.77
491.17	369.43
491.54	372.43
491.90	375.51
492.26	378.79
492.63	382.20
492.99	385.67
493.36	389.36
493.72	393.28
494.08	397.29
494.45	401.48
494.81	405.90
495.17	410.27
495.54	415.03
495.90	419.85
496.26	424.77
496.63	430.01
496.99	435.42
497.35	441.01
497.72	446.82
498.08	452.72
498.44	458.91
498.80	465.38
499.17	471.88
499.53	478.64
499.89	485.54
500.26	492.59
500.62	499.72
500.98	507.16
501.34	514.65
501.71	522.46
502.07	530.33
502.43	538.34
502.79	546.60
503.16	554.99
503.52	563.62
503.88	572.48
504.24	581.47
504.60	590.59
504.97	599.87
505.33	609.19
505.69	619.18
506.05	629.16
506.41	639.12
506.78	649.32
507.14	659.59
507.50	670.19
507.86	680.96
508.22	691.82
508.59	702.61
508.95	713.79
509.31	725.11
509.67	736.68
510.03	748.19
510.39	760.03
510.75	771.98
511.12	784.01
511.48	796.08
511.84	808.45
512.20	820.98
512.56	833.75
512.92	846.71
513.28	859.48
513.64	872.32
514.00	885.26
514.37	898.37
514.73	911.64
515.09	924.76
515.45	937.72
515.81	950.87
516.17	964.34
516.53	977.67
516.89	990.89
517.25	1004.20
517.61	1017.78
517.97	1031.36
518.33	1044.67
518.69	1058.36
519.05	1072.29
519.41	1086.09
519.77	1099.96
520.13	1113.30
520.49	1126.65
520.85	1140.21
521.21	1153.62
521.57	1167.40
521.93	1180.52
522.29	1194.42
522.65	1208.17
523.01	1221.97
523.37	1235.32
523.73	1248.83
524.09	1262.04
524.45	1275.60
524.81	1289.19
525.17	1302.82
525.53	1316.05
525.89	1329.43
526.25	1342.70
526.61	1355.62
526.97	1368.89
527.33	1382.06
527.68	1395.77
528.04	1409.40
528.40	1422.52
528.76	1436.06
529.12	1449.11
529.48	1462.57
529.84	1474.85
530.20	1487.58
530.56	1500.29
530.91	1513.62
531.27	1526.46
531.63	1539.40
531.99	1552.23
532.35	1564.56
532.71	1576.86
533.07	1589.94
533.42	1602.27
533.78	1614.53
534.14	1626.78
534.50	1638.06
534.86	1649.72
535.21	1660.59
535.57	1672.09
535.93	1683.53
536.29	1694.62
536.65	1706.08
537.00	1717.12
537.36	1728.79
537.72	1739.83
538.08	1751.31
538.44	1762.35
538.79	1773.59
539.15	1784.56
539.51	1795.44
539.87	1806.72
540.22	1817.57
540.58	1828.47
540.94	1839.54
541.29	1849.85
541.65	1859.72
542.01	1870.29
542.37	1880.36
542.72	1890.56
543.08	1900.47
543.44	1911.07
543.79	1920.40
544.15	1930.03
544.51	1940.02
544.87	1949.71
545.22	1959.17
545.58	1968.06
545.94	1977.02
546.29	1985.57
546.65	1993.99
547.01	2002.22
547.36	2009.98
547.72	2017.99
548.07	2025.44
548.43	2033.15
548.79	2040.86
549.14	2048.91
549.50	2057.36
549.86	2065.42
550.21	2073.12
550.57	2080.83
550.92	2087.44
551.28	2095.02
551.64	2102.18
551.99	2109.71
552.35	2117.01
552.70	2123.92
553.06	2130.70
553.41	2137.09
553.77	2143.56
554.13	2150.09
554.48	2157.20
554.84	2164.42
555.19	2171.03
555.55	2177.66
555.90	2184.15
556.26	2191.18
556.61	2197.38
556.97	2202.26
557.32	2207.98
557.68	2214.25
558.03	2220.06
558.39	2225.68
558.74	2231.76
559.10	2237.42
559.45	2243.23
559.81	2248.76
560.16	2254.27
560.52	2260.14
560.87	2266.50
561.23	2272.48
561.58	2279.03
561.94	2284.44
562.29	2289.21
562.64	2295.32
563.00	2301.07
563.35	2306.63
563.71	2312.30
564.06	2318.00
564.42	2324.25
564.77	2329.28
565.12	2334.69
565.48	2339.87
565.83	2345.35
566.19	2350.74
566.54	2356.10
566.89	2360.63
567.25	2365.41
567.60	2371.14
567.96	2376.33
568.31	2381.10
568.66	2385.57
569.02	2389.63
569.37	2393.42
569.72	2397.83
570.08	2401.48
570.43	2404.79
570.78	2408.01
571.14	2410.60
571.49	2413.83
571.84	2417.29
572.20	2420.47
572.55	2423.52
572.90	2425.93
573.26	2428.74
573.61	2431.47
573.96	2433.86
574.31	2435.90
574.67	2437.69
575.02	2438.73
575.37	2440.26
575.72	2440.94
576.08	2442.38
576.43	2442.57
576.78	2442.90
577.13	2444.57
577.49	2445.78
577.84	2446.68
578.19	2448.00
578.54	2448.67
578.90	2449.32
579.25	2449.30
579.60	2449.23
579.95	2448.43
580.30	2448.40
580.66	2447.78
581.01	2446.10
581.36	2443.67
581.71	2442.41
582.06	2441.51
582.42	2440.66
582.77	2438.47
583.12	2436.95
583.47	2435.60
583.82	2435.01
584.17	2433.92
584.53	2431.90
584.88	2429.93
585.23	2428.18
585.58	2425.91
585.93	2424.23
586.28	2422.25
586.63	2419.86
586.98	2417.73
587.34	2415.92
587.69	2413.63
588.04	2411.63
588.39	2410.32
588.74	2407.84
589.09	2405.18
589.44	2402.05
589.79	2399.50
590.14	2397.58
590.49	2394.75
590.84	2390.96
591.19	2387.92
591.54	2384.77
591.89	2380.79
592.25	2377.40
592.60	2373.28
592.95	2369.24
593.30	2364.97
593.65	2360.59
594.00	2356.10
594.35	2353.21
594.70	2348.55
595.05	2344.00
595.40	2338.54
595.75	2332.71
596.10	2329.33
596.45	2324.48
596.80	2319.87
597.15	2314.67
597.50	2308.70
597.85	2303.89
598.19	2298.66
598.54	2293.00
598.89	2287.70
599.24	2283.10
599.59	2276.93
599.94	2271.03
600.29	2265.00
600.64	2259.02
600.99	2252.18
601.34	2246.56
601.69	2239.35
602.04	2232.83
602.39	2226.16
602.74	2220.05
603.08	2214.46
603.43	2207.73
603.78	2200.88
604.13	2193.78
604.48	2186.41
604.83	2180.21
605.18	2173.83
605.53	2166.95
605.87	2159.78
606.22	2153.14
606.57	2145.20
606.92	2137.14
607.27	2130.20
607.62	2123.41
607.96	2116.38
608.31	2109.92
608.66	2102.26
609.01	2094.63
609.36	2087.56
609.70	2079.80
610.05	2071.96
610.40	2063.51
610.75	2055.09
611.10	2047.15
611.44	2038.09
611.79	2029.40
612.14	2019.48
612.49	2008.68
612.83	1999.25
613.18	1989.85
613.53	1980.12
613.88	1970.38
614.22	1961.69
614.57	1951.70
614.92	1941.24
615.27	1930.83
615.61	1920.44
615.96	1910.66
616.31	1900.98
616.65	1891.48
617.00	1881.61
617.35	1871.81
617.70	1861.94
618.04	1851.90
618.39	1841.61
618.74	1831.85
619.08	1822.02
619.43	1813.19
619.78	1804.84
620.12	1796.23
620.47	1786.69
620.82	1776.42
621.16	1766.54
621.51	1756.56
621.85	1746.72
622.20	1736.18
622.55	1725.57
622.89	1715.69
623.24	1705.95
623.59	1696.07
623.93	1685.74
624.28	1675.79
624.62	1665.64
624.97	1655.38
625.32	1645.42
625.66	1636.56
626.01	1627.78
626.35	1618.40
626.70	1608.23
627.04	1598.11
627.39	1587.70
627.73	1578.17
628.08	1569.20
628.43	1559.57
628.77	1550.28
629.12	1541.20
629.46	1533.17
629.81	1524.84
630.15	1515.22
630.50	1505.22
630.84	1494.52
631.19	1484.51
631.53	1475.14
631.88	1464.93
632.22	1454.72
632.57	1445.33
632.91	1435.06
633.26	1425.04
633.60	1415.36
633.95	1406.05
634.29	1396.35
634.64	1386.97
634.98	1376.94
635.32	1367.45
635.67	1358.81
636.01	1349.39
636.36	1339.63
636.70	1329.95
637.05	1320.38
637.39	1311.28
637.73	1302.55
638.08	1294.86
638.42	1286.66
638.77	1277.80
639.11	1269.34
639.45	1261.51
639.80	1252.86
640.14	1244.04
640.49	1235.03
640.83	1226.08
641.17	1217.74
641.52	1209.62
641.86	1200.92
642.20	1192.93
642.55	1184.12
642.89	1175.09
643.23	1166.33
643.58	1158.03
643.92	1148.99
644.26	1140.11
644.61	1131.56
644.95	1122.69
645.29	1113.36
645.64	1103.94
645.98	1095.25
646.32	1087.27
646.66	1078.61
647.01	1070.08
647.35	1061.72
647.69	1053.41
648.04	1044.93
648.38	1035.93
648.72	1026.96
649.06	1018.41
649.41	1010.00
649.75	1001.98
650.09	994.08
650.43	985.90
650.78	977.40
651.12	969.58
651.46	962.11
651.80	954.75
652.14	947.26
652.49	939.63
652.83	932.23
653.17	924.47
653.51	916.70
653.85	909.49
654.20	902.21
654.54	894.80
654.88	887.38
655.22	880.10
655.56	873.04
655.90	866.15
656.25	859.31
656.59	852.41
656.93	845.37
657.27	838.11
657.61	831.06
657.95	824.89
658.29	818.74
658.64	812.53
658.98	806.08
659.32	799.51
659.66	793.28
660.00	786.97
660.34	780.94
660.68	774.74
661.02	768.29
661.36	762.19
661.70	756.23
662.05	750.52
662.39	744.99
662.73	739.56
663.07	734.13
663.41	728.48
663.75	722.70
664.09	716.91
664.43	711.45
664.77	706.04
665.11	700.16
665.45	694.30
665.79	688.36
666.13	682.53
666.47	676.91
666.81	671.32
667.15	665.81
667.49	660.41
667.83	655.15
668.17	649.81
668.51	644.63
668.85	639.65
669.19	634.68
669.53	629.61
669.87	624.40
670.21	619.58
670.55	614.85
670.89	610.42
671.23	606.02
671.57	601.57
671.91	597.24
672.25	593.03
672.58	588.83
672.92	584.76
673.26	580.77
673.60	576.86
673.94	573.00
674.28	569.37
674.62	565.61
674.96	561.76
675.30	558.15
675.64	554.45
675.97	550.78
676.31	547.14
676.65	543.46
676.99	539.98
677.33	536.09
677.67	532.39
678.01	528.40
678.34	524.75
678.68	521.13
679.02	517.45
679.36	513.76
679.70	510.06
680.04	506.45
680.37	502.92
680.71	499.53
681.05	496.26
681.39	492.90
681.73	489.67
682.06	486.62
682.40	483.56
682.74	480.29
683.08	477.14
683.42	473.88
683.75	470.79
684.09	467.71
684.43	464.80
684.77	461.78
685.10	458.94
685.44	455.95
685.78	453.02
686.12	450.19
686.45	447.39
686.79	444.64
687.13	442.04
687.46	439.38
687.80	436.70
688.14	433.86
688.48	431.20
688.81	428.56
689.15	425.97
689.49	423.27
689.82	420.70
690.16	418.00
690.50	415.54
690.83	413.02
691.17	410.43
691.51	407.90
691.84	405.61
692.18	403.34
692.52	401.12
692.85	398.94
693.19	396.74
693.52	394.55
693.86	392.36
694.20	390.16
694.53	387.93
694.87	385.76
695.21	383.61
695.54	381.43
695.88	379.21
696.21	376.99
696.55	374.81
696.88	372.72
697.22	370.76
697.56	368.86
697.89	366.96
698.23	365.17
698.56	363.37
698.90	361.62
699.23	359.66
699.57	357.76
699.90	355.87
700.24	354.05
700.58	352.30
700.91	350.56
701.25	348.98
701.58	347.42
701.92	345.77
702.25	344.17
702.59	342.50
702.92	340.93
703.26	339.34
703.59	337.89
703.93	336.64
704.26	335.19
704.60	333.63
704.93	332.14
705.26	330.62
705.60	329.13
705.93	327.58
706.27	326.23
706.60	324.94
706.94	323.70
707.27	322.31
707.61	320.93
707.94	319.60
708.27	318.05
708.61	316.55
708.94	315.16
709.28	313.84
709.61	312.61
709.94	311.36
710.28	310.11
710.61	308.87
710.95	307.42
711.28	306.30
711.61	305.08
711.95	303.94
712.28	302.78
712.61	301.58
712.95	300.54
713.28	299.52
713.61	298.35
713.95	297.21
714.28	296.18
714.61	295.14
714.95	294.12
715.28	293.11
715.61	292.10
715.95	291.15
716.28	290.19
716.61	289.23
716.95	288.24
717.28	287.28
717.61	286.34
717.94	285.41
718.28	284.36
718.61	283.47
718.94	282.56
719.27	281.67
719.61	280.86
719.94	280.01
720.27	279.04
720.60	278.17
720.94	277.36
721.27	276.58
721.60	275.85
721.93	275.13
722.27	274.49
722.60	273.82
722.93	273.07
723.26	272.39
723.59	271.65
723.93	270.99
724.26	270.34
724.59	269.68
724.92	269.07
725.25	268.56
725.59	268.01
725.92	267.46
726.25	266.88
726.58	266.29
726.91	265.67
727.24	265.12
727.57	264.59
727.91	263.97
728.24	263.46
728.57	262.87
728.90	262.30
729.23	261.67
729.56	261.21
729.89	260.65
730.22	260.07
730.55	259.59
730.89	259.04
731.22	258.56
731.55	258.00
731.88	257.54
732.21	256.96
732.54	256.39
732.87	255.84
733.20	255.35
733.53	254.87
733.86	254.40
734.19	253.87
734.52	253.44
734.85	253.14
735.18	252.61
735.51	252.23
735.84	251.81
736.17	251.41
736.50	250.88
736.83	250.75
737.16	250.37
737.49	249.95
737.82	249.53
738.15	249.12
738.48	248.74
738.81	248.31
739.14	247.90
739.47	247.53
739.80	247.15
740.13	246.80
740.46	246.42
740.79	245.99
741.12	245.65
741.45	245.24
741.78	244.82
742.11	244.54
742.44	244.14
742.77	243.80
743.10	243.49
743.43	243.16
743.75	242.59
744.08	242.52
744.41	242.13
744.74	241.82
745.07	241.46
745.40	241.19
745.73	240.89
746.06	240.54
746.39	240.26
746.71	239.94
747.04	239.56
747.37	239.24
747.70	239.01
748.03	238.68
748.36	238.38
748.68	238.04
749.01	237.69
749.34	237.41
749.67	237.11
750.00	236.83
750.33	236.68
750.65	236.41
750.98	235.88
751.31	235.66
751.64	235.41
751.97	235.29
752.29	234.98
752.62	234.65
752.95	234.43
753.28	234.15
753.60	233.91
753.93	233.76
754.26	233.51
754.59	233.21
754.91	232.98
755.24	232.77
755.57	232.53
755.90	232.28
756.22	232.05
756.55	231.82
756.88	231.55
757.20	231.20
757.53	230.96
757.86	230.75
758.19	230.57
758.51	230.37
758.84	230.07
759.17	229.91
759.49	229.75
759.82	229.65
760.15	229.49
760.47	229.32
760.80	229.09
761.13	228.92
761.45	228.72
761.78	228.54
762.11	228.33
762.43	228.11
762.76	227.95
763.08	227.80
763.41	227.66
763.74	227.53
764.06	227.39
764.39	227.21
764.71	227.05
765.04	226.87
765.37	226.75
765.69	226.57
766.02	226.42
766.34	226.28
766.67	226.06
767.00	225.95
767.32	225.92
767.65	225.88
767.97	225.76
768.30	225.69
768.62	225.60
768.95	225.46
769.27	225.37
769.60	225.26
769.92	225.09
770.25	224.93
770.57	224.75
770.90	224.60
771.22	224.45
771.55	224.32
771.87	224.19
772.20	224.01
772.52	224.11
772.85	224.23
773.17	224.12
773.50	223.99
773.82	223.83
774.15	223.64
774.47	223.43
774.80	223.30
775.12	223.15
775.45	223.02
775.77	222.96
776.09	222.86
776.42	222.80
776.74	222.77
777.07	222.68
777.39	222.61
777.72	222.53
778.04	222.51
778.36	222.44
778.69	222.39
779.01	222.35
779.33	222.09
779.66	221.75
779.98	221.65
780.31	221.59
780.63	221.62
780.95	221.58
781.28	221.48
781.60	221.41
781.92	221.37
782.25	221.30
782.57	221.25
782.89	221.17
783.22	221.09
783.54	220.98
783.86	220.90
784.19	220.83
784.51	220.82
784.83	220.69
785.16	220.62
785.48	220.57
785.80	220.48
786.12	220.44
786.45	220.39
786.77	220.36
787.09	220.26
787.42	220.14
787.74	220.06
788.06	220.02
788.38	219.93
788.71	219.85
789.03	219.80
789.35	219.77
789.67	219.72
789.99	219.68
790.32	219.61
790.64	219.59
790.96	219.72
791.28	219.60
791.61	219.55
791.93	219.51
792.25	219.44
792.57	219.57
792.89	219.47
793.21	219.45
793.54	219.39
793.86	219.32
794.18	219.25
794.50	219.16
794.82	219.12
795.14	219.13
795.47	219.14
795.79	219.10
796.11	219.00
796.43	218.95
796.75	218.87
797.07	218.84
797.39	218.81
797.71	218.61
798.04	218.60
798.36	218.59
798.68	218.55
799.00	218.54
799.32	218.36
799.64	218.37
799.96	218.31
800.28	218.34
800.60	218.30
800.92	218.29
801.24	218.27
801.56	218.28
801.89	218.20
802.21	218.16
802.53	218.09
802.85	218.10
803.17	218.15
803.49	218.12
803.81	218.09
804.13	218.03
804.45	217.95
804.77	217.89
805.09	217.86
805.41	217.81
805.73	217.76
806.05	217.70
806.37	217.66
806.69	217.61
807.01	217.54
807.33	217.57
807.65	217.48
807.97	217.55
808.28	217.52
808.60	217.53
808.92	217.47
809.24	217.60
809.56	217.54
809.88	217.45
810.20	217.44
810.52	217.43
810.84	217.38
811.16	217.36
811.48	217.36
811.80	217.39
812.12	217.35
812.43	217.34
812.75	217.32
813.07	217.27
813.39	217.27
813.71	217.23
814.03	217.17
814.35	217.15
814.67	217.03
814.98	216.96
815.30	216.93
815.62	216.89
815.94	216.71
816.26	216.72
816.58	216.65
816.89	216.63
817.21	216.59
817.53	216.60
817.85	216.60
818.17	216.54
818.48	216.44
818.80	216.46
819.12	216.45
819.44	216.39
819.76	216.37
820.07	216.32
820.39	216.28
820.71	216.26
821.03	216.26
821.34	216.20
821.66	216.23
821.98	216.23
822.30	216.23
822.61	216.33
822.93	216.26
823.25	216.23
823.57	216.19
823.88	216.19
824.20	216.17
824.52	216.18
824.83	216.20
825.15	216.18
825.47	216.16
825.79	216.12
826.10	216.10
826.42	216.03
826.74	216.08
827.05	216.07
827.37	216.05
827.69	216.04
828.00	216.03
828.32	216.00
828.64	215.94
828.95	215.99
829.27	215.94
829.58	215.93
829.90	215.96
830.22	215.98
830.53	215.91
830.85	215.87
831.17	215.79
831.48	215.77
831.80	215.77
832.11	215.76
832.43	215.71
832.75	215.68
833.06	215.82
833.38	215.72
833.69	215.69
834.01	215.71
834.32	215.69
834.64	215.69
834.96	215.63
835.27	215.61
835.59	215.55
835.90	215.47
836.22	215.43
836.53	215.38
836.85	215.35
837.16	215.55
837.48	215.59
837.79	215.66
838.11	215.68
838.42	215.69
838.74	215.69
839.05	215.69
839.37	215.68
839.68	215.55
840.00	215.53
840.31	215.59
840.63	215.58
840.94	215.55
841.26	215.54
841.57	215.57
841.88	215.62
842.20	215.56
842.51	215.55
842.83	215.57
843.14	215.75
843.46	215.74
843.77	215.61
844.08	215.58
844.40	215.53
844.71	215.47
845.03	215.45
845.34	215.44
845.65	215.44
845.97	215.48
846.28	215.47
846.60	215.49
846.91	215.43
847.22	215.41
847.54	215.44
847.85	215.44
848.16	215.41
848.48	215.39
848.79	215.48
849.10	215.50
849.42	215.52
849.73	215.32
850.04	215.31
850.36	215.24
850.67	215.28
850.98	215.28
851.30	215.30
851.61	215.28
851.92	215.26
852.23	215.31
852.55	215.29
852.86	215.32
853.17	215.36
853.49	215.41
853.80	215.45
854.11	215.49
854.42	215.50
854.74	215.51
855.05	215.50
855.36	215.40
855.67	215.45
855.99	215.44
856.30	215.65
856.61	215.63
856.92	215.60
857.23	215.58
857.55	215.55
857.86	215.54
858.17	215.59
858.48	215.56
858.79	215.53
859.11	215.54
859.42	215.51
859.73	215.43
860.04	215.41
860.35	215.32
860.66	215.22
860.98	215.19
861.29	215.18
861.60	215.18
861.91	215.23
862.22	215.17
862.53	215.12
862.84	214.89
863.16	214.92
863.47	214.91
863.78	214.86
864.09	214.88
864.40	214.87
864.71	214.86
865.02	214.87
865.33	214.84
865.64	214.81
865.95	214.83
866.27	214.98
866.58	214.96
866.89	215.01
867.20	215.00
867.51	214.96
867.82	214.93
868.13	214.96
868.44	214.90
868.75	214.93
869.06	214.96
869.37	214.99
869.68	214.96
869.99	214.99
870.30	215.03
870.61	215.02
870.92	214.99
871.23	214.96
871.54	214.98
871.85	215.04
872.16	215.06
872.47	215.03
872.78	214.92
873.09	214.92
873.40	214.88
873.71	214.91
874.02	214.94
874.33	214.94
874.64	214.89
874.95	214.92
875.26	214.88
875.56	214.85
875.87	214.87
876.18	214.85
876.49	215.07
876.80	215.00
877.11	214.98
877.42	214.98
877.73	215.00
878.04	214.97
878.35	214.94
878.66	214.92
878.96	214.90
879.27	214.89
879.58	214.85
879.89	214.86
880.20	214.91
880.51	214.88
880.82	214.88
881.12	214.88
881.43	214.85
881.74	214.83
882.05	214.82
882.36	214.81
882.67	214.85
882.97	214.58
883.28	214.60
883.59	214.60
883.90	214.64
884.21	214.65
884.51	214.64
884.82	214.64
885.13	214.62
885.44	214.64
885.74	214.63
886.05	214.61
886.36	214.66
886.67	214.58
886.98	214.69
887.28	214.73
887.59	214.77
887.90	214.78
888.20	214.79
888.51	214.85
888.82	214.82
889.13	214.82
889.43	214.98
889.74	214.97
890.05	214.93
890.35	214.90
890.66	214.87
890.97	214.83
891.28	214.79
891.58	214.82
891.89	214.82
892.20	214.79
892.50	214.81
892.81	214.76
893.12	214.77
893.42	214.66
893.73	214.65
894.04	214.64
894.34	214.65
894.65	214.63
894.95	214.56
895.26	214.58
895.57	214.67
895.87	214.50
896.18	214.51
896.48	214.60
896.79	214.56
897.10	214.61
897.40	214.62
897.71	214.68
898.01	214.65
898.32	214.66
898.63	214.64
898.93	214.63
899.24	214.62
899.54	214.61
899.85	214.64
900.15	214.62
900.46	214.59
900.76	214.64
901.07	214.62
901.38	214.61
901.68	214.64
901.99	214.50
902.29	214.51
902.60	214.50
902.90	214.45
903.21	214.46
903.51	214.43
903.82	214.49
904.12	214.51
904.43	214.50
904.73	214.51
905.03	214.54
905.34	214.76
905.64	214.78
905.95	214.81
906.25	214.78
906.56	214.80
906.86	214.81
907.17	214.77
907.47	214.81
907.77	214.81
908.08	214.75
908.38	214.80
908.69	214.82
908.99	214.84
909.30	214.88
909.60	214.86
909.90	214.87
910.21	214.79
910.51	214.70
910.81	214.70
911.12	214.68
911.42	214.68
911.73	214.48
912.03	214.47
912.33	214.49
912.64	214.48
912.94	214.45
913.24	214.42
913.55	214.41
913.85	214.42
914.15	214.47
914.46	214.54
914.76	214.49
915.06	214.49
915.37	214.47
915.67	214.46
915.97	214.47
916.27	214.45
916.58	214.51
916.88	214.54
917.18	214.54
917.49	214.71
917.79	214.71
918.09	214.73
918.39	214.79
918.70	214.76
919.00	214.78
919.30	214.87
919.60	214.87
919.91	214.81
920.21	214.84
920.51	214.75
920.81	214.70
921.12	214.77
921.42	214.78
921.72	214.80
922.02	214.79
922.32	214.81
922.63	214.79
922.93	214.87
923.23	214.88
923.53	214.85
923.83	214.68
924.13	214.69
924.44	214.69
924.74	214.70
925.04	214.74
925.34	214.73
925.64	214.63
925.94	214.63
926.24	214.78
926.55	214.76
926.85	214.83
927.15	214.83
927.45	214.80
927.75	214.79
928.05	214.79
928.35	214.76
928.65	214.81
928.95	214.87
929.26	214.77
929.56	214.78
929.86	214.83
930.16	214.81
930.46	214.76
930.76	214.77
931.06	214.67
931.36	214.62
931.66	214.66
931.96	214.70
932.26	214.67
932.56	214.54
932.86	214.53
933.16	214.50
933.46	214.48
933.76	214.44
934.06	214.48
934.36	214.54
934.66	214.56
934.96	214.51
935.26	214.51
935.56	214.56
935.86	214.55
936.16	214.51
936.46	214.51
936.76	214.54
937.06	214.51
937.36	214.56
937.66	214.55
937.96	214.55
938.26	214.53
938.56	214.54
938.86	214.57
939.16	214.61
939.46	214.64
939.76	214.65
940.06	214.67
940.35	214.60
940.65	214.51
940.95	214.47
941.25	214.45
941.55	214.40
941.85	214.39
942.15	214.40
942.45	214.46
942.75	214.47
943.04	214.44
943.34	214.51
943.64	214.48
943.94	214.50
944.24	214.47
944.54	214.47
944.84	214.48
945.13	214.48
945.43	214.44
945.73	214.41
946.03	214.40
946.33	214.37
946.62	214.37
946.92	214.36
947.22	214.41
947.52	214.41
947.82	214.41
948.11	214.37
948.41	214.34
948.71	214.27
949.01	214.28
949.31	214.27
949.60	214.22
949.90	214.26
950.20	214.24
950.50	214.22
950.79	214.19
951.09	214.22
951.39	214.20
951.69	214.18
951.98	214.22
952.28	214.24
952.58	214.24
952.87	214.23
953.17	214.24
953.47	214.22
953.76	214.24
954.06	214.22
954.36	214.17
954.66	214.17
954.95	214.22
955.25	214.24
955.55	214.26
955.84	214.23
956.14	214.25
956.44	214.30
956.73	214.27
957.03	214.30
957.32	214.32
957.62	214.31
957.92	214.36
958.21	214.32
958.51	214.57
958.81	214.64
959.10	214.71
959.40	214.77
959.69	214.80
959.99	214.83
960.29	214.84
960.58	214.87
960.88	214.97
961.17	215.00
961.47	215.00
961.76	214.97
962.06	215.03
962.36	214.98
962.65	214.95
962.95	214.99
963.24	214.98
963.54	214.97
963.83	214.98
964.13	214.97
964.42	214.92
964.72	214.71
965.01	214.70
965.31	214.66
965.60	214.61
965.90	214.71
966.19	214.65
966.49	214.66
966.78	214.65
967.08	214.61
967.37	214.59
967.67	214.57
967.96	214.64
968.26	214.61
968.55	214.63
968.85	214.66
969.14	214.65
969.43	214.64
969.73	214.63
970.02	214.61
970.32	214.60
970.61	214.60
970.91	214.54
971.20	214.51
971.49	214.48
971.79	214.49
972.08	214.34
972.38	214.35
972.67	214.37
972.96	214.40
973.26	214.36
973.55	214.40
973.85	214.38
974.14	214.33
974.43	214.36
974.73	214.35
975.02	214.30
975.31	214.31
975.61	214.32
975.90	214.27
976.19	214.28
976.49	214.29
976.78	214.31
977.07	214.31
977.37	214.32
977.66	214.37
977.95	214.34
978.24	214.38
978.54	214.44
978.83	214.38
979.12	214.36
979.42	214.34
979.71	214.32
980.00	214.32
980.29	214.35
980.59	214.30
980.88	214.33
981.17	214.32
981.46	214.31
981.76	214.31
982.05	214.37
982.34	214.36
982.63	214.37
982.93	214.37
983.22	214.42
983.51	214.41
983.80	214.42
984.09	214.46
984.39	214.43
984.68	214.41
984.97	214.44
985.26	214.43
985.55	214.46
985.85	214.39
986.14	214.42
986.43	214.43
986.72	214.42
987.01	214.34
987.30	214.35
987.59	214.34
987.89	214.34
988.18	214.31
988.47	214.30
988.76	214.28
989.05	214.30
989.34	214.25
989.63	214.35
989.92	214.30
990.22	214.26
990.51	214.28
990.80	214.26
991.09	214.27
991.38	214.31
991.67	214.29
991.96	214.30
992.25	214.28
992.54	214.27
992.83	214.28
993.12	214.31
993.41	214.36
993.70	214.46
993.99	214.48
994.28	214.49
994.58	214.50
994.87	214.48
995.16	214.42
995.45	214.44
995.74	214.34
996.03	214.35
996.32	214.41
996.61	214.41
996.90	214.38
997.19	214.37
997.48	214.36
997.77	214.31
998.06	214.30
998.34	214.31
998.63	214.29
998.92	214.29
999.21	214.30
999.50	214.28
999.79	214.19
1000.08	214.18
1000.37	214.21
1000.66	214.20
1000.95	214.29
1001.24	214.34
1001.53	214.33
1001.82	214.36
1002.11	214.33
1002.40	214.32
1002.68	214.38
1002.97	214.57
1003.26	214.57
1003.55	214.53
1003.84	214.56
1004.13	214.68
1004.42	214.66
1004.71	214.67
1004.99	214.69
1005.28	214.76
1005.57	214.73
1005.86	214.75
1006.15	214.73
1006.44	214.66
1006.72	214.69
1007.01	214.60
1007.30	214.58
1007.59	214.57
1007.88	214.56
1008.17	214.57
1008.45	214.56
1008.74	214.45
1009.03	214.32
1009.32	214.34
1009.60	214.37
1009.89	214.36
1010.18	214.27
1010.47	214.27
1010.76	214.25
1011.04	214.24
1011.33	214.24
1011.62	214.27
1011.91	214.26
1012.19	214.26
1012.48	214.30
1012.77	214.31
1013.05	214.44
1013.34	214.46
1013.63	214.46
1013.92	214.46
1014.20	214.44
1014.49	214.44
1014.78	214.49
1015.06	214.44
1015.35	214.42
1015.64	214.42
1015.92	214.44
1016.21	214.42
1016.50	214.43
1016.78	214.45
1017.07	214.48
1017.36	214.45
1017.64	214.40
1017.93	214.46
1018.22	214.44
1018.50	214.43
1018.79	214.40
1019.08	214.29
1019.36	214.29
1019.65	214.29
1019.93	214.33
1020.22	214.36
1020.51	214.49
1020.79	214.44
1021.08	213.86
1021.36	214.14
1021.65	214.25
1021.94	214.30
1022.22	214.49
1022.51	214.04
1022.79	214.96
1023.08	214.52
1023.36	217.18
1023.65	213.57
>>>>>End Processed Spectral Data<<<<<
