SpectraSuite Data File
++++++++++++++++++++++++++++++++++++
Date: Tue Jan 29 16:13:17 EST 2013
User: group
Dark Spectrum Present: No
Reference Spectrum Present: No
Number of Sampled Component Spectra: 1
Spectrometers: USB2E7196
Integration Time (usec): 65000 (USB2E7196)
Spectra Averaged: 100 (USB2E7196)
Boxcar Smoothing: 10 (USB2E7196)
Correct for Electrical Dark: No (USB2E7196)
Strobe/Lamp Enabled: No (USB2E7196)
Correct for Detector Non-linearity: No (USB2E7196)
Correct for Stray Light: No (USB2E7196)
Number of Pixels in Processed Spectrum: 2048
>>>>>Begin Processed Spectral Data<<<<<
339.09	0.00
339.48	202.43
339.86	203.77
340.24	205.14
340.63	206.62
341.01	211.26
341.39	209.25
341.78	210.37
342.16	212.69
342.54	212.15
342.93	201.49
343.31	211.67
343.69	212.23
344.07	212.67
344.46	213.11
344.84	213.49
345.22	213.64
345.60	213.92
345.99	214.13
346.37	214.21
346.75	214.33
347.13	214.38
347.52	214.45
347.90	214.59
348.28	214.62
348.66	214.70
349.05	214.65
349.43	214.69
349.81	214.76
350.19	214.82
350.57	214.89
350.96	214.99
351.34	215.07
351.72	215.15
352.10	215.29
352.48	215.36
352.87	215.44
353.25	215.52
353.63	215.54
354.01	215.60
354.39	215.69
354.77	215.76
355.15	215.90
355.54	215.94
355.92	215.91
356.30	216.00
356.68	216.19
357.06	216.26
357.44	216.31
357.82	216.39
358.20	216.48
358.58	216.51
358.97	216.57
359.35	216.71
359.73	216.81
360.11	216.83
360.49	216.88
360.87	216.93
361.25	216.99
361.63	217.12
362.01	217.21
362.39	217.26
362.77	217.32
363.15	217.32
363.53	217.37
363.91	217.44
364.29	217.49
364.67	217.31
365.05	217.35
365.43	217.37
365.81	217.41
366.19	217.52
366.57	217.62
366.95	217.65
367.33	217.57
367.71	217.57
368.09	217.63
368.47	217.67
368.85	217.67
369.23	217.75
369.61	217.62
369.99	217.67
370.37	217.67
370.75	217.76
371.13	217.73
371.51	217.69
371.89	217.66
372.27	217.65
372.65	217.68
373.03	217.66
373.41	217.62
373.78	217.60
374.16	217.43
374.54	217.32
374.92	217.24
375.30	217.24
375.68	217.16
376.06	217.12
376.44	217.05
376.82	216.99
377.19	216.91
377.57	216.92
377.95	216.78
378.33	216.72
378.71	216.55
379.09	216.52
379.47	216.53
379.84	216.47
380.22	216.39
380.60	216.33
380.98	216.26
381.36	216.22
381.73	216.15
382.11	216.15
382.49	216.14
382.87	216.07
383.25	216.04
383.62	216.25
384.00	216.21
384.38	216.17
384.76	216.19
385.13	216.23
385.51	216.21
385.89	216.14
386.27	216.14
386.64	216.17
387.02	216.13
387.40	216.05
387.78	216.03
388.15	216.02
388.53	215.98
388.91	215.98
389.29	215.96
389.66	215.95
390.04	215.91
390.42	215.94
390.79	215.97
391.17	215.94
391.55	215.67
391.92	215.62
392.30	215.65
392.68	215.59
393.05	215.57
393.43	215.54
393.81	215.57
394.18	215.50
394.56	215.50
394.94	215.56
395.31	215.57
395.69	215.64
396.06	215.69
396.44	215.72
396.82	215.72
397.19	215.85
397.57	215.90
397.95	215.94
398.32	215.90
398.70	215.96
399.07	216.03
399.45	216.07
399.82	216.11
400.20	216.13
400.58	216.19
400.95	216.16
401.33	216.29
401.70	216.54
402.08	216.68
402.45	216.77
402.83	216.88
403.20	217.00
403.58	217.09
403.95	217.22
404.33	217.36
404.71	217.49
405.08	217.72
405.46	217.86
405.83	218.05
406.21	218.25
406.58	218.48
406.96	218.70
407.33	218.96
407.70	219.26
408.08	219.72
408.45	220.08
408.83	220.49
409.20	220.79
409.58	221.02
409.95	221.44
410.33	221.92
410.70	222.35
411.08	222.88
411.45	223.42
411.82	223.98
412.20	224.65
412.57	225.45
412.95	226.01
413.32	226.82
413.69	227.64
414.07	228.50
414.44	229.41
414.82	230.43
415.19	231.61
415.56	232.78
415.94	233.92
416.31	235.27
416.68	236.62
417.06	238.19
417.43	239.71
417.81	241.38
418.18	243.10
418.55	244.97
418.93	246.93
419.30	248.97
419.67	251.11
420.04	253.27
420.42	255.60
420.79	258.34
421.16	261.04
421.54	263.83
421.91	266.72
422.28	269.76
422.66	272.93
423.03	276.01
423.40	279.26
423.77	282.74
424.15	286.30
424.52	290.00
424.89	294.01
425.26	297.94
425.64	301.70
426.01	305.84
426.38	310.16
426.75	314.56
427.13	319.14
427.50	323.98
427.87	329.05
428.24	334.07
428.61	338.86
428.99	344.14
429.36	349.98
429.73	355.72
430.10	361.37
430.47	367.22
430.85	373.36
431.22	379.77
431.59	386.62
431.96	393.16
432.33	400.38
432.70	407.37
433.08	415.60
433.45	423.39
433.82	431.09
434.19	439.65
434.56	448.06
434.93	456.12
435.30	464.09
435.68	472.86
436.05	481.46
436.42	490.00
436.79	497.92
437.16	506.34
437.53	515.24
437.90	524.09
438.27	532.75
438.64	541.63
439.01	549.88
439.38	557.19
439.75	564.28
440.13	572.46
440.50	580.16
440.87	586.40
441.24	592.83
441.61	599.94
441.98	605.12
442.35	611.21
442.72	617.28
443.09	623.08
443.46	626.68
443.83	629.13
444.20	631.34
444.57	634.34
444.94	635.79
445.31	637.21
445.68	638.50
446.05	639.09
446.42	638.29
446.79	637.39
447.16	636.39
447.53	635.68
447.90	632.38
448.27	629.16
448.64	624.58
449.01	621.34
449.37	615.62
449.74	610.14
450.11	603.49
450.48	596.33
450.85	589.16
451.22	582.98
451.59	577.07
451.96	571.43
452.33	563.85
452.70	557.00
453.07	548.77
453.43	540.53
453.80	532.55
454.17	524.90
454.54	517.63
454.91	509.70
455.28	501.97
455.65	494.92
456.02	487.78
456.38	481.73
456.75	474.11
457.12	467.79
457.49	461.58
457.86	455.61
458.23	450.45
458.59	444.75
458.96	438.99
459.33	433.90
459.70	428.69
460.07	424.59
460.43	419.82
460.80	415.44
461.17	411.57
461.54	407.44
461.91	403.58
462.27	399.58
462.64	396.30
463.01	392.66
463.38	389.07
463.74	385.49
464.11	382.33
464.48	379.62
464.85	376.61
465.21	374.22
465.58	371.67
465.95	368.64
466.32	366.11
466.68	363.57
467.05	361.03
467.42	358.62
467.78	356.04
468.15	353.67
468.52	351.88
468.88	349.48
469.25	347.41
469.62	345.66
469.98	343.84
470.35	342.08
470.72	340.43
471.08	338.73
471.45	337.28
471.82	335.86
472.18	334.30
472.55	333.19
472.92	331.87
473.28	330.72
473.65	329.65
474.02	328.60
474.38	327.76
474.75	327.09
475.11	326.30
475.48	325.76
475.85	325.27
476.21	324.77
476.58	324.45
476.94	324.28
477.31	324.00
477.67	323.75
478.04	323.63
478.41	323.64
478.77	323.79
479.14	323.77
479.50	323.95
479.87	324.24
480.23	324.58
480.60	324.86
480.96	325.15
481.33	325.71
481.69	326.32
482.06	326.88
482.42	327.42
482.79	328.02
483.15	328.81
483.52	329.76
483.88	330.68
484.25	331.61
484.61	332.56
484.98	333.59
485.34	334.93
485.71	336.29
486.07	337.71
486.44	339.05
486.80	340.64
487.17	342.29
487.53	344.15
487.90	346.03
488.26	348.06
488.62	350.23
488.99	352.32
489.35	354.45
489.72	356.82
490.08	359.31
490.44	361.82
490.81	364.55
491.17	367.23
491.54	370.21
491.90	373.19
492.26	376.47
492.63	379.90
492.99	383.40
493.36	387.09
493.72	390.92
494.08	394.91
494.45	399.10
494.81	403.40
495.17	407.81
495.54	412.50
495.90	417.34
496.26	422.24
496.63	427.42
496.99	432.78
497.35	438.28
497.72	444.05
498.08	450.07
498.44	456.12
498.80	462.48
499.17	468.95
499.53	475.65
499.89	482.55
500.26	489.49
500.62	496.46
500.98	503.78
501.34	511.25
501.71	518.98
502.07	526.72
502.43	534.71
502.79	542.76
503.16	551.02
503.52	559.45
503.88	568.08
504.24	576.92
504.60	585.96
504.97	595.15
505.33	604.35
505.69	614.10
506.05	623.90
506.41	633.70
506.78	643.64
507.14	653.90
507.50	664.19
507.86	674.75
508.22	685.48
508.59	696.10
508.95	707.09
509.31	718.21
509.67	729.62
510.03	740.92
510.39	752.58
510.75	764.37
511.12	776.24
511.48	788.25
511.84	800.48
512.20	812.72
512.56	825.30
512.92	838.00
513.28	850.45
513.64	863.09
514.00	875.78
514.37	888.60
514.73	901.49
515.09	914.36
515.45	927.16
515.81	940.03
516.17	953.23
516.53	966.21
516.89	979.11
517.25	992.07
517.61	1005.44
517.97	1018.65
518.33	1031.62
518.69	1044.91
519.05	1058.48
519.41	1071.83
519.77	1085.47
520.13	1098.49
520.49	1111.53
520.85	1124.72
521.21	1137.80
521.57	1151.32
521.93	1164.26
522.29	1177.74
522.65	1190.98
523.01	1204.35
523.37	1217.36
523.73	1230.33
524.09	1243.24
524.45	1256.49
524.81	1269.71
525.17	1282.84
525.53	1295.69
525.89	1308.77
526.25	1321.62
526.61	1334.11
526.97	1346.93
527.33	1359.50
527.68	1372.63
528.04	1385.66
528.40	1398.55
528.76	1411.65
529.12	1424.10
529.48	1437.06
529.84	1449.07
530.20	1461.64
530.56	1473.95
530.91	1486.87
531.27	1499.45
531.63	1511.96
531.99	1524.37
532.35	1536.28
532.71	1548.34
533.07	1560.79
533.42	1572.62
533.78	1584.47
534.14	1596.26
534.50	1607.18
534.86	1618.59
535.21	1629.21
535.57	1640.39
535.93	1651.39
536.29	1662.14
536.65	1673.31
537.00	1683.99
537.36	1695.15
537.72	1705.83
538.08	1716.85
538.44	1727.39
538.79	1738.12
539.15	1748.63
539.51	1759.12
539.87	1770.13
540.22	1780.69
540.58	1791.39
540.94	1802.03
541.29	1812.00
541.65	1821.52
542.01	1831.84
542.37	1841.44
542.72	1851.24
543.08	1860.66
543.44	1870.81
543.79	1879.82
544.15	1888.98
544.51	1898.65
544.87	1908.07
545.22	1916.90
545.58	1925.56
545.94	1934.22
546.29	1942.45
546.65	1950.58
547.01	1958.57
547.36	1965.89
547.72	1973.30
548.07	1980.78
548.43	1988.25
548.79	1995.71
549.14	2003.50
549.50	2011.55
549.86	2019.13
550.21	2026.35
550.57	2033.87
550.92	2040.34
551.28	2047.68
551.64	2054.76
551.99	2062.07
552.35	2069.01
552.70	2075.79
553.06	2082.15
553.41	2088.26
553.77	2094.71
554.13	2100.88
554.48	2107.71
554.84	2114.64
555.19	2120.99
555.55	2127.28
555.90	2133.46
556.26	2140.10
556.61	2145.96
556.97	2150.77
557.32	2156.63
557.68	2162.86
558.03	2168.43
558.39	2173.57
558.74	2179.39
559.10	2184.77
559.45	2190.17
559.81	2195.63
560.16	2201.14
560.52	2206.99
560.87	2213.29
561.23	2219.05
561.58	2225.77
561.94	2230.94
562.29	2235.81
562.64	2241.90
563.00	2247.32
563.35	2252.87
563.71	2258.88
564.06	2264.53
564.42	2270.41
564.77	2275.50
565.12	2280.70
565.48	2286.01
565.83	2291.60
566.19	2297.08
566.54	2302.61
566.89	2307.20
567.25	2311.82
567.60	2317.45
567.96	2322.71
568.31	2327.34
568.66	2331.61
569.02	2335.44
569.37	2339.08
569.72	2343.51
570.08	2347.11
570.43	2350.36
570.78	2353.55
571.14	2356.15
571.49	2359.38
571.84	2363.06
572.20	2365.82
572.55	2369.04
572.90	2371.33
573.26	2374.42
573.61	2376.84
573.96	2379.05
574.31	2381.25
574.67	2383.21
575.02	2384.27
575.37	2385.71
575.72	2386.50
576.08	2388.15
576.43	2388.44
576.78	2389.23
577.13	2391.03
577.49	2392.25
577.84	2393.59
578.19	2395.01
578.54	2395.69
578.90	2396.76
579.25	2396.66
579.60	2396.96
579.95	2396.40
580.30	2396.70
580.66	2395.97
581.01	2394.52
581.36	2392.50
581.71	2391.25
582.06	2390.43
582.42	2389.73
582.77	2387.72
583.12	2386.39
583.47	2385.37
583.82	2385.13
584.17	2384.06
584.53	2381.99
584.88	2380.15
585.23	2378.22
585.58	2376.11
585.93	2374.10
586.28	2372.03
586.63	2369.91
586.98	2367.86
587.34	2365.99
587.69	2363.80
588.04	2362.08
588.39	2360.89
588.74	2358.43
589.09	2355.87
589.44	2352.93
589.79	2350.61
590.14	2349.00
590.49	2346.15
590.84	2342.53
591.19	2339.61
591.54	2336.49
591.89	2332.72
592.25	2329.66
592.60	2325.65
592.95	2321.67
593.30	2317.69
593.65	2313.46
594.00	2309.23
594.35	2306.30
594.70	2301.88
595.05	2297.45
595.40	2292.08
595.75	2286.56
596.10	2283.11
596.45	2278.48
596.80	2273.93
597.15	2268.77
597.50	2262.88
597.85	2258.18
598.19	2252.92
598.54	2247.26
598.89	2242.33
599.24	2237.85
599.59	2231.73
599.94	2226.33
600.29	2220.63
600.64	2214.91
600.99	2208.31
601.34	2202.94
601.69	2196.11
602.04	2189.80
602.39	2183.34
602.74	2177.33
603.08	2171.97
603.43	2165.57
603.78	2158.84
604.13	2151.96
604.48	2144.85
604.83	2138.91
605.18	2132.57
605.53	2125.77
605.87	2118.84
606.22	2112.03
606.57	2104.29
606.92	2096.38
607.27	2089.39
607.62	2082.75
607.96	2075.71
608.31	2069.27
608.66	2061.60
609.01	2054.05
609.36	2047.01
609.70	2039.38
610.05	2031.70
610.40	2023.46
610.75	2015.26
611.10	2007.74
611.44	1998.99
611.79	1990.18
612.14	1980.19
612.49	1969.79
612.83	1960.65
613.18	1951.52
613.53	1942.19
613.88	1932.55
614.22	1924.12
614.57	1914.24
614.92	1903.83
615.27	1893.86
615.61	1883.96
615.96	1874.36
616.31	1864.87
616.65	1855.73
617.00	1845.84
617.35	1836.27
617.70	1826.52
618.04	1816.38
618.39	1806.10
618.74	1796.48
619.08	1787.04
619.43	1778.44
619.78	1770.37
620.12	1761.60
620.47	1751.86
620.82	1741.72
621.16	1732.06
621.51	1722.04
621.85	1712.27
622.20	1701.80
622.55	1691.22
622.89	1681.28
623.24	1671.54
623.59	1661.70
623.93	1651.38
624.28	1641.76
624.62	1631.60
624.97	1621.25
625.32	1611.67
625.66	1602.96
626.01	1594.06
626.35	1584.69
626.70	1574.59
627.04	1564.44
627.39	1554.41
627.73	1545.15
628.08	1536.07
628.43	1526.52
628.77	1517.48
629.12	1508.64
629.46	1500.77
629.81	1492.44
630.15	1482.92
630.50	1473.19
630.84	1462.72
631.19	1452.88
631.53	1443.46
631.88	1433.46
632.22	1423.48
632.57	1414.01
632.91	1403.75
633.26	1394.01
633.60	1384.53
633.95	1375.22
634.29	1365.89
634.64	1356.58
634.98	1346.75
635.32	1337.50
635.67	1328.93
636.01	1319.59
636.36	1309.81
636.70	1300.32
637.05	1290.96
637.39	1281.96
637.73	1273.27
638.08	1265.85
638.42	1257.63
638.77	1248.93
639.11	1240.72
639.45	1233.03
639.80	1224.53
640.14	1215.89
640.49	1207.05
640.83	1198.09
641.17	1190.11
641.52	1181.87
641.86	1173.35
642.20	1165.38
642.55	1156.84
642.89	1148.04
643.23	1139.50
643.58	1131.45
643.92	1122.57
644.26	1113.90
644.61	1105.54
644.95	1096.87
645.29	1087.51
645.64	1078.49
645.98	1070.12
646.32	1062.11
646.66	1053.57
647.01	1045.35
647.35	1037.25
647.69	1028.98
648.04	1020.80
648.38	1011.88
648.72	1003.16
649.06	994.73
649.41	986.73
649.75	978.77
650.09	970.94
650.43	962.95
650.78	954.77
651.12	947.11
651.46	939.80
651.80	932.54
652.14	925.22
652.49	917.86
652.83	910.57
653.17	902.96
653.51	895.47
653.85	888.30
654.20	881.02
654.54	873.63
654.88	866.45
655.22	859.32
655.56	852.42
655.90	845.64
656.25	839.07
656.59	832.09
656.93	825.18
657.27	818.11
657.61	811.24
657.95	805.23
658.29	799.38
658.64	793.21
658.98	786.91
659.32	780.49
659.66	774.35
660.00	768.06
660.34	762.05
660.68	755.96
661.02	749.72
661.36	743.97
661.70	738.21
662.05	732.65
662.39	727.24
662.73	721.97
663.07	716.72
663.41	711.25
663.75	705.69
664.09	700.16
664.43	694.83
664.77	689.56
665.11	683.78
665.45	677.96
665.79	672.30
666.13	666.62
666.47	661.17
666.81	655.84
667.15	650.55
667.49	645.41
667.83	640.27
668.17	635.12
668.51	630.03
668.85	625.20
669.19	620.34
669.53	615.45
669.87	610.41
670.21	605.70
670.55	600.93
670.89	596.57
671.23	592.32
671.57	588.00
671.91	583.75
672.25	579.72
672.58	575.59
672.92	571.56
673.26	567.72
673.60	563.95
673.94	560.14
674.28	556.53
674.62	552.84
674.96	549.18
675.30	545.74
675.64	542.12
675.97	538.60
676.31	535.08
676.65	531.52
676.99	528.10
677.33	524.31
677.67	520.79
678.01	516.96
678.34	513.29
678.68	509.85
679.02	506.25
679.36	502.53
679.70	499.01
680.04	495.60
680.37	492.24
680.71	488.94
681.05	485.84
681.39	482.66
681.73	479.56
682.06	476.54
682.40	473.51
682.74	470.40
683.08	467.24
683.42	464.07
683.75	461.09
684.09	458.11
684.43	455.34
684.77	452.38
685.10	449.64
685.44	446.80
685.78	443.87
686.12	441.20
686.45	438.59
686.79	435.91
687.13	433.39
687.46	430.82
687.80	428.22
688.14	425.40
688.48	422.91
688.81	420.23
689.15	417.76
689.49	415.16
689.82	412.61
690.16	410.07
690.50	407.66
690.83	405.20
691.17	402.72
691.51	400.33
691.84	398.22
692.18	396.06
692.52	393.93
692.85	391.83
693.19	389.69
693.52	387.55
693.86	385.41
694.20	383.26
694.53	381.16
694.87	379.03
695.21	377.00
695.54	374.83
695.88	372.77
696.21	370.56
696.55	368.50
696.88	366.56
697.22	364.59
697.56	362.77
697.89	361.02
698.23	359.33
698.56	357.60
698.90	355.85
699.23	353.94
699.57	352.10
699.90	350.36
700.24	348.63
700.58	346.93
700.91	345.35
701.25	343.87
701.58	342.34
701.92	340.76
702.25	339.21
702.59	337.62
702.92	336.11
703.26	334.64
703.59	333.24
703.93	331.95
704.26	330.61
704.60	329.13
704.93	327.63
705.26	326.20
705.60	324.75
705.93	323.26
706.27	322.01
706.60	320.81
706.94	319.60
707.27	318.28
707.61	316.94
707.94	315.59
708.27	314.09
708.61	312.65
708.94	311.36
709.28	310.08
709.61	308.90
709.94	307.73
710.28	306.53
710.61	305.36
710.95	303.95
711.28	302.86
711.61	301.70
711.95	300.62
712.28	299.44
712.61	298.31
712.95	297.30
713.28	296.30
713.61	295.14
713.95	294.02
714.28	292.99
714.61	292.03
714.95	291.03
715.28	290.06
715.61	289.07
715.95	288.11
716.28	287.17
716.61	286.22
716.95	285.23
717.28	284.33
717.61	283.38
717.94	282.56
718.28	281.62
718.61	280.76
718.94	279.89
719.27	279.07
719.61	278.28
719.94	277.42
720.27	276.45
720.60	275.66
720.94	274.87
721.27	274.17
721.60	273.46
721.93	272.79
722.27	272.16
722.60	271.52
722.93	270.84
723.26	270.24
723.59	269.58
723.93	269.04
724.26	268.40
724.59	267.77
724.92	267.18
725.25	266.66
725.59	266.13
725.92	265.57
726.25	265.01
726.58	264.47
726.91	263.87
727.24	263.35
727.57	262.83
727.91	262.23
728.24	261.66
728.57	261.11
728.90	260.60
729.23	259.99
729.56	259.56
729.89	259.04
730.22	258.48
730.55	257.95
730.89	257.41
731.22	256.91
731.55	256.47
731.88	256.00
732.21	255.44
732.54	254.92
732.87	254.45
733.20	253.98
733.53	253.48
733.86	253.05
734.19	252.57
734.52	252.20
734.85	251.96
735.18	251.52
735.51	251.12
735.84	250.67
736.17	250.27
736.50	249.77
736.83	249.64
737.16	249.24
737.49	248.87
737.82	248.48
738.15	248.10
738.48	247.71
738.81	247.36
739.14	246.98
739.47	246.61
739.80	246.24
740.13	245.92
740.46	245.54
740.79	245.17
741.12	244.78
741.45	244.40
741.78	243.93
742.11	243.64
742.44	243.28
742.77	242.99
743.10	242.67
743.43	242.34
743.75	241.75
744.08	241.69
744.41	241.33
744.74	240.99
745.07	240.65
745.40	240.34
745.73	240.06
746.06	239.76
746.39	239.45
746.71	239.13
747.04	238.78
747.37	238.48
747.70	238.23
748.03	237.93
748.36	237.66
748.68	237.36
749.01	237.02
749.34	236.73
749.67	236.47
750.00	236.21
750.33	236.06
750.65	235.81
750.98	235.33
751.31	235.10
751.64	234.87
751.97	234.75
752.29	234.51
752.62	234.19
752.95	233.91
753.28	233.66
753.60	233.40
753.93	233.24
754.26	233.06
754.59	232.76
754.91	232.56
755.24	232.32
755.57	232.10
755.90	231.88
756.22	231.62
756.55	231.36
756.88	231.13
757.20	230.79
757.53	230.54
757.86	230.33
758.19	230.13
758.51	229.95
758.84	229.62
759.17	229.42
759.49	229.21
759.82	229.17
760.15	229.02
760.47	228.87
760.80	228.62
761.13	228.45
761.45	228.30
761.78	228.16
762.11	228.01
762.43	227.83
762.76	227.67
763.08	227.56
763.41	227.40
763.74	227.26
764.06	227.08
764.39	226.94
764.71	226.75
765.04	226.65
765.37	226.45
765.69	226.34
766.02	226.20
766.34	226.05
766.67	225.82
767.00	225.70
767.32	225.67
767.65	225.68
767.97	225.54
768.30	225.40
768.62	225.27
768.95	225.08
769.27	224.97
769.60	224.89
769.92	224.73
770.25	224.59
770.57	224.44
770.90	224.35
771.22	224.25
771.55	224.15
771.87	223.99
772.20	223.91
772.52	223.97
772.85	224.08
773.17	224.02
773.50	223.92
773.82	223.82
774.15	223.62
774.47	223.39
774.80	223.27
775.12	223.18
775.45	223.07
775.77	222.97
776.09	222.89
776.42	222.80
776.74	222.78
777.07	222.67
777.39	222.61
777.72	222.54
778.04	222.47
778.36	222.41
778.69	222.35
779.01	222.28
779.33	222.01
779.66	221.73
779.98	221.65
780.31	221.57
780.63	221.54
780.95	221.50
781.28	221.41
781.60	221.35
781.92	221.30
782.25	221.26
782.57	221.20
782.89	221.14
783.22	221.04
783.54	220.94
783.86	220.88
784.19	220.82
784.51	220.82
784.83	220.69
785.16	220.59
785.48	220.54
785.80	220.51
786.12	220.47
786.45	220.40
786.77	220.34
787.09	220.28
787.42	220.18
787.74	220.11
788.06	220.09
788.38	219.99
788.71	219.93
789.03	219.88
789.35	219.86
789.67	219.80
789.99	219.79
790.32	219.70
790.64	219.70
790.96	219.79
791.28	219.65
791.61	219.62
791.93	219.62
792.25	219.55
792.57	219.61
792.89	219.52
793.21	219.51
793.54	219.44
793.86	219.35
794.18	219.30
794.50	219.24
794.82	219.17
795.14	219.19
795.47	219.14
795.79	219.08
796.11	218.99
796.43	218.92
796.75	218.86
797.07	218.87
797.39	218.83
797.71	218.65
798.04	218.66
798.36	218.66
798.68	218.59
799.00	218.58
799.32	218.45
799.64	218.47
799.96	218.44
800.28	218.44
800.60	218.43
800.92	218.39
801.24	218.34
801.56	218.34
801.89	218.28
802.21	218.27
802.53	218.20
802.85	218.22
803.17	218.28
803.49	218.20
803.81	218.09
804.13	218.01
804.45	217.97
804.77	217.92
805.09	217.84
805.41	217.80
805.73	217.72
806.05	217.64
806.37	217.60
806.69	217.53
807.01	217.49
807.33	217.46
807.65	217.36
807.97	217.42
808.28	217.36
808.60	217.35
808.92	217.31
809.24	217.40
809.56	217.35
809.88	217.25
810.20	217.27
810.52	217.33
810.84	217.28
811.16	217.22
811.48	217.21
811.80	217.30
812.12	217.28
812.43	217.26
812.75	217.26
813.07	217.20
813.39	217.19
813.71	217.12
814.03	217.06
814.35	217.07
814.67	216.98
814.98	216.92
815.30	216.86
815.62	216.79
815.94	216.65
816.26	216.64
816.58	216.59
816.89	216.60
817.21	216.53
817.53	216.53
817.85	216.54
818.17	216.52
818.48	216.40
818.80	216.40
819.12	216.39
819.44	216.31
819.76	216.25
820.07	216.23
820.39	216.21
820.71	216.25
821.03	216.22
821.34	216.18
821.66	216.21
821.98	216.24
822.30	216.23
822.61	216.34
822.93	216.27
823.25	216.22
823.57	216.16
823.88	216.20
824.20	216.17
824.52	216.17
824.83	216.14
825.15	216.09
825.47	216.07
825.79	216.07
826.10	216.08
826.42	216.12
826.74	216.15
827.05	216.12
827.37	216.12
827.69	216.10
828.00	216.08
828.32	216.05
828.64	216.01
828.95	216.10
829.27	216.05
829.58	216.05
829.90	216.13
830.22	216.13
830.53	216.03
830.85	216.02
831.17	215.96
831.48	215.97
831.80	216.00
832.11	216.00
832.43	215.99
832.75	215.99
833.06	216.07
833.38	216.00
833.69	216.01
834.01	216.04
834.32	216.01
834.64	216.00
834.96	216.05
835.27	216.05
835.59	215.96
835.90	215.91
836.22	215.93
836.53	215.83
836.85	215.83
837.16	216.03
837.48	216.04
837.79	216.10
838.11	216.12
838.42	216.11
838.74	216.13
839.05	216.10
839.37	216.07
839.68	215.96
840.00	215.91
840.31	215.91
840.63	215.86
840.94	215.83
841.26	215.85
841.57	215.82
841.88	215.81
842.20	215.79
842.51	215.78
842.83	215.76
843.14	215.96
843.46	215.98
843.77	215.85
844.08	215.81
844.40	215.73
844.71	215.67
845.03	215.65
845.34	215.60
845.65	215.59
845.97	215.58
846.28	215.60
846.60	215.61
846.91	215.55
847.22	215.56
847.54	215.61
847.85	215.59
848.16	215.55
848.48	215.53
848.79	215.59
849.10	215.58
849.42	215.56
849.73	215.39
850.04	215.33
850.36	215.26
850.67	215.32
850.98	215.34
851.30	215.36
851.61	215.34
851.92	215.34
852.23	215.39
852.55	215.37
852.86	215.36
853.17	215.38
853.49	215.45
853.80	215.48
854.11	215.50
854.42	215.49
854.74	215.49
855.05	215.47
855.36	215.37
855.67	215.39
855.99	215.39
856.30	215.62
856.61	215.61
856.92	215.60
857.23	215.58
857.55	215.55
857.86	215.53
858.17	215.54
858.48	215.48
858.79	215.42
859.11	215.46
859.42	215.43
859.73	215.39
860.04	215.38
860.35	215.31
860.66	215.24
860.98	215.25
861.29	215.28
861.60	215.27
861.91	215.30
862.22	215.29
862.53	215.27
862.84	215.02
863.16	215.08
863.47	215.07
863.78	215.02
864.09	215.04
864.40	215.06
864.71	215.05
865.02	215.09
865.33	215.06
865.64	215.03
865.95	215.05
866.27	215.21
866.58	215.17
866.89	215.22
867.20	215.19
867.51	215.17
867.82	215.14
868.13	215.21
868.44	215.16
868.75	215.17
869.06	215.15
869.37	215.17
869.68	215.10
869.99	215.12
870.30	215.19
870.61	215.20
870.92	215.19
871.23	215.19
871.54	215.20
871.85	215.28
872.16	215.28
872.47	215.25
872.78	215.11
873.09	215.16
873.40	215.11
873.71	215.15
874.02	215.17
874.33	215.16
874.64	215.12
874.95	215.16
875.26	215.12
875.56	215.13
875.87	215.13
876.18	215.14
876.49	215.34
876.80	215.28
877.11	215.23
877.42	215.22
877.73	215.21
878.04	215.19
878.35	215.20
878.66	215.21
878.96	215.20
879.27	215.20
879.58	215.15
879.89	215.17
880.20	215.21
880.51	215.18
880.82	215.15
881.12	215.18
881.43	215.14
881.74	215.11
882.05	215.12
882.36	215.15
882.67	215.17
882.97	214.96
883.28	214.95
883.59	214.95
883.90	214.96
884.21	214.97
884.51	214.97
884.82	214.90
885.13	214.92
885.44	214.93
885.74	214.92
886.05	214.92
886.36	214.91
886.67	214.84
886.98	214.94
887.28	215.02
887.59	214.97
887.90	214.98
888.20	215.01
888.51	215.02
888.82	214.95
889.13	214.91
889.43	215.08
889.74	215.07
890.05	215.09
890.35	215.08
890.66	215.08
890.97	215.06
891.28	215.03
891.58	215.04
891.89	215.03
892.20	215.01
892.50	215.01
892.81	215.00
893.12	215.02
893.42	214.96
893.73	214.90
894.04	214.91
894.34	214.92
894.65	214.91
894.95	214.91
895.26	214.95
895.57	215.06
895.87	214.88
896.18	214.92
896.48	214.91
896.79	214.91
897.10	214.89
897.40	214.90
897.71	214.95
898.01	214.93
898.32	214.96
898.63	214.96
898.93	214.96
899.24	214.95
899.54	214.94
899.85	214.89
900.15	214.86
900.46	214.83
900.76	214.87
901.07	214.85
901.38	214.84
901.68	214.81
901.99	214.72
902.29	214.71
902.60	214.70
902.90	214.68
903.21	214.67
903.51	214.68
903.82	214.72
904.12	214.71
904.43	214.70
904.73	214.69
905.03	214.71
905.34	214.90
905.64	214.92
905.95	214.90
906.25	214.92
906.56	214.94
906.86	214.98
907.17	214.96
907.47	214.97
907.77	214.94
908.08	214.93
908.38	214.93
908.69	214.96
908.99	214.97
909.30	215.01
909.60	214.99
909.90	215.02
910.21	214.98
910.51	214.97
910.81	215.00
911.12	215.01
911.42	214.99
911.73	214.80
912.03	214.80
912.33	214.89
912.64	214.87
912.94	214.82
913.24	214.75
913.55	214.70
913.85	214.71
914.15	214.76
914.46	214.77
914.76	214.77
915.06	214.74
915.37	214.71
915.67	214.69
915.97	214.68
916.27	214.62
916.58	214.60
916.88	214.59
917.18	214.56
917.49	214.68
917.79	214.68
918.09	214.70
918.39	214.72
918.70	214.67
919.00	214.66
919.30	214.81
919.60	214.83
919.91	214.81
920.21	214.80
920.51	214.78
920.81	214.76
921.12	214.79
921.42	214.79
921.72	214.80
922.02	214.78
922.32	214.83
922.63	214.86
922.93	214.96
923.23	214.96
923.53	214.94
923.83	214.79
924.13	214.79
924.44	214.78
924.74	214.85
925.04	214.89
925.34	214.90
925.64	214.78
925.94	214.78
926.24	214.92
926.55	214.90
926.85	214.92
927.15	214.93
927.45	214.92
927.75	214.93
928.05	214.95
928.35	214.94
928.65	214.97
928.95	214.95
929.26	214.87
929.56	214.89
929.86	214.96
930.16	214.97
930.46	214.96
930.76	214.99
931.06	214.86
931.36	214.80
931.66	214.84
931.96	214.86
932.26	214.88
932.56	214.78
932.86	214.81
933.16	214.79
933.46	214.76
933.76	214.72
934.06	214.79
934.36	214.85
934.66	214.87
934.96	214.84
935.26	214.90
935.56	214.92
935.86	214.88
936.16	214.78
936.46	214.75
936.76	214.75
937.06	214.71
937.36	214.76
937.66	214.77
937.96	214.75
938.26	214.72
938.56	214.71
938.86	214.73
939.16	214.78
939.46	214.80
939.76	214.83
940.06	214.86
940.35	214.80
940.65	214.68
940.95	214.69
941.25	214.63
941.55	214.57
941.85	214.57
942.15	214.59
942.45	214.69
942.75	214.71
943.04	214.70
943.34	214.74
943.64	214.72
943.94	214.67
944.24	214.65
944.54	214.65
944.84	214.66
945.13	214.63
945.43	214.59
945.73	214.59
946.03	214.55
946.33	214.53
946.62	214.48
946.92	214.49
947.22	214.48
947.52	214.50
947.82	214.53
948.11	214.49
948.41	214.45
948.71	214.37
949.01	214.39
949.31	214.39
949.60	214.35
949.90	214.37
950.20	214.42
950.50	214.43
950.79	214.41
951.09	214.44
951.39	214.44
951.69	214.40
951.98	214.42
952.28	214.46
952.58	214.44
952.87	214.49
953.17	214.51
953.47	214.51
953.76	214.51
954.06	214.46
954.36	214.46
954.66	214.45
954.95	214.50
955.25	214.49
955.55	214.50
955.84	214.48
956.14	214.51
956.44	214.53
956.73	214.52
957.03	214.55
957.32	214.52
957.62	214.52
957.92	214.57
958.21	214.54
958.51	214.76
958.81	214.80
959.10	214.83
959.40	214.86
959.69	214.89
959.99	214.92
960.29	214.91
960.58	214.92
960.88	215.00
961.17	214.99
961.47	215.04
961.76	215.05
962.06	215.07
962.36	215.00
962.65	214.99
962.95	214.97
963.24	214.96
963.54	214.97
963.83	214.97
964.13	214.98
964.42	214.95
964.72	214.76
965.01	214.78
965.31	214.75
965.60	214.70
965.90	214.81
966.19	214.77
966.49	214.81
966.78	214.80
967.08	214.81
967.37	214.78
967.67	214.72
967.96	214.74
968.26	214.73
968.55	214.76
968.85	214.73
969.14	214.77
969.43	214.74
969.73	214.74
970.02	214.74
970.32	214.72
970.61	214.76
970.91	214.71
971.20	214.67
971.49	214.67
971.79	214.70
972.08	214.54
972.38	214.55
972.67	214.55
972.96	214.59
973.26	214.52
973.55	214.61
973.85	214.59
974.14	214.56
974.43	214.60
974.73	214.56
975.02	214.55
975.31	214.53
975.61	214.54
975.90	214.52
976.19	214.51
976.49	214.52
976.78	214.52
977.07	214.51
977.37	214.51
977.66	214.55
977.95	214.51
978.24	214.56
978.54	214.62
978.83	214.60
979.12	214.58
979.42	214.62
979.71	214.58
980.00	214.63
980.29	214.64
980.59	214.61
980.88	214.69
981.17	214.71
981.46	214.73
981.76	214.68
982.05	214.72
982.34	214.74
982.63	214.72
982.93	214.70
983.22	214.74
983.51	214.75
983.80	214.76
984.09	214.81
984.39	214.77
984.68	214.73
984.97	214.74
985.26	214.70
985.55	214.68
985.85	214.65
986.14	214.67
986.43	214.72
986.72	214.66
987.01	214.58
987.30	214.58
987.59	214.57
987.89	214.62
988.18	214.57
988.47	214.57
988.76	214.54
989.05	214.55
989.34	214.53
989.63	214.57
989.92	214.53
990.22	214.48
990.51	214.47
990.80	214.44
991.09	214.46
991.38	214.50
991.67	214.48
991.96	214.45
992.25	214.44
992.54	214.36
992.83	214.41
993.12	214.40
993.41	214.42
993.70	214.52
993.99	214.53
994.28	214.55
994.58	214.57
994.87	214.57
995.16	214.55
995.45	214.52
995.74	214.46
996.03	214.49
996.32	214.54
996.61	214.57
996.90	214.60
997.19	214.61
997.48	214.62
997.77	214.57
998.06	214.60
998.34	214.57
998.63	214.58
998.92	214.58
999.21	214.61
999.50	214.61
999.79	214.53
1000.08	214.53
1000.37	214.55
1000.66	214.50
1000.95	214.55
1001.24	214.59
1001.53	214.62
1001.82	214.60
1002.11	214.56
1002.40	214.58
1002.68	214.67
1002.97	214.76
1003.26	214.73
1003.55	214.68
1003.84	214.73
1004.13	214.82
1004.42	214.84
1004.71	214.81
1004.99	214.81
1005.28	214.85
1005.57	214.80
1005.86	214.80
1006.15	214.81
1006.44	214.78
1006.72	214.83
1007.01	214.79
1007.30	214.79
1007.59	214.78
1007.88	214.78
1008.17	214.81
1008.45	214.76
1008.74	214.64
1009.03	214.57
1009.32	214.57
1009.60	214.61
1009.89	214.56
1010.18	214.45
1010.47	214.40
1010.76	214.41
1011.04	214.39
1011.33	214.40
1011.62	214.44
1011.91	214.43
1012.19	214.42
1012.48	214.41
1012.77	214.42
1013.05	214.52
1013.34	214.52
1013.63	214.49
1013.92	214.51
1014.20	214.47
1014.49	214.49
1014.78	214.51
1015.06	214.44
1015.35	214.41
1015.64	214.42
1015.92	214.50
1016.21	214.51
1016.50	214.53
1016.78	214.58
1017.07	214.58
1017.36	214.55
1017.64	214.55
1017.93	214.58
1018.22	214.57
1018.50	214.58
1018.79	214.55
1019.08	214.45
1019.36	214.43
1019.65	214.39
1019.93	214.45
1020.22	214.48
1020.51	214.55
1020.79	214.52
1021.08	214.25
1021.36	214.14
1021.65	214.33
1021.94	214.59
1022.22	214.02
1022.51	213.67
1022.79	215.49
1023.08	214.60
1023.36	216.57
1023.65	213.81
>>>>>End Processed Spectral Data<<<<<
