SpectraSuite Data File
++++++++++++++++++++++++++++++++++++
Date: Tue Jan 29 16:08:29 EST 2013
User: group
Dark Spectrum Present: No
Reference Spectrum Present: No
Number of Sampled Component Spectra: 1
Spectrometers: USB2E7196
Integration Time (usec): 65000 (USB2E7196)
Spectra Averaged: 100 (USB2E7196)
Boxcar Smoothing: 10 (USB2E7196)
Correct for Electrical Dark: No (USB2E7196)
Strobe/Lamp Enabled: No (USB2E7196)
Correct for Detector Non-linearity: No (USB2E7196)
Correct for Stray Light: No (USB2E7196)
Number of Pixels in Processed Spectrum: 2048
>>>>>Begin Processed Spectral Data<<<<<
339.09	0.00
339.48	203.05
339.86	204.15
340.24	205.23
340.63	206.63
341.01	211.05
341.39	209.45
341.78	211.45
342.16	212.05
342.54	212.86
342.93	201.73
343.31	211.94
343.69	212.47
344.07	212.91
344.46	213.37
344.84	213.80
345.22	213.97
345.60	214.23
345.99	214.41
346.37	214.58
346.75	214.71
347.13	214.78
347.52	214.86
347.90	215.00
348.28	215.00
348.66	215.08
349.05	215.09
349.43	215.19
349.81	215.24
350.19	215.30
350.57	215.38
350.96	215.46
351.34	215.55
351.72	215.65
352.10	215.79
352.48	215.85
352.87	215.90
353.25	215.99
353.63	216.06
354.01	216.14
354.39	216.22
354.77	216.26
355.15	216.41
355.54	216.46
355.92	216.46
356.30	216.57
356.68	216.76
357.06	216.83
357.44	216.85
357.82	216.93
358.20	217.02
358.58	217.09
358.97	217.18
359.35	217.29
359.73	217.38
360.11	217.42
360.49	217.52
360.87	217.57
361.25	217.63
361.63	217.77
362.01	217.82
362.39	217.84
362.77	217.89
363.15	217.91
363.53	217.99
363.91	218.02
364.29	218.08
364.67	217.91
365.05	217.93
365.43	217.97
365.81	218.02
366.19	218.11
366.57	218.21
366.95	218.25
367.33	218.21
367.71	218.19
368.09	218.23
368.47	218.22
368.85	218.21
369.23	218.23
369.61	218.13
369.99	218.17
370.37	218.18
370.75	218.24
371.13	218.20
371.51	218.14
371.89	218.16
372.27	218.11
372.65	218.12
373.03	218.09
373.41	218.06
373.78	217.98
374.16	217.85
374.54	217.71
374.92	217.62
375.30	217.58
375.68	217.50
376.06	217.45
376.44	217.39
376.82	217.36
377.19	217.31
377.57	217.26
377.95	217.18
378.33	217.14
378.71	217.00
379.09	216.98
379.47	216.93
379.84	216.84
380.22	216.80
380.60	216.71
380.98	216.68
381.36	216.61
381.73	216.56
382.11	216.54
382.49	216.54
382.87	216.45
383.25	216.43
383.62	216.65
384.00	216.60
384.38	216.56
384.76	216.55
385.13	216.60
385.51	216.57
385.89	216.47
386.27	216.42
386.64	216.44
387.02	216.39
387.40	216.36
387.78	216.35
388.15	216.31
388.53	216.26
388.91	216.22
389.29	216.21
389.66	216.20
390.04	216.12
390.42	216.12
390.79	216.15
391.17	216.11
391.55	215.83
391.92	215.81
392.30	215.86
392.68	215.81
393.05	215.79
393.43	215.81
393.81	215.86
394.18	215.84
394.56	215.83
394.94	215.85
395.31	215.83
395.69	215.87
396.06	215.92
396.44	215.94
396.82	215.94
397.19	216.04
397.57	216.07
397.95	216.18
398.32	216.16
398.70	216.21
399.07	216.30
399.45	216.38
399.82	216.43
400.20	216.42
400.58	216.49
400.95	216.44
401.33	216.52
401.70	216.70
402.08	216.82
402.45	216.92
402.83	217.06
403.20	217.18
403.58	217.26
403.95	217.42
404.33	217.59
404.71	217.73
405.08	217.95
405.46	218.11
405.83	218.26
406.21	218.47
406.58	218.69
406.96	218.89
407.33	219.14
407.70	219.42
408.08	219.88
408.45	220.21
408.83	220.60
409.20	220.92
409.58	221.19
409.95	221.60
410.33	222.06
410.70	222.45
411.08	223.01
411.45	223.59
411.82	224.11
412.20	224.79
412.57	225.59
412.95	226.19
413.32	226.98
413.69	227.82
414.07	228.70
414.44	229.65
414.82	230.64
415.19	231.76
415.56	232.93
415.94	234.08
416.31	235.44
416.68	236.78
417.06	238.34
417.43	239.87
417.81	241.56
418.18	243.25
418.55	245.14
418.93	247.05
419.30	249.12
419.67	251.30
420.04	253.48
420.42	255.76
420.79	258.49
421.16	261.20
421.54	264.02
421.91	266.90
422.28	269.89
422.66	273.05
423.03	276.19
423.40	279.42
423.77	282.86
424.15	286.40
424.52	290.13
424.89	294.12
425.26	298.07
425.64	301.80
426.01	305.95
426.38	310.26
426.75	314.66
427.13	319.19
427.50	324.01
427.87	329.04
428.24	334.12
428.61	338.90
428.99	344.22
429.36	349.95
429.73	355.59
430.10	361.27
430.47	367.16
430.85	373.27
431.22	379.75
431.59	386.65
431.96	393.25
432.33	400.47
432.70	407.49
433.08	415.67
433.45	423.45
433.82	431.21
434.19	439.76
434.56	448.16
434.93	456.19
435.30	464.13
435.68	472.92
436.05	481.54
436.42	490.16
436.79	498.05
437.16	506.52
437.53	515.48
437.90	524.36
438.27	532.97
438.64	541.93
439.01	550.14
439.38	557.44
439.75	564.61
440.13	572.69
440.50	580.38
440.87	586.62
441.24	593.03
441.61	600.10
441.98	605.34
442.35	611.44
442.72	617.53
443.09	623.38
443.46	627.01
443.83	629.45
444.20	631.52
444.57	634.48
444.94	635.89
445.31	637.27
445.68	638.56
446.05	639.17
446.42	638.31
446.79	637.40
447.16	636.31
447.53	635.49
447.90	632.31
448.27	629.04
448.64	624.47
449.01	621.23
449.37	615.55
449.74	610.00
450.11	603.34
450.48	596.25
450.85	589.07
451.22	582.80
451.59	576.86
451.96	571.26
452.33	563.65
452.70	556.77
453.07	548.61
453.43	540.28
453.80	532.26
454.17	524.64
454.54	517.34
454.91	509.44
455.28	501.75
455.65	494.63
456.02	487.51
456.38	481.49
456.75	473.96
457.12	467.61
457.49	461.41
457.86	455.47
458.23	450.28
458.59	444.55
458.96	438.79
459.33	433.70
459.70	428.54
460.07	424.55
460.43	419.85
460.80	415.44
461.17	411.65
461.54	407.64
461.91	403.71
462.27	399.80
462.64	396.55
463.01	392.84
463.38	389.27
463.74	385.68
464.11	382.53
464.48	379.78
464.85	376.78
465.21	374.42
465.58	371.90
465.95	368.90
466.32	366.37
466.68	363.89
467.05	361.43
467.42	358.99
467.78	356.38
468.15	353.99
468.52	352.17
468.88	349.74
469.25	347.61
469.62	345.91
469.98	344.04
470.35	342.34
470.72	340.78
471.08	339.03
471.45	337.64
471.82	336.19
472.18	334.61
472.55	333.51
472.92	332.19
473.28	331.01
473.65	329.90
474.02	328.91
474.38	328.08
474.75	327.37
475.11	326.62
475.48	326.09
475.85	325.64
476.21	325.22
476.58	324.86
476.94	324.64
477.31	324.33
477.67	324.11
478.04	323.89
478.41	323.86
478.77	324.05
479.14	324.00
479.50	324.15
479.87	324.48
480.23	324.79
480.60	325.09
480.96	325.44
481.33	326.05
481.69	326.59
482.06	327.08
482.42	327.60
482.79	328.22
483.15	328.99
483.52	329.94
483.88	330.81
484.25	331.79
484.61	332.80
484.98	333.85
485.34	335.19
485.71	336.64
486.07	338.09
486.44	339.43
486.80	341.05
487.17	342.67
487.53	344.45
487.90	346.31
488.26	348.27
488.62	350.35
488.99	352.33
489.35	354.51
489.72	356.90
490.08	359.35
490.44	361.91
490.81	364.60
491.17	367.32
491.54	370.32
491.90	373.35
492.26	376.57
492.63	380.00
492.99	383.46
493.36	387.08
493.72	390.92
494.08	394.93
494.45	399.17
494.81	403.55
495.17	408.02
495.54	412.71
495.90	417.53
496.26	422.50
496.63	427.71
496.99	433.07
497.35	438.64
497.72	444.46
498.08	450.33
498.44	456.40
498.80	462.77
499.17	469.20
499.53	475.90
499.89	482.80
500.26	489.77
500.62	496.81
500.98	504.19
501.34	511.58
501.71	519.35
502.07	527.06
502.43	535.03
502.79	543.15
503.16	551.51
503.52	560.06
503.88	568.74
504.24	577.62
504.60	586.65
504.97	595.83
505.33	605.12
505.69	614.99
506.05	624.84
506.41	634.63
506.78	644.69
507.14	654.85
507.50	665.24
507.86	675.89
508.22	686.63
508.59	697.23
508.95	708.24
509.31	719.39
509.67	730.85
510.03	742.25
510.39	753.92
510.75	765.64
511.12	777.53
511.48	789.55
511.84	801.79
512.20	814.09
512.56	826.58
512.92	839.20
513.28	851.66
513.64	864.31
514.00	877.02
514.37	889.85
514.73	902.82
515.09	915.64
515.45	928.36
515.81	941.24
516.17	954.49
516.53	967.57
516.89	980.52
517.25	993.57
517.61	1006.92
517.97	1020.14
518.33	1033.19
518.69	1046.60
519.05	1060.07
519.41	1073.53
519.77	1087.20
520.13	1100.33
520.49	1113.31
520.85	1126.61
521.21	1139.74
521.57	1153.26
521.93	1166.14
522.29	1179.76
522.65	1193.33
523.01	1206.70
523.37	1219.67
523.73	1232.69
524.09	1245.68
524.45	1258.85
524.81	1272.06
525.17	1285.13
525.53	1298.02
525.89	1310.99
526.25	1323.75
526.61	1336.41
526.97	1349.20
527.33	1361.83
527.68	1375.00
528.04	1388.18
528.40	1400.94
528.76	1414.00
529.12	1426.59
529.48	1439.64
529.84	1451.56
530.20	1463.92
530.56	1476.28
530.91	1489.25
531.27	1501.88
531.63	1514.32
531.99	1526.87
532.35	1538.74
532.71	1550.76
533.07	1563.27
533.42	1575.18
533.78	1586.94
534.14	1598.62
534.50	1609.54
534.86	1620.89
535.21	1631.53
535.57	1642.64
535.93	1653.71
536.29	1664.41
536.65	1675.55
537.00	1686.18
537.36	1697.27
537.72	1707.94
538.08	1718.97
538.44	1729.54
538.79	1740.14
539.15	1750.74
539.51	1760.99
539.87	1772.07
540.22	1782.60
540.58	1793.20
540.94	1803.81
541.29	1813.77
541.65	1823.40
542.01	1833.66
542.37	1843.33
542.72	1853.21
543.08	1862.89
543.44	1872.92
543.79	1882.11
544.15	1891.22
544.51	1900.98
544.87	1910.56
545.22	1919.47
545.58	1927.99
545.94	1936.58
546.29	1944.99
546.65	1953.13
547.01	1961.18
547.36	1968.52
547.72	1976.04
548.07	1983.43
548.43	1990.94
548.79	1998.73
549.14	2006.64
549.50	2014.80
549.86	2022.38
550.21	2029.53
550.57	2036.85
550.92	2043.47
551.28	2050.74
551.64	2057.84
551.99	2065.13
552.35	2072.07
552.70	2078.79
553.06	2085.37
553.41	2091.51
553.77	2097.85
554.13	2104.01
554.48	2110.93
554.84	2117.78
555.19	2124.05
555.55	2130.51
555.90	2136.61
556.26	2143.18
556.61	2148.88
556.97	2153.72
557.32	2159.52
557.68	2165.91
558.03	2171.48
558.39	2176.67
558.74	2182.50
559.10	2188.01
559.45	2193.56
559.81	2199.13
560.16	2204.56
560.52	2210.48
560.87	2216.87
561.23	2222.80
561.58	2229.47
561.94	2234.62
562.29	2239.59
562.64	2245.84
563.00	2251.26
563.35	2256.99
563.71	2262.83
564.06	2268.52
564.42	2274.41
564.77	2279.63
565.12	2284.76
565.48	2290.14
565.83	2295.77
566.19	2301.14
566.54	2306.54
566.89	2311.07
567.25	2315.71
567.60	2321.53
567.96	2326.74
568.31	2331.26
568.66	2335.46
569.02	2339.45
569.37	2343.21
569.72	2347.53
570.08	2351.03
570.43	2354.27
570.78	2357.25
571.14	2359.85
571.49	2362.99
571.84	2366.56
572.20	2369.39
572.55	2372.62
572.90	2374.87
573.26	2377.76
573.61	2380.38
573.96	2382.71
574.31	2384.74
574.67	2386.61
575.02	2387.63
575.37	2389.03
575.72	2390.08
576.08	2391.75
576.43	2392.05
576.78	2392.96
577.13	2394.96
577.49	2396.32
577.84	2397.76
578.19	2399.46
578.54	2400.41
578.90	2401.68
579.25	2401.80
579.60	2402.08
579.95	2401.41
580.30	2401.84
580.66	2401.32
581.01	2399.84
581.36	2397.74
581.71	2396.64
582.06	2395.89
582.42	2395.21
582.77	2393.27
583.12	2391.80
583.47	2390.79
583.82	2390.23
584.17	2389.05
584.53	2386.96
584.88	2385.00
585.23	2383.18
585.58	2381.03
585.93	2378.88
586.28	2376.81
586.63	2374.58
586.98	2372.54
587.34	2370.84
587.69	2368.60
588.04	2366.71
588.39	2365.44
588.74	2363.11
589.09	2360.68
589.44	2357.65
589.79	2355.34
590.14	2353.66
590.49	2350.90
590.84	2347.24
591.19	2344.42
591.54	2341.35
591.89	2337.51
592.25	2334.38
592.60	2330.24
592.95	2326.21
593.30	2322.36
593.65	2318.02
594.00	2313.71
594.35	2310.61
594.70	2306.08
595.05	2301.50
595.40	2296.22
595.75	2290.84
596.10	2287.48
596.45	2282.62
596.80	2278.18
597.15	2273.00
597.50	2267.17
597.85	2262.47
598.19	2257.39
598.54	2251.84
598.89	2246.66
599.24	2242.10
599.59	2236.29
599.94	2230.96
600.29	2225.35
600.64	2219.54
600.99	2213.00
601.34	2207.77
601.69	2201.03
602.04	2194.65
602.39	2188.35
602.74	2182.48
603.08	2176.91
603.43	2170.36
603.78	2163.76
604.13	2156.77
604.48	2149.74
604.83	2143.69
605.18	2137.46
605.53	2130.52
605.87	2123.51
606.22	2116.88
606.57	2109.08
606.92	2101.15
607.27	2094.05
607.62	2087.32
607.96	2080.31
608.31	2073.79
608.66	2066.10
609.01	2058.65
609.36	2051.66
609.70	2044.05
610.05	2036.32
610.40	2028.16
610.75	2019.99
611.10	2012.35
611.44	2003.60
611.79	1994.94
612.14	1984.93
612.49	1974.41
612.83	1965.32
613.18	1956.20
613.53	1946.83
613.88	1937.37
614.22	1928.84
614.57	1919.00
614.92	1908.53
615.27	1898.57
615.61	1888.70
615.96	1879.02
616.31	1869.45
616.65	1860.12
617.00	1850.17
617.35	1840.59
617.70	1830.89
618.04	1820.67
618.39	1810.39
618.74	1800.76
619.08	1791.14
619.43	1782.65
619.78	1774.44
620.12	1765.55
620.47	1755.76
620.82	1745.61
621.16	1735.76
621.51	1725.83
621.85	1715.91
622.20	1705.45
622.55	1694.76
622.89	1684.80
623.24	1674.97
623.59	1665.16
623.93	1655.05
624.28	1645.43
624.62	1635.26
624.97	1624.91
625.32	1615.34
625.66	1606.58
626.01	1597.65
626.35	1588.15
626.70	1577.96
627.04	1567.77
627.39	1557.73
627.73	1548.49
628.08	1539.42
628.43	1529.88
628.77	1520.70
629.12	1511.93
629.46	1504.07
629.81	1495.75
630.15	1486.09
630.50	1476.37
630.84	1465.95
631.19	1456.02
631.53	1446.54
631.88	1436.40
632.22	1426.52
632.57	1417.06
632.91	1406.78
633.26	1397.00
633.60	1387.49
633.95	1378.18
634.29	1368.86
634.64	1359.56
634.98	1349.65
635.32	1340.37
635.67	1331.83
636.01	1322.52
636.36	1312.73
636.70	1303.24
637.05	1293.80
637.39	1284.88
637.73	1276.23
638.08	1268.69
638.42	1260.34
638.77	1251.59
639.11	1243.41
639.45	1235.53
639.80	1227.03
640.14	1218.45
640.49	1209.62
640.83	1200.76
641.17	1192.72
641.52	1184.49
641.86	1175.91
642.20	1168.12
642.55	1159.54
642.89	1150.66
643.23	1141.99
643.58	1133.85
643.92	1124.76
644.26	1116.15
644.61	1107.77
644.95	1099.12
645.29	1089.84
645.64	1080.90
645.98	1072.56
646.32	1064.49
646.66	1055.94
647.01	1047.49
647.35	1039.39
647.69	1030.92
648.04	1022.66
648.38	1013.76
648.72	1005.01
649.06	996.59
649.41	988.31
649.75	980.30
650.09	972.56
650.43	964.59
650.78	956.45
651.12	948.88
651.46	941.52
651.80	934.26
652.14	926.89
652.49	919.37
652.83	912.01
653.17	904.28
653.51	896.73
653.85	889.49
654.20	882.27
654.54	874.81
654.88	867.83
655.22	860.75
655.56	853.77
655.90	847.00
656.25	840.40
656.59	833.54
656.93	826.62
657.27	819.52
657.61	812.64
657.95	806.50
658.29	800.76
658.64	794.60
658.98	788.19
659.32	781.68
659.66	775.47
660.00	769.14
660.34	763.14
660.68	757.15
661.02	750.97
661.36	745.14
661.70	739.39
662.05	733.72
662.39	728.20
662.73	722.92
663.07	717.66
663.41	712.06
663.75	706.50
664.09	700.95
664.43	695.60
664.77	690.22
665.11	684.53
665.45	678.59
665.79	672.90
666.13	667.25
666.47	661.81
666.81	656.52
667.15	651.31
667.49	646.15
667.83	640.86
668.17	635.68
668.51	630.56
668.85	625.70
669.19	620.86
669.53	615.90
669.87	610.85
670.21	606.07
670.55	601.42
670.89	597.09
671.23	592.78
671.57	588.45
671.91	584.30
672.25	580.25
672.58	576.17
672.92	572.14
673.26	568.25
673.60	564.50
673.94	560.66
674.28	557.06
674.62	553.36
674.96	549.75
675.30	546.27
675.64	542.71
675.97	539.15
676.31	535.55
676.65	532.07
676.99	528.66
677.33	524.85
677.67	521.31
678.01	517.45
678.34	513.89
678.68	510.41
679.02	506.80
679.36	503.09
679.70	499.53
680.04	496.05
680.37	492.75
680.71	489.44
681.05	486.39
681.39	483.25
681.73	480.19
682.06	477.16
682.40	474.12
682.74	470.96
683.08	467.82
683.42	464.72
683.75	461.76
684.09	458.83
684.43	456.14
684.77	453.22
685.10	450.42
685.44	447.53
685.78	444.61
686.12	441.93
686.45	439.24
686.79	436.60
687.13	434.15
687.46	431.52
687.80	428.90
688.14	426.06
688.48	423.46
688.81	420.78
689.15	418.25
689.49	415.69
689.82	413.23
690.16	410.68
690.50	408.30
690.83	405.83
691.17	403.29
691.51	400.93
691.84	398.74
692.18	396.59
692.52	394.44
692.85	392.42
693.19	390.33
693.52	388.26
693.86	386.12
694.20	383.97
694.53	381.87
694.87	379.73
695.21	377.67
695.54	375.53
695.88	373.45
696.21	371.27
696.55	369.22
696.88	367.20
697.22	365.30
697.56	363.41
697.89	361.61
698.23	359.91
698.56	358.11
698.90	356.40
699.23	354.50
699.57	352.69
699.90	350.78
700.24	348.99
700.58	347.20
700.91	345.55
701.25	344.00
701.58	342.51
701.92	340.96
702.25	339.39
702.59	337.79
702.92	336.33
703.26	334.87
703.59	333.46
703.93	332.24
704.26	330.86
704.60	329.39
704.93	327.90
705.26	326.42
705.60	324.98
705.93	323.46
706.27	322.23
706.60	320.99
706.94	319.86
707.27	318.47
707.61	317.23
707.94	315.88
708.27	314.38
708.61	312.86
708.94	311.49
709.28	310.26
709.61	309.11
709.94	307.93
710.28	306.73
710.61	305.55
710.95	304.14
711.28	303.06
711.61	301.91
711.95	300.84
712.28	299.69
712.61	298.54
712.95	297.51
713.28	296.48
713.61	295.36
713.95	294.23
714.28	293.27
714.61	292.25
714.95	291.28
715.28	290.27
715.61	289.35
715.95	288.44
716.28	287.47
716.61	286.51
716.95	285.51
717.28	284.56
717.61	283.60
717.94	282.77
718.28	281.82
718.61	280.96
718.94	280.05
719.27	279.25
719.61	278.47
719.94	277.63
720.27	276.71
720.60	275.86
720.94	275.11
721.27	274.39
721.60	273.71
721.93	273.02
722.27	272.44
722.60	271.82
722.93	271.16
723.26	270.53
723.59	269.88
723.93	269.28
724.26	268.70
724.59	268.09
724.92	267.54
725.25	267.02
725.59	266.46
725.92	265.93
726.25	265.38
726.58	264.77
726.91	264.17
727.24	263.62
727.57	263.10
727.91	262.49
728.24	261.91
728.57	261.32
728.90	260.80
729.23	260.21
729.56	259.76
729.89	259.24
730.22	258.67
730.55	258.10
730.89	257.59
731.22	257.07
731.55	256.58
731.88	256.06
732.21	255.49
732.54	254.96
732.87	254.47
733.20	253.98
733.53	253.55
733.86	253.10
734.19	252.60
734.52	252.21
734.85	251.93
735.18	251.50
735.51	251.12
735.84	250.67
736.17	250.32
736.50	249.83
736.83	249.65
737.16	249.29
737.49	248.95
737.82	248.56
738.15	248.25
738.48	247.87
738.81	247.48
739.14	247.09
739.47	246.73
739.80	246.37
740.13	246.03
740.46	245.64
740.79	245.29
741.12	244.97
741.45	244.60
741.78	244.15
742.11	243.87
742.44	243.53
742.77	243.25
743.10	242.91
743.43	242.57
743.75	242.03
744.08	241.94
744.41	241.59
744.74	241.23
745.07	240.81
745.40	240.52
745.73	240.26
746.06	239.97
746.39	239.71
746.71	239.39
747.04	239.07
747.37	238.74
747.70	238.48
748.03	238.18
748.36	237.93
748.68	237.67
749.01	237.31
749.34	237.01
749.67	236.70
750.00	236.43
750.33	236.31
750.65	236.07
750.98	235.59
751.31	235.35
751.64	235.16
751.97	235.04
752.29	234.81
752.62	234.49
752.95	234.24
753.28	233.98
753.60	233.74
753.93	233.58
754.26	233.43
754.59	233.15
754.91	232.94
755.24	232.71
755.57	232.47
755.90	232.30
756.22	232.07
756.55	231.86
756.88	231.62
757.20	231.27
757.53	231.03
757.86	230.83
758.19	230.64
758.51	230.41
758.84	230.11
759.17	229.89
759.49	229.74
759.82	229.63
760.15	229.47
760.47	229.27
760.80	229.02
761.13	228.87
761.45	228.72
761.78	228.51
762.11	228.33
762.43	228.13
762.76	227.95
763.08	227.83
763.41	227.67
763.74	227.52
764.06	227.37
764.39	227.20
764.71	227.07
765.04	226.91
765.37	226.80
765.69	226.66
766.02	226.52
766.34	226.34
766.67	226.12
767.00	226.04
767.32	226.01
767.65	226.00
767.97	225.83
768.30	225.72
768.62	225.61
768.95	225.47
769.27	225.36
769.60	225.25
769.92	225.06
770.25	224.91
770.57	224.76
770.90	224.65
771.22	224.52
771.55	224.38
771.87	224.29
772.20	224.16
772.52	224.22
772.85	224.37
773.17	224.27
773.50	224.17
773.82	224.01
774.15	223.85
774.47	223.63
774.80	223.54
775.12	223.43
775.45	223.35
775.77	223.24
776.09	223.17
776.42	223.04
776.74	223.04
777.07	222.96
777.39	222.88
777.72	222.78
778.04	222.74
778.36	222.64
778.69	222.56
779.01	222.48
779.33	222.23
779.66	221.92
779.98	221.82
780.31	221.76
780.63	221.73
780.95	221.70
781.28	221.64
781.60	221.53
781.92	221.45
782.25	221.36
782.57	221.31
782.89	221.22
783.22	221.15
783.54	221.03
783.86	220.96
784.19	220.92
784.51	220.93
784.83	220.87
785.16	220.79
785.48	220.74
785.80	220.64
786.12	220.61
786.45	220.57
786.77	220.55
787.09	220.49
787.42	220.37
787.74	220.32
788.06	220.26
788.38	220.21
788.71	220.14
789.03	220.13
789.35	220.10
789.67	220.03
789.99	220.01
790.32	219.94
790.64	219.95
790.96	220.05
791.28	219.90
791.61	219.84
791.93	219.82
792.25	219.75
792.57	219.89
792.89	219.81
793.21	219.78
793.54	219.71
793.86	219.64
794.18	219.62
794.50	219.49
794.82	219.44
795.14	219.46
795.47	219.47
795.79	219.41
796.11	219.30
796.43	219.28
796.75	219.25
797.07	219.20
797.39	219.12
797.71	218.94
798.04	218.91
798.36	218.87
798.68	218.85
799.00	218.83
799.32	218.68
799.64	218.67
799.96	218.64
800.28	218.67
800.60	218.64
800.92	218.62
801.24	218.64
801.56	218.64
801.89	218.57
802.21	218.56
802.53	218.51
802.85	218.52
803.17	218.58
803.49	218.51
803.81	218.51
804.13	218.47
804.45	218.42
804.77	218.41
805.09	218.40
805.41	218.32
805.73	218.27
806.05	218.20
806.37	218.15
806.69	218.10
807.01	218.03
807.33	218.01
807.65	217.92
807.97	217.96
808.28	217.88
808.60	217.87
808.92	217.81
809.24	217.92
809.56	217.88
809.88	217.76
810.20	217.75
810.52	217.75
810.84	217.72
811.16	217.67
811.48	217.66
811.80	217.70
812.12	217.68
812.43	217.67
812.75	217.66
813.07	217.61
813.39	217.59
813.71	217.54
814.03	217.51
814.35	217.49
814.67	217.36
814.98	217.33
815.30	217.28
815.62	217.22
815.94	217.01
816.26	217.01
816.58	216.94
816.89	216.97
817.21	216.90
817.53	216.90
817.85	216.87
818.17	216.82
818.48	216.73
818.80	216.77
819.12	216.73
819.44	216.64
819.76	216.59
820.07	216.56
820.39	216.52
820.71	216.51
821.03	216.48
821.34	216.48
821.66	216.50
821.98	216.51
822.30	216.50
822.61	216.60
822.93	216.54
823.25	216.57
823.57	216.51
823.88	216.55
824.20	216.51
824.52	216.55
824.83	216.54
825.15	216.50
825.47	216.47
825.79	216.49
826.10	216.50
826.42	216.49
826.74	216.51
827.05	216.52
827.37	216.51
827.69	216.49
828.00	216.51
828.32	216.49
828.64	216.46
828.95	216.55
829.27	216.54
829.58	216.54
829.90	216.58
830.22	216.56
830.53	216.49
830.85	216.45
831.17	216.39
831.48	216.39
831.80	216.38
832.11	216.32
832.43	216.27
832.75	216.28
833.06	216.38
833.38	216.31
833.69	216.28
834.01	216.29
834.32	216.29
834.64	216.24
834.96	216.23
835.27	216.20
835.59	216.13
835.90	216.06
836.22	216.05
836.53	215.95
836.85	215.96
837.16	216.17
837.48	216.18
837.79	216.25
838.11	216.24
838.42	216.26
838.74	216.29
839.05	216.26
839.37	216.23
839.68	216.10
840.00	216.08
840.31	216.09
840.63	216.04
840.94	216.01
841.26	215.99
841.57	216.02
841.88	216.04
842.20	215.97
842.51	215.93
842.83	215.92
843.14	216.08
843.46	216.05
843.77	215.91
844.08	215.86
844.40	215.80
844.71	215.77
845.03	215.70
845.34	215.70
845.65	215.69
845.97	215.68
846.28	215.70
846.60	215.75
846.91	215.72
847.22	215.70
847.54	215.74
847.85	215.73
848.16	215.69
848.48	215.66
848.79	215.75
849.10	215.78
849.42	215.76
849.73	215.60
850.04	215.59
850.36	215.51
850.67	215.57
850.98	215.53
851.30	215.54
851.61	215.55
851.92	215.52
852.23	215.60
852.55	215.63
852.86	215.62
853.17	215.61
853.49	215.65
853.80	215.75
854.11	215.74
854.42	215.80
854.74	215.78
855.05	215.78
855.36	215.70
855.67	215.69
855.99	215.70
856.30	215.94
856.61	215.96
856.92	215.97
857.23	215.95
857.55	215.94
857.86	215.92
858.17	215.99
858.48	215.98
858.79	215.94
859.11	215.96
859.42	215.94
859.73	215.90
860.04	215.89
860.35	215.79
860.66	215.75
860.98	215.72
861.29	215.71
861.60	215.71
861.91	215.76
862.22	215.75
862.53	215.73
862.84	215.50
863.16	215.53
863.47	215.50
863.78	215.50
864.09	215.53
864.40	215.55
864.71	215.53
865.02	215.56
865.33	215.51
865.64	215.43
865.95	215.48
866.27	215.62
866.58	215.61
866.89	215.60
867.20	215.59
867.51	215.54
867.82	215.56
868.13	215.63
868.44	215.58
868.75	215.61
869.06	215.64
869.37	215.64
869.68	215.58
869.99	215.61
870.30	215.60
870.61	215.62
870.92	215.58
871.23	215.55
871.54	215.55
871.85	215.58
872.16	215.64
872.47	215.60
872.78	215.47
873.09	215.50
873.40	215.50
873.71	215.53
874.02	215.54
874.33	215.48
874.64	215.38
874.95	215.41
875.26	215.36
875.56	215.35
875.87	215.34
876.18	215.32
876.49	215.51
876.80	215.47
877.11	215.44
877.42	215.45
877.73	215.43
878.04	215.38
878.35	215.40
878.66	215.39
878.96	215.39
879.27	215.37
879.58	215.33
879.89	215.36
880.20	215.39
880.51	215.41
880.82	215.45
881.12	215.48
881.43	215.43
881.74	215.42
882.05	215.40
882.36	215.38
882.67	215.42
882.97	215.19
883.28	215.23
883.59	215.23
883.90	215.25
884.21	215.29
884.51	215.27
884.82	215.24
885.13	215.24
885.44	215.24
885.74	215.27
886.05	215.27
886.36	215.27
886.67	215.19
886.98	215.29
887.28	215.29
887.59	215.28
887.90	215.30
888.20	215.30
888.51	215.36
888.82	215.34
889.13	215.35
889.43	215.54
889.74	215.50
890.05	215.52
890.35	215.48
890.66	215.47
890.97	215.50
891.28	215.48
891.58	215.47
891.89	215.48
892.20	215.45
892.50	215.42
892.81	215.37
893.12	215.39
893.42	215.29
893.73	215.30
894.04	215.33
894.34	215.35
894.65	215.34
894.95	215.28
895.26	215.29
895.57	215.36
895.87	215.16
896.18	215.17
896.48	215.16
896.79	215.17
897.10	215.18
897.40	215.18
897.71	215.20
898.01	215.18
898.32	215.19
898.63	215.19
898.93	215.22
899.24	215.25
899.54	215.26
899.85	215.23
900.15	215.25
900.46	215.24
900.76	215.26
901.07	215.24
901.38	215.23
901.68	215.28
901.99	215.17
902.29	215.21
902.60	215.21
902.90	215.20
903.21	215.20
903.51	215.16
903.82	215.21
904.12	215.20
904.43	215.23
904.73	215.20
905.03	215.23
905.34	215.44
905.64	215.42
905.95	215.42
906.25	215.40
906.56	215.34
906.86	215.34
907.17	215.32
907.47	215.35
907.77	215.35
908.08	215.31
908.38	215.36
908.69	215.34
908.99	215.36
909.30	215.36
909.60	215.38
909.90	215.38
910.21	215.31
910.51	215.27
910.81	215.24
911.12	215.26
911.42	215.25
911.73	215.02
912.03	215.04
912.33	215.07
912.64	215.08
912.94	215.07
913.24	215.02
913.55	214.99
913.85	214.95
914.15	214.99
914.46	215.00
914.76	214.96
915.06	214.96
915.37	214.94
915.67	214.96
915.97	214.97
916.27	214.95
916.58	214.96
916.88	214.98
917.18	214.99
917.49	215.12
917.79	215.08
918.09	215.11
918.39	215.15
918.70	215.17
919.00	215.15
919.30	215.25
919.60	215.24
919.91	215.23
920.21	215.28
920.51	215.20
920.81	215.18
921.12	215.20
921.42	215.20
921.72	215.21
922.02	215.20
922.32	215.21
922.63	215.23
922.93	215.34
923.23	215.33
923.53	215.32
923.83	215.19
924.13	215.23
924.44	215.21
924.74	215.26
925.04	215.25
925.34	215.30
925.64	215.23
925.94	215.24
926.24	215.34
926.55	215.29
926.85	215.35
927.15	215.36
927.45	215.40
927.75	215.39
928.05	215.38
928.35	215.37
928.65	215.39
928.95	215.40
929.26	215.28
929.56	215.33
929.86	215.33
930.16	215.31
930.46	215.28
930.76	215.27
931.06	215.18
931.36	215.12
931.66	215.15
931.96	215.17
932.26	215.15
932.56	215.07
932.86	215.09
933.16	215.08
933.46	215.06
933.76	215.02
934.06	215.08
934.36	215.15
934.66	215.10
934.96	215.07
935.26	215.06
935.56	215.11
935.86	215.06
936.16	215.04
936.46	215.02
936.76	215.01
937.06	215.02
937.36	215.02
937.66	215.06
937.96	215.00
938.26	214.96
938.56	214.97
938.86	214.97
939.16	215.04
939.46	215.05
939.76	215.08
940.06	215.07
940.35	215.00
940.65	214.90
940.95	214.93
941.25	214.88
941.55	214.84
941.85	214.81
942.15	214.87
942.45	214.92
942.75	214.92
943.04	214.92
943.34	214.93
943.64	214.91
943.94	214.88
944.24	214.90
944.54	214.92
944.84	214.94
945.13	214.94
945.43	214.87
945.73	214.86
946.03	214.82
946.33	214.79
946.62	214.77
946.92	214.75
947.22	214.81
947.52	214.83
947.82	214.88
948.11	214.90
948.41	214.84
948.71	214.81
949.01	214.81
949.31	214.82
949.60	214.82
949.90	214.85
950.20	214.87
950.50	214.85
950.79	214.83
951.09	214.83
951.39	214.82
951.69	214.83
951.98	214.89
952.28	214.91
952.58	214.91
952.87	214.95
953.17	215.03
953.47	214.99
953.76	215.00
954.06	214.97
954.36	214.91
954.66	214.90
954.95	214.97
955.25	215.01
955.55	215.00
955.84	215.00
956.14	215.06
956.44	215.01
956.73	214.98
957.03	215.02
957.32	215.02
957.62	215.00
957.92	215.02
958.21	215.00
958.51	215.22
958.81	215.24
959.10	215.24
959.40	215.28
959.69	215.28
959.99	215.30
960.29	215.30
960.58	215.28
960.88	215.38
961.17	215.34
961.47	215.35
961.76	215.35
962.06	215.35
962.36	215.29
962.65	215.31
962.95	215.32
963.24	215.30
963.54	215.30
963.83	215.33
964.13	215.34
964.42	215.25
964.72	215.09
965.01	215.11
965.31	215.12
965.60	215.06
965.90	215.19
966.19	215.11
966.49	215.14
966.78	215.13
967.08	215.10
967.37	215.09
967.67	215.03
967.96	215.05
968.26	215.04
968.55	215.04
968.85	215.04
969.14	215.05
969.43	215.05
969.73	215.06
970.02	215.04
970.32	215.02
970.61	215.01
970.91	214.93
971.20	214.88
971.49	214.83
971.79	214.83
972.08	214.68
972.38	214.71
972.67	214.68
972.96	214.73
973.26	214.70
973.55	214.77
973.85	214.75
974.14	214.75
974.43	214.77
974.73	214.77
975.02	214.76
975.31	214.78
975.61	214.77
975.90	214.74
976.19	214.71
976.49	214.70
976.78	214.72
977.07	214.72
977.37	214.76
977.66	214.80
977.95	214.78
978.24	214.77
978.54	214.81
978.83	214.78
979.12	214.76
979.42	214.78
979.71	214.74
980.00	214.72
980.29	214.76
980.59	214.71
980.88	214.72
981.17	214.69
981.46	214.69
981.76	214.71
982.05	214.76
982.34	214.79
982.63	214.81
982.93	214.82
983.22	214.89
983.51	214.91
983.80	214.96
984.09	214.99
984.39	214.98
984.68	214.96
984.97	214.99
985.26	214.98
985.55	214.95
985.85	214.89
986.14	214.94
986.43	214.93
986.72	214.93
987.01	214.87
987.30	214.89
987.59	214.87
987.89	214.88
988.18	214.84
988.47	214.80
988.76	214.79
989.05	214.79
989.34	214.75
989.63	214.78
989.92	214.71
990.22	214.67
990.51	214.67
990.80	214.65
991.09	214.68
991.38	214.76
991.67	214.76
991.96	214.76
992.25	214.77
992.54	214.71
992.83	214.75
993.12	214.75
993.41	214.76
993.70	214.84
993.99	214.86
994.28	214.89
994.58	214.91
994.87	214.90
995.16	214.89
995.45	214.87
995.74	214.78
996.03	214.83
996.32	214.87
996.61	214.93
996.90	214.92
997.19	214.90
997.48	214.85
997.77	214.82
998.06	214.81
998.34	214.80
998.63	214.82
998.92	214.79
999.21	214.80
999.50	214.79
999.79	214.72
1000.08	214.70
1000.37	214.69
1000.66	214.65
1000.95	214.70
1001.24	214.70
1001.53	214.74
1001.82	214.75
1002.11	214.69
1002.40	214.70
1002.68	214.75
1002.97	214.86
1003.26	214.80
1003.55	214.74
1003.84	214.76
1004.13	214.86
1004.42	214.84
1004.71	214.84
1004.99	214.79
1005.28	214.87
1005.57	214.85
1005.86	214.85
1006.15	214.85
1006.44	214.82
1006.72	214.89
1007.01	214.86
1007.30	214.84
1007.59	214.80
1007.88	214.78
1008.17	214.80
1008.45	214.75
1008.74	214.64
1009.03	214.58
1009.32	214.61
1009.60	214.63
1009.89	214.62
1010.18	214.53
1010.47	214.53
1010.76	214.50
1011.04	214.51
1011.33	214.49
1011.62	214.54
1011.91	214.53
1012.19	214.55
1012.48	214.55
1012.77	214.53
1013.05	214.64
1013.34	214.65
1013.63	214.63
1013.92	214.68
1014.20	214.65
1014.49	214.69
1014.78	214.72
1015.06	214.68
1015.35	214.68
1015.64	214.72
1015.92	214.72
1016.21	214.74
1016.50	214.75
1016.78	214.80
1017.07	214.84
1017.36	214.81
1017.64	214.77
1017.93	214.80
1018.22	214.79
1018.50	214.80
1018.79	214.80
1019.08	214.69
1019.36	214.70
1019.65	214.72
1019.93	214.76
1020.22	214.83
1020.51	214.90
1020.79	214.90
1021.08	215.06
1021.36	214.53
1021.65	214.82
1021.94	214.64
1022.22	214.91
1022.51	214.57
1022.79	215.69
1023.08	215.43
1023.36	217.02
1023.65	214.68
>>>>>End Processed Spectral Data<<<<<
