SpectraSuite Data File
++++++++++++++++++++++++++++++++++++
Date: Tue Jan 29 16:36:43 EST 2013
User: group
Dark Spectrum Present: No
Reference Spectrum Present: No
Number of Sampled Component Spectra: 1
Spectrometers: USB2E7196
Integration Time (usec): 65000 (USB2E7196)
Spectra Averaged: 100 (USB2E7196)
Boxcar Smoothing: 10 (USB2E7196)
Correct for Electrical Dark: No (USB2E7196)
Strobe/Lamp Enabled: No (USB2E7196)
Correct for Detector Non-linearity: No (USB2E7196)
Correct for Stray Light: No (USB2E7196)
Number of Pixels in Processed Spectrum: 2048
>>>>>Begin Processed Spectral Data<<<<<
339.09	0.00
339.48	201.97
339.86	203.04
340.24	205.06
340.63	206.55
341.01	210.35
341.39	208.28
341.78	210.44
342.16	212.00
342.54	211.99
342.93	201.10
343.31	211.25
343.69	211.80
344.07	212.28
344.46	212.71
344.84	213.10
345.22	213.25
345.60	213.52
345.99	213.72
346.37	213.83
346.75	213.93
347.13	214.01
347.52	214.09
347.90	214.22
348.28	214.28
348.66	214.36
349.05	214.33
349.43	214.37
349.81	214.45
350.19	214.46
350.57	214.57
350.96	214.67
351.34	214.77
351.72	214.85
352.10	214.95
352.48	215.01
352.87	215.06
353.25	215.16
353.63	215.21
354.01	215.23
354.39	215.31
354.77	215.41
355.15	215.54
355.54	215.60
355.92	215.60
356.30	215.64
356.68	215.83
357.06	215.92
357.44	215.97
357.82	215.99
358.20	216.05
358.58	216.10
358.97	216.19
359.35	216.27
359.73	216.40
360.11	216.48
360.49	216.52
360.87	216.58
361.25	216.66
361.63	216.80
362.01	216.86
362.39	216.89
362.77	216.91
363.15	216.91
363.53	216.92
363.91	216.96
364.29	216.98
364.67	216.79
365.05	216.83
365.43	216.84
365.81	216.87
366.19	216.98
366.57	217.05
366.95	217.01
367.33	216.99
367.71	216.95
368.09	216.95
368.47	216.96
368.85	216.93
369.23	216.92
369.61	216.82
369.99	216.87
370.37	216.90
370.75	217.02
371.13	216.97
371.51	216.92
371.89	216.91
372.27	216.91
372.65	216.90
373.03	216.82
373.41	216.79
373.78	216.74
374.16	216.61
374.54	216.51
374.92	216.47
375.30	216.42
375.68	216.35
376.06	216.31
376.44	216.23
376.82	216.20
377.19	216.15
377.57	216.14
377.95	216.04
378.33	215.98
378.71	215.80
379.09	215.79
379.47	215.78
379.84	215.72
380.22	215.66
380.60	215.60
380.98	215.56
381.36	215.49
381.73	215.41
382.11	215.41
382.49	215.38
382.87	215.30
383.25	215.25
383.62	215.45
384.00	215.38
384.38	215.34
384.76	215.35
385.13	215.42
385.51	215.39
385.89	215.31
386.27	215.28
386.64	215.27
387.02	215.22
387.40	215.18
387.78	215.17
388.15	215.16
388.53	215.12
388.91	215.10
389.29	215.10
389.66	215.11
390.04	215.07
390.42	215.10
390.79	215.12
391.17	215.12
391.55	214.88
391.92	214.89
392.30	214.95
392.68	214.93
393.05	214.87
393.43	214.87
393.81	214.89
394.18	214.86
394.56	214.86
394.94	214.89
395.31	214.88
395.69	214.97
396.06	214.98
396.44	215.02
396.82	215.07
397.19	215.21
397.57	215.23
397.95	215.28
398.32	215.23
398.70	215.29
399.07	215.36
399.45	215.41
399.82	215.49
400.20	215.53
400.58	215.58
400.95	215.58
401.33	215.70
401.70	215.98
402.08	216.04
402.45	216.16
402.83	216.32
403.20	216.44
403.58	216.51
403.95	216.66
404.33	216.82
404.71	216.94
405.08	217.19
405.46	217.37
405.83	217.59
406.21	217.78
406.58	217.99
406.96	218.20
407.33	218.48
407.70	218.75
408.08	219.22
408.45	219.55
408.83	219.93
409.20	220.25
409.58	220.49
409.95	220.96
410.33	221.46
410.70	221.89
411.08	222.44
411.45	223.03
411.82	223.63
412.20	224.33
412.57	225.16
412.95	225.72
413.32	226.52
413.69	227.34
414.07	228.26
414.44	229.25
414.82	230.27
415.19	231.43
415.56	232.62
415.94	233.78
416.31	235.19
416.68	236.62
417.06	238.25
417.43	239.80
417.81	241.58
418.18	243.35
418.55	245.26
418.93	247.31
419.30	249.42
419.67	251.64
420.04	253.90
420.42	256.33
420.79	259.16
421.16	261.97
421.54	264.87
421.91	267.90
422.28	271.00
422.66	274.30
423.03	277.56
423.40	280.92
423.77	284.53
424.15	288.19
424.52	292.03
424.89	296.21
425.26	300.26
425.64	304.13
426.01	308.43
426.38	312.94
426.75	317.50
427.13	322.28
427.50	327.29
427.87	332.57
428.24	337.75
428.61	342.78
428.99	348.30
429.36	354.30
429.73	360.21
430.10	366.11
430.47	372.18
430.85	378.49
431.22	385.15
431.59	392.29
431.96	399.16
432.33	406.66
432.70	413.94
433.08	422.52
433.45	430.56
433.82	438.59
434.19	447.49
434.56	456.23
434.93	464.52
435.30	472.82
435.68	481.93
436.05	490.91
436.42	499.80
436.79	507.96
437.16	516.76
437.53	526.05
437.90	535.30
438.27	544.34
438.64	553.55
439.01	562.22
439.38	569.82
439.75	577.10
440.13	585.56
440.50	593.49
440.87	599.94
441.24	606.61
441.61	613.97
441.98	619.30
442.35	625.66
442.72	632.05
443.09	638.09
443.46	641.88
443.83	644.47
444.20	646.75
444.57	649.96
444.94	651.49
445.31	652.93
445.68	654.26
446.05	654.94
446.42	654.16
446.79	653.17
447.16	652.09
447.53	651.38
447.90	648.05
448.27	644.76
448.64	640.14
449.01	636.86
449.37	630.96
449.74	625.33
450.11	618.33
450.48	610.87
450.85	603.39
451.22	596.89
451.59	590.64
451.96	584.79
452.33	576.88
452.70	569.71
453.07	561.19
453.43	552.54
453.80	544.13
454.17	536.13
454.54	528.55
454.91	520.36
455.28	512.36
455.65	504.92
456.02	497.40
456.38	490.98
456.75	483.08
457.12	476.45
457.49	469.95
457.86	463.78
458.23	458.41
458.59	452.49
458.96	446.46
459.33	441.23
459.70	435.77
460.07	431.50
460.43	426.60
460.80	422.03
461.17	418.06
461.54	413.88
461.91	409.90
462.27	405.79
462.64	402.31
463.01	398.55
463.38	394.83
463.74	391.15
464.11	387.92
464.48	385.12
464.85	382.00
465.21	379.56
465.58	376.99
465.95	373.81
466.32	371.19
466.68	368.60
467.05	365.96
467.42	363.41
467.78	360.70
468.15	358.14
468.52	356.19
468.88	353.65
469.25	351.42
469.62	349.59
469.98	347.59
470.35	345.76
470.72	343.98
471.08	342.22
471.45	340.67
471.82	339.16
472.18	337.45
472.55	336.29
472.92	334.86
473.28	333.56
473.65	332.43
474.02	331.30
474.38	330.33
474.75	329.57
475.11	328.77
475.48	328.16
475.85	327.65
476.21	327.19
476.58	326.81
476.94	326.60
477.31	326.25
477.67	326.00
478.04	325.86
478.41	325.87
478.77	326.01
479.14	325.97
479.50	326.09
479.87	326.40
480.23	326.71
480.60	326.93
480.96	327.23
481.33	327.82
481.69	328.41
482.06	328.93
482.42	329.40
482.79	330.02
483.15	330.82
483.52	331.83
483.88	332.72
484.25	333.65
484.61	334.64
484.98	335.71
485.34	337.04
485.71	338.42
486.07	339.85
486.44	341.16
486.80	342.77
487.17	344.42
487.53	346.25
487.90	348.08
488.26	350.19
488.62	352.32
488.99	354.34
489.35	356.49
489.72	358.91
490.08	361.47
490.44	364.01
490.81	366.70
491.17	369.41
491.54	372.40
491.90	375.47
492.26	378.76
492.63	382.17
492.99	385.67
493.36	389.37
493.72	393.23
494.08	397.24
494.45	401.46
494.81	405.83
495.17	410.20
495.54	414.96
495.90	419.77
496.26	424.75
496.63	430.01
496.99	435.42
497.35	441.00
497.72	446.84
498.08	452.83
498.44	458.95
498.80	465.39
499.17	471.91
499.53	478.67
499.89	485.56
500.26	492.59
500.62	499.70
500.98	507.13
501.34	514.62
501.71	522.48
502.07	530.34
502.43	538.39
502.79	546.61
503.16	554.92
503.52	563.51
503.88	572.23
504.24	581.15
504.60	590.24
504.97	599.54
505.33	608.81
505.69	618.72
506.05	628.64
506.41	638.52
506.78	648.62
507.14	658.86
507.50	669.33
507.86	680.03
508.22	690.79
508.59	701.41
508.95	712.47
509.31	723.69
509.67	735.13
510.03	746.55
510.39	758.33
510.75	770.29
511.12	782.27
511.48	794.42
511.84	806.74
512.20	819.25
512.56	831.91
512.92	844.71
513.28	857.33
513.64	870.15
514.00	883.08
514.37	896.10
514.73	909.30
515.09	922.35
515.45	935.38
515.81	948.60
516.17	962.11
516.53	975.46
516.89	988.67
517.25	1001.96
517.61	1015.55
517.97	1029.10
518.33	1042.38
518.69	1056.04
519.05	1069.81
519.41	1083.62
519.77	1097.49
520.13	1110.84
520.49	1124.11
520.85	1137.59
521.21	1151.03
521.57	1164.72
521.93	1177.89
522.29	1191.75
522.65	1205.45
523.01	1219.10
523.37	1232.26
523.73	1245.70
524.09	1259.00
524.45	1272.54
524.81	1286.16
525.17	1299.66
525.53	1312.87
525.89	1326.19
526.25	1339.43
526.61	1352.45
526.97	1365.65
527.33	1378.70
527.68	1392.27
528.04	1405.88
528.40	1419.15
528.76	1432.60
529.12	1445.56
529.48	1459.02
529.84	1471.42
530.20	1484.26
530.56	1496.97
530.91	1510.31
531.27	1523.25
531.63	1536.16
531.99	1548.97
532.35	1561.24
532.71	1573.74
533.07	1586.72
533.42	1599.11
533.78	1611.27
534.14	1623.48
534.50	1634.84
534.86	1646.52
535.21	1657.52
535.57	1669.26
535.93	1680.57
536.29	1691.85
536.65	1703.39
537.00	1714.46
537.36	1725.85
537.72	1736.96
538.08	1748.51
538.44	1759.80
538.79	1771.01
539.15	1781.95
539.51	1792.78
539.87	1804.20
540.22	1815.10
540.58	1826.18
540.94	1837.20
541.29	1847.67
541.65	1857.50
542.01	1868.00
542.37	1878.15
542.72	1888.45
543.08	1898.29
543.44	1908.89
543.79	1918.12
544.15	1927.76
544.51	1937.78
544.87	1947.88
545.22	1957.16
545.58	1966.11
545.94	1974.89
546.29	1983.41
546.65	1991.77
547.01	2000.29
547.36	2008.19
547.72	2016.00
548.07	2023.75
548.43	2031.51
548.79	2039.35
549.14	2047.56
549.50	2056.17
549.86	2064.27
550.21	2071.85
550.57	2079.61
550.92	2086.45
551.28	2094.16
551.64	2101.53
551.99	2109.25
552.35	2116.40
552.70	2123.45
553.06	2130.19
553.41	2136.72
553.77	2143.26
554.13	2149.77
554.48	2156.72
554.84	2163.77
555.19	2170.57
555.55	2176.89
555.90	2183.31
556.26	2190.43
556.61	2196.62
556.97	2201.40
557.32	2207.14
557.68	2213.40
558.03	2219.08
558.39	2224.48
558.74	2230.38
559.10	2235.88
559.45	2241.40
559.81	2247.03
560.16	2252.46
560.52	2258.25
560.87	2264.55
561.23	2270.60
561.58	2277.23
561.94	2282.47
562.29	2287.10
562.64	2292.93
563.00	2298.57
563.35	2303.96
563.71	2309.47
564.06	2315.04
564.42	2321.04
564.77	2326.05
565.12	2331.36
565.48	2336.52
565.83	2342.09
566.19	2347.62
566.54	2353.05
566.89	2357.60
567.25	2362.18
567.60	2367.99
567.96	2373.11
568.31	2377.60
568.66	2381.77
569.02	2385.53
569.37	2389.08
569.72	2393.44
570.08	2396.92
570.43	2400.18
570.78	2403.47
571.14	2405.91
571.49	2409.01
571.84	2412.46
572.20	2415.38
572.55	2418.39
572.90	2420.64
573.26	2423.27
573.61	2425.70
573.96	2427.64
574.31	2429.63
574.67	2431.30
575.02	2431.98
575.37	2433.46
575.72	2434.19
576.08	2435.55
576.43	2435.82
576.78	2436.36
577.13	2437.89
577.49	2438.94
577.84	2439.75
578.19	2440.97
578.54	2441.55
578.90	2442.23
579.25	2441.96
579.60	2441.77
579.95	2440.83
580.30	2440.83
580.66	2440.18
581.01	2438.46
581.36	2436.12
581.71	2434.50
582.06	2433.17
582.42	2432.18
582.77	2429.74
583.12	2427.99
583.47	2426.70
583.82	2426.04
584.17	2424.57
584.53	2422.40
584.88	2420.37
585.23	2418.60
585.58	2416.03
585.93	2413.90
586.28	2411.51
586.63	2409.16
586.98	2406.79
587.34	2404.77
587.69	2402.26
588.04	2399.92
588.39	2398.34
588.74	2395.71
589.09	2393.01
589.44	2389.88
589.79	2387.35
590.14	2385.35
590.49	2382.39
590.84	2378.26
591.19	2375.00
591.54	2371.86
591.89	2367.71
592.25	2364.45
592.60	2359.97
592.95	2355.81
593.30	2351.50
593.65	2347.00
594.00	2342.42
594.35	2339.45
594.70	2334.68
595.05	2330.05
595.40	2324.56
595.75	2318.78
596.10	2315.09
596.45	2310.12
596.80	2305.57
597.15	2300.34
597.50	2294.37
597.85	2289.27
598.19	2284.08
598.54	2278.22
598.89	2272.86
599.24	2268.39
599.59	2262.03
599.94	2256.21
600.29	2250.24
600.64	2244.31
600.99	2237.50
601.34	2231.94
601.69	2224.81
602.04	2218.45
602.39	2211.80
602.74	2205.81
603.08	2200.15
603.43	2193.53
603.78	2186.75
604.13	2179.53
604.48	2172.10
604.83	2165.91
605.18	2159.75
605.53	2152.74
605.87	2145.70
606.22	2138.87
606.57	2130.83
606.92	2122.81
607.27	2115.82
607.62	2109.06
607.96	2102.02
608.31	2095.62
608.66	2087.85
609.01	2080.22
609.36	2073.00
609.70	2065.26
610.05	2057.32
610.40	2048.97
610.75	2040.58
611.10	2032.91
611.44	2023.97
611.79	2015.19
612.14	2005.33
612.49	1994.62
612.83	1985.37
613.18	1976.13
613.53	1966.84
613.88	1957.17
614.22	1948.63
614.57	1938.70
614.92	1928.16
615.27	1917.83
615.61	1907.59
615.96	1897.85
616.31	1888.17
616.65	1878.80
617.00	1869.05
617.35	1859.36
617.70	1849.63
618.04	1839.65
618.39	1829.36
618.74	1819.68
619.08	1810.15
619.43	1801.33
619.78	1793.16
620.12	1784.40
620.47	1774.71
620.82	1764.34
621.16	1754.57
621.51	1744.57
621.85	1734.72
622.20	1724.38
622.55	1713.91
622.89	1704.00
623.24	1694.36
623.59	1684.51
623.93	1674.26
624.28	1664.42
624.62	1654.37
624.97	1643.99
625.32	1634.19
625.66	1625.27
626.01	1616.66
626.35	1607.25
626.70	1597.20
627.04	1587.09
627.39	1577.04
627.73	1567.78
628.08	1558.90
628.43	1549.38
628.77	1540.14
629.12	1531.33
629.46	1523.47
629.81	1515.11
630.15	1505.68
630.50	1495.88
630.84	1485.42
631.19	1475.65
631.53	1466.26
631.88	1456.18
632.22	1446.34
632.57	1437.04
632.91	1426.84
633.26	1416.83
633.60	1407.22
633.95	1397.96
634.29	1388.53
634.64	1379.20
634.98	1369.20
635.32	1359.87
635.67	1351.33
636.01	1342.10
636.36	1332.34
636.70	1322.77
637.05	1313.39
637.39	1304.61
637.73	1295.99
638.08	1288.55
638.42	1280.38
638.77	1271.67
639.11	1263.34
639.45	1255.44
639.80	1246.87
640.14	1238.16
640.49	1229.38
640.83	1220.53
641.17	1212.34
641.52	1204.09
641.86	1195.42
642.20	1187.60
642.55	1179.00
642.89	1170.12
643.23	1161.51
643.58	1153.30
643.92	1144.27
644.26	1135.51
644.61	1126.85
644.95	1117.99
645.29	1108.59
645.64	1099.34
645.98	1090.81
646.32	1082.87
646.66	1074.32
647.01	1066.00
647.35	1057.87
647.69	1049.51
648.04	1041.29
648.38	1032.40
648.72	1023.70
649.06	1015.29
649.41	1007.02
649.75	999.06
650.09	991.26
650.43	983.18
650.78	974.88
651.12	967.25
651.46	959.86
651.80	952.68
652.14	945.41
652.49	937.99
652.83	930.66
653.17	922.95
653.51	915.35
653.85	908.12
654.20	900.81
654.54	893.32
654.88	886.09
655.22	878.78
655.56	871.73
655.90	864.84
656.25	858.18
656.59	851.25
656.93	844.14
657.27	836.91
657.61	829.84
657.95	823.64
658.29	817.59
658.64	811.50
658.98	804.95
659.32	798.29
659.66	791.96
660.00	785.57
660.34	779.47
660.68	773.22
661.02	766.87
661.36	760.92
661.70	755.07
662.05	749.35
662.39	743.84
662.73	738.43
663.07	733.09
663.41	727.40
663.75	721.68
664.09	715.99
664.43	710.55
664.77	705.24
665.11	699.49
665.45	693.55
665.79	687.65
666.13	681.86
666.47	676.32
666.81	670.95
667.15	665.47
667.49	660.23
667.83	654.96
668.17	649.64
668.51	644.42
668.85	639.45
669.19	634.48
669.53	629.46
669.87	624.28
670.21	619.38
670.55	614.60
670.89	610.12
671.23	605.78
671.57	601.33
671.91	596.97
672.25	592.81
672.58	588.69
672.92	584.64
673.26	580.73
673.60	576.79
673.94	572.85
674.28	569.25
674.62	565.44
674.96	561.66
675.30	558.13
675.64	554.43
675.97	550.80
676.31	547.18
676.65	543.53
676.99	540.07
677.33	536.22
677.67	532.60
678.01	528.71
678.34	525.03
678.68	521.44
679.02	517.82
679.36	513.99
679.70	510.28
680.04	506.67
680.37	503.18
680.71	499.90
681.05	496.76
681.39	493.49
681.73	490.32
682.06	487.27
682.40	484.17
682.74	480.97
683.08	477.76
683.42	474.50
683.75	471.48
684.09	468.47
684.43	465.63
684.77	462.59
685.10	459.67
685.44	456.65
685.78	453.72
686.12	450.94
686.45	448.25
686.79	445.60
687.13	442.98
687.46	440.31
687.80	437.57
688.14	434.61
688.48	431.92
688.81	429.18
689.15	426.56
689.49	423.86
689.82	421.31
690.16	418.64
690.50	416.20
690.83	413.60
691.17	410.99
691.51	408.45
691.84	406.17
692.18	403.95
692.52	401.73
692.85	399.57
693.19	397.36
693.52	395.13
693.86	392.84
694.20	390.61
694.53	388.38
694.87	386.16
695.21	384.06
695.54	381.88
695.88	379.73
696.21	377.44
696.55	375.28
696.88	373.18
697.22	371.22
697.56	369.29
697.89	367.43
698.23	365.65
698.56	363.84
698.90	362.06
699.23	360.14
699.57	358.17
699.90	356.27
700.24	354.41
700.58	352.60
700.91	350.93
701.25	349.35
701.58	347.75
701.92	346.12
702.25	344.44
702.59	342.81
702.92	341.27
703.26	339.74
703.59	338.26
703.93	336.97
704.26	335.49
704.60	333.94
704.93	332.42
705.26	330.88
705.60	329.37
705.93	327.82
706.27	326.48
706.60	325.27
706.94	324.03
707.27	322.68
707.61	321.35
707.94	319.98
708.27	318.43
708.61	316.97
708.94	315.61
709.28	314.29
709.61	313.00
709.94	311.70
710.28	310.44
710.61	309.20
710.95	307.74
711.28	306.67
711.61	305.46
711.95	304.31
712.28	303.07
712.61	301.83
712.95	300.77
713.28	299.68
713.61	298.48
713.95	297.33
714.28	296.27
714.61	295.19
714.95	294.15
715.28	293.15
715.61	292.13
715.95	291.14
716.28	290.21
716.61	289.27
716.95	288.28
717.28	287.36
717.61	286.42
717.94	285.56
718.28	284.50
718.61	283.59
718.94	282.66
719.27	281.81
719.61	281.01
719.94	280.08
720.27	279.11
720.60	278.26
720.94	277.40
721.27	276.62
721.60	275.94
721.93	275.21
722.27	274.54
722.60	273.86
722.93	273.11
723.26	272.42
723.59	271.71
723.93	271.07
724.26	270.41
724.59	269.75
724.92	269.12
725.25	268.57
725.59	267.97
725.92	267.44
726.25	266.89
726.58	266.31
726.91	265.72
727.24	265.19
727.57	264.63
727.91	264.01
728.24	263.45
728.57	262.79
728.90	262.24
729.23	261.60
729.56	261.14
729.89	260.62
730.22	260.01
730.55	259.43
730.89	258.92
731.22	258.35
731.55	257.83
731.88	257.27
732.21	256.70
732.54	256.16
732.87	255.60
733.20	255.10
733.53	254.61
733.86	254.18
734.19	253.68
734.52	253.25
734.85	252.96
735.18	252.45
735.51	252.09
735.84	251.65
736.17	251.28
736.50	250.74
736.83	250.57
737.16	250.21
737.49	249.83
737.82	249.35
738.15	248.98
738.48	248.59
738.81	248.23
739.14	247.80
739.47	247.44
739.80	247.06
740.13	246.72
740.46	246.29
740.79	245.90
741.12	245.54
741.45	245.12
741.78	244.69
742.11	244.44
742.44	244.04
742.77	243.71
743.10	243.37
743.43	243.02
743.75	242.42
744.08	242.30
744.41	241.93
744.74	241.63
745.07	241.26
745.40	240.94
745.73	240.67
746.06	240.34
746.39	240.05
746.71	239.70
747.04	239.35
747.37	239.10
747.70	238.79
748.03	238.49
748.36	238.23
748.68	237.89
749.01	237.53
749.34	237.24
749.67	236.96
750.00	236.67
750.33	236.56
750.65	236.31
750.98	235.83
751.31	235.63
751.64	235.39
751.97	235.28
752.29	235.00
752.62	234.65
752.95	234.39
753.28	234.11
753.60	233.88
753.93	233.68
754.26	233.42
754.59	233.17
754.91	232.90
755.24	232.64
755.57	232.43
755.90	232.18
756.22	231.95
756.55	231.70
756.88	231.44
757.20	231.08
757.53	230.85
757.86	230.61
758.19	230.40
758.51	230.16
758.84	229.84
759.17	229.65
759.49	229.50
759.82	229.42
760.15	229.25
760.47	229.07
760.80	228.81
761.13	228.67
761.45	228.44
761.78	228.25
762.11	228.09
762.43	227.89
762.76	227.73
763.08	227.58
763.41	227.44
763.74	227.30
764.06	227.13
764.39	226.98
764.71	226.83
765.04	226.63
765.37	226.47
765.69	226.29
766.02	226.15
766.34	225.99
766.67	225.80
767.00	225.70
767.32	225.70
767.65	225.69
767.97	225.53
768.30	225.43
768.62	225.33
768.95	225.18
769.27	225.05
769.60	224.97
769.92	224.80
770.25	224.63
770.57	224.44
770.90	224.30
771.22	224.12
771.55	224.02
771.87	223.91
772.20	223.80
772.52	223.88
772.85	223.99
773.17	223.88
773.50	223.72
773.82	223.56
774.15	223.34
774.47	223.11
774.80	223.03
775.12	222.93
775.45	222.81
775.77	222.72
776.09	222.64
776.42	222.53
776.74	222.52
777.07	222.42
777.39	222.37
777.72	222.28
778.04	222.25
778.36	222.14
778.69	222.09
779.01	222.01
779.33	221.74
779.66	221.45
779.98	221.33
780.31	221.28
780.63	221.29
780.95	221.26
781.28	221.17
781.60	221.09
781.92	221.02
782.25	220.97
782.57	220.90
782.89	220.77
783.22	220.66
783.54	220.54
783.86	220.48
784.19	220.41
784.51	220.40
784.83	220.30
785.16	220.25
785.48	220.22
785.80	220.15
786.12	220.11
786.45	220.01
786.77	220.00
787.09	219.92
787.42	219.81
787.74	219.72
788.06	219.67
788.38	219.60
788.71	219.53
789.03	219.47
789.35	219.47
789.67	219.40
789.99	219.39
790.32	219.31
790.64	219.29
790.96	219.37
791.28	219.24
791.61	219.19
791.93	219.16
792.25	219.06
792.57	219.19
792.89	219.10
793.21	219.11
793.54	219.05
793.86	218.98
794.18	218.91
794.50	218.82
794.82	218.78
795.14	218.76
795.47	218.76
795.79	218.70
796.11	218.61
796.43	218.60
796.75	218.55
797.07	218.51
797.39	218.45
797.71	218.30
798.04	218.27
798.36	218.21
798.68	218.16
799.00	218.16
799.32	217.95
799.64	217.97
799.96	217.91
800.28	217.90
800.60	217.87
800.92	217.87
801.24	217.86
801.56	217.85
801.89	217.78
802.21	217.77
802.53	217.71
802.85	217.76
803.17	217.79
803.49	217.71
803.81	217.70
804.13	217.66
804.45	217.59
804.77	217.58
805.09	217.58
805.41	217.54
805.73	217.46
806.05	217.42
806.37	217.36
806.69	217.34
807.01	217.35
807.33	217.32
807.65	217.23
807.97	217.30
808.28	217.26
808.60	217.24
808.92	217.17
809.24	217.28
809.56	217.18
809.88	217.10
810.20	217.10
810.52	217.08
810.84	217.03
811.16	216.99
811.48	216.97
811.80	217.01
812.12	217.00
812.43	217.03
812.75	217.02
813.07	216.99
813.39	216.95
813.71	216.86
814.03	216.83
814.35	216.79
814.67	216.65
814.98	216.61
815.30	216.57
815.62	216.52
815.94	216.36
816.26	216.34
816.58	216.30
816.89	216.31
817.21	216.27
817.53	216.26
817.85	216.24
818.17	216.23
818.48	216.13
818.80	216.14
819.12	216.06
819.44	216.02
819.76	215.95
820.07	215.93
820.39	215.91
820.71	215.90
821.03	215.92
821.34	215.91
821.66	215.89
821.98	215.91
822.30	215.90
822.61	216.02
822.93	215.99
823.25	215.95
823.57	215.93
823.88	215.97
824.20	215.95
824.52	215.99
824.83	215.92
825.15	215.86
825.47	215.81
825.79	215.81
826.10	215.79
826.42	215.77
826.74	215.76
827.05	215.74
827.37	215.76
827.69	215.68
828.00	215.66
828.32	215.66
828.64	215.60
828.95	215.66
829.27	215.61
829.58	215.60
829.90	215.63
830.22	215.61
830.53	215.53
830.85	215.51
831.17	215.45
831.48	215.47
831.80	215.50
832.11	215.49
832.43	215.48
832.75	215.46
833.06	215.60
833.38	215.54
833.69	215.53
834.01	215.50
834.32	215.51
834.64	215.50
834.96	215.51
835.27	215.52
835.59	215.46
835.90	215.39
836.22	215.36
836.53	215.33
836.85	215.28
837.16	215.45
837.48	215.43
837.79	215.46
838.11	215.42
838.42	215.39
838.74	215.42
839.05	215.39
839.37	215.38
839.68	215.23
840.00	215.21
840.31	215.22
840.63	215.21
840.94	215.19
841.26	215.15
841.57	215.11
841.88	215.10
842.20	215.05
842.51	214.99
842.83	214.99
843.14	215.14
843.46	215.14
843.77	215.00
844.08	215.00
844.40	214.96
844.71	214.94
845.03	214.94
845.34	214.88
845.65	214.86
845.97	214.84
846.28	214.86
846.60	214.86
846.91	214.83
847.22	214.81
847.54	214.84
847.85	214.82
848.16	214.80
848.48	214.79
848.79	214.88
849.10	214.90
849.42	214.91
849.73	214.72
850.04	214.70
850.36	214.62
850.67	214.64
850.98	214.60
851.30	214.60
851.61	214.58
851.92	214.59
852.23	214.66
852.55	214.66
852.86	214.67
853.17	214.67
853.49	214.71
853.80	214.76
854.11	214.77
854.42	214.84
854.74	214.83
855.05	214.81
855.36	214.71
855.67	214.71
855.99	214.68
856.30	214.94
856.61	214.93
856.92	214.97
857.23	214.97
857.55	215.00
857.86	214.97
858.17	215.00
858.48	214.95
858.79	214.88
859.11	214.89
859.42	214.88
859.73	214.87
860.04	214.85
860.35	214.79
860.66	214.70
860.98	214.66
861.29	214.70
861.60	214.69
861.91	214.72
862.22	214.72
862.53	214.67
862.84	214.43
863.16	214.50
863.47	214.44
863.78	214.41
864.09	214.38
864.40	214.44
864.71	214.43
865.02	214.47
865.33	214.45
865.64	214.42
865.95	214.40
866.27	214.52
866.58	214.48
866.89	214.48
867.20	214.49
867.51	214.46
867.82	214.43
868.13	214.48
868.44	214.44
868.75	214.44
869.06	214.48
869.37	214.47
869.68	214.40
869.99	214.47
870.30	214.48
870.61	214.53
870.92	214.49
871.23	214.47
871.54	214.47
871.85	214.51
872.16	214.54
872.47	214.52
872.78	214.40
873.09	214.42
873.40	214.40
873.71	214.43
874.02	214.46
874.33	214.43
874.64	214.40
874.95	214.45
875.26	214.43
875.56	214.43
875.87	214.41
876.18	214.41
876.49	214.63
876.80	214.60
877.11	214.56
877.42	214.56
877.73	214.58
878.04	214.54
878.35	214.57
878.66	214.55
878.96	214.53
879.27	214.53
879.58	214.53
879.89	214.54
880.20	214.60
880.51	214.61
880.82	214.63
881.12	214.64
881.43	214.58
881.74	214.56
882.05	214.56
882.36	214.57
882.67	214.58
882.97	214.34
883.28	214.34
883.59	214.34
883.90	214.35
884.21	214.34
884.51	214.37
884.82	214.33
885.13	214.35
885.44	214.36
885.74	214.37
886.05	214.35
886.36	214.34
886.67	214.25
886.98	214.33
887.28	214.32
887.59	214.28
887.90	214.31
888.20	214.30
888.51	214.33
888.82	214.29
889.13	214.31
889.43	214.46
889.74	214.47
890.05	214.48
890.35	214.43
890.66	214.40
890.97	214.35
891.28	214.32
891.58	214.32
891.89	214.34
892.20	214.32
892.50	214.30
892.81	214.29
893.12	214.30
893.42	214.22
893.73	214.22
894.04	214.24
894.34	214.24
894.65	214.22
894.95	214.23
895.26	214.23
895.57	214.33
895.87	214.15
896.18	214.16
896.48	214.15
896.79	214.16
897.10	214.25
897.40	214.28
897.71	214.33
898.01	214.31
898.32	214.31
898.63	214.30
898.93	214.29
899.24	214.27
899.54	214.24
899.85	214.20
900.15	214.20
900.46	214.21
900.76	214.23
901.07	214.24
901.38	214.20
901.68	214.25
901.99	214.12
902.29	214.10
902.60	214.07
902.90	214.08
903.21	214.09
903.51	214.05
903.82	214.12
904.12	214.11
904.43	214.14
904.73	214.12
905.03	214.15
905.34	214.39
905.64	214.39
905.95	214.42
906.25	214.44
906.56	214.41
906.86	214.39
907.17	214.35
907.47	214.34
907.77	214.32
908.08	214.28
908.38	214.33
908.69	214.37
908.99	214.37
909.30	214.39
909.60	214.36
909.90	214.36
910.21	214.26
910.51	214.22
910.81	214.20
911.12	214.27
911.42	214.26
911.73	214.01
912.03	214.03
912.33	214.08
912.64	214.06
912.94	214.06
913.24	214.08
913.55	214.07
913.85	214.09
914.15	214.12
914.46	214.15
914.76	214.10
915.06	214.08
915.37	214.08
915.67	214.05
915.97	214.09
916.27	214.04
916.58	214.06
916.88	214.05
917.18	214.01
917.49	214.11
917.79	214.10
918.09	214.17
918.39	214.21
918.70	214.19
919.00	214.18
919.30	214.31
919.60	214.27
919.91	214.29
920.21	214.32
920.51	214.31
920.81	214.28
921.12	214.34
921.42	214.33
921.72	214.37
922.02	214.35
922.32	214.36
922.63	214.36
922.93	214.45
923.23	214.45
923.53	214.46
923.83	214.31
924.13	214.34
924.44	214.31
924.74	214.36
925.04	214.40
925.34	214.41
925.64	214.27
925.94	214.27
926.24	214.35
926.55	214.28
926.85	214.28
927.15	214.27
927.45	214.24
927.75	214.26
928.05	214.23
928.35	214.22
928.65	214.25
928.95	214.27
929.26	214.21
929.56	214.23
929.86	214.25
930.16	214.23
930.46	214.22
930.76	214.24
931.06	214.09
931.36	214.02
931.66	214.04
931.96	214.08
932.26	214.09
932.56	214.00
932.86	214.06
933.16	214.05
933.46	214.03
933.76	214.03
934.06	214.07
934.36	214.17
934.66	214.19
934.96	214.13
935.26	214.15
935.56	214.18
935.86	214.16
936.16	214.15
936.46	214.17
936.76	214.14
937.06	214.10
937.36	214.15
937.66	214.18
937.96	214.19
938.26	214.14
938.56	214.15
938.86	214.18
939.16	214.21
939.46	214.23
939.76	214.26
940.06	214.25
940.35	214.18
940.65	214.02
940.95	214.05
941.25	214.00
941.55	213.96
941.85	213.91
942.15	213.97
942.45	214.03
942.75	214.01
943.04	214.02
943.34	214.07
943.64	214.06
943.94	214.02
944.24	214.04
944.54	214.05
944.84	214.01
945.13	213.97
945.43	213.93
945.73	213.91
946.03	213.90
946.33	213.84
946.62	213.85
946.92	213.90
947.22	213.90
947.52	213.94
947.82	213.99
948.11	213.99
948.41	213.93
948.71	213.85
949.01	213.86
949.31	213.83
949.60	213.77
949.90	213.81
950.20	213.79
950.50	213.75
950.79	213.73
951.09	213.77
951.39	213.77
951.69	213.74
951.98	213.80
952.28	213.80
952.58	213.82
952.87	213.80
953.17	213.84
953.47	213.77
953.76	213.75
954.06	213.70
954.36	213.68
954.66	213.70
954.95	213.81
955.25	213.82
955.55	213.85
955.84	213.83
956.14	213.80
956.44	213.86
956.73	213.84
957.03	213.88
957.32	213.85
957.62	213.86
957.92	213.91
958.21	213.90
958.51	214.14
958.81	214.16
959.10	214.20
959.40	214.23
959.69	214.25
959.99	214.29
960.29	214.31
960.58	214.31
960.88	214.35
961.17	214.26
961.47	214.27
961.76	214.25
962.06	214.28
962.36	214.29
962.65	214.28
962.95	214.29
963.24	214.27
963.54	214.33
963.83	214.33
964.13	214.33
964.42	214.26
964.72	214.12
965.01	214.13
965.31	214.08
965.60	214.03
965.90	214.19
966.19	214.14
966.49	214.14
966.78	214.14
967.08	214.15
967.37	214.15
967.67	214.13
967.96	214.21
968.26	214.23
968.55	214.23
968.85	214.21
969.14	214.23
969.43	214.23
969.73	214.16
970.02	214.15
970.32	214.09
970.61	214.07
970.91	213.97
971.20	213.93
971.49	213.95
971.79	213.97
972.08	213.81
972.38	213.82
972.67	213.82
972.96	213.85
973.26	213.78
973.55	213.86
973.85	213.84
974.14	213.79
974.43	213.79
974.73	213.78
975.02	213.75
975.31	213.75
975.61	213.77
975.90	213.76
976.19	213.75
976.49	213.80
976.78	213.82
977.07	213.83
977.37	213.89
977.66	213.90
977.95	213.86
978.24	213.89
978.54	213.96
978.83	213.94
979.12	213.92
979.42	213.95
979.71	213.87
980.00	213.87
980.29	213.87
980.59	213.85
980.88	213.90
981.17	213.95
981.46	213.96
981.76	213.96
982.05	214.03
982.34	214.03
982.63	214.02
982.93	214.05
983.22	214.07
983.51	214.06
983.80	214.08
984.09	214.12
984.39	214.10
984.68	214.07
984.97	214.08
985.26	214.06
985.55	214.09
985.85	214.07
986.14	214.10
986.43	214.13
986.72	214.10
987.01	214.03
987.30	214.00
987.59	213.94
987.89	213.95
988.18	213.88
988.47	213.88
988.76	213.85
989.05	213.83
989.34	213.82
989.63	213.88
989.92	213.85
990.22	213.81
990.51	213.77
990.80	213.75
991.09	213.73
991.38	213.73
991.67	213.71
991.96	213.71
992.25	213.72
992.54	213.67
992.83	213.66
993.12	213.62
993.41	213.65
993.70	213.74
993.99	213.77
994.28	213.81
994.58	213.83
994.87	213.79
995.16	213.81
995.45	213.80
995.74	213.74
996.03	213.77
996.32	213.81
996.61	213.90
996.90	213.89
997.19	213.90
997.48	213.89
997.77	213.87
998.06	213.88
998.34	213.86
998.63	213.87
998.92	213.90
999.21	213.97
999.50	213.98
999.79	213.94
1000.08	213.92
1000.37	213.88
1000.66	213.84
1000.95	213.92
1001.24	213.90
1001.53	213.92
1001.82	213.92
1002.11	213.88
1002.40	213.92
1002.68	213.91
1002.97	214.07
1003.26	214.03
1003.55	214.03
1003.84	214.03
1004.13	214.09
1004.42	214.06
1004.71	214.05
1004.99	214.03
1005.28	214.09
1005.57	214.10
1005.86	214.08
1006.15	214.05
1006.44	214.02
1006.72	214.07
1007.01	214.04
1007.30	214.08
1007.59	214.03
1007.88	214.02
1008.17	214.02
1008.45	213.95
1008.74	213.87
1009.03	213.76
1009.32	213.78
1009.60	213.81
1009.89	213.80
1010.18	213.70
1010.47	213.74
1010.76	213.73
1011.04	213.77
1011.33	213.72
1011.62	213.71
1011.91	213.74
1012.19	213.76
1012.48	213.80
1012.77	213.82
1013.05	213.91
1013.34	213.91
1013.63	213.90
1013.92	213.94
1014.20	213.94
1014.49	213.94
1014.78	213.98
1015.06	213.94
1015.35	213.93
1015.64	213.95
1015.92	213.97
1016.21	213.97
1016.50	213.95
1016.78	214.02
1017.07	213.99
1017.36	213.97
1017.64	213.94
1017.93	213.95
1018.22	213.95
1018.50	213.94
1018.79	213.89
1019.08	213.82
1019.36	213.83
1019.65	213.86
1019.93	213.90
1020.22	213.92
1020.51	214.05
1020.79	214.02
1021.08	213.92
1021.36	213.28
1021.65	213.83
1021.94	214.37
1022.22	214.08
1022.51	213.99
1022.79	215.13
1023.08	214.00
1023.36	216.32
1023.65	213.06
>>>>>End Processed Spectral Data<<<<<
