SpectraSuite Data File
++++++++++++++++++++++++++++++++++++
Date: Tue Jan 29 16:45:45 EST 2013
User: group
Dark Spectrum Present: No
Reference Spectrum Present: No
Number of Sampled Component Spectra: 1
Spectrometers: USB2E7196
Integration Time (usec): 65000 (USB2E7196)
Spectra Averaged: 100 (USB2E7196)
Boxcar Smoothing: 10 (USB2E7196)
Correct for Electrical Dark: No (USB2E7196)
Strobe/Lamp Enabled: No (USB2E7196)
Correct for Detector Non-linearity: No (USB2E7196)
Correct for Stray Light: No (USB2E7196)
Number of Pixels in Processed Spectrum: 2048
>>>>>Begin Processed Spectral Data<<<<<
339.09	0.00
339.48	201.77
339.86	203.01
340.24	204.72
340.63	206.35
341.01	210.52
341.39	208.55
341.78	210.35
342.16	210.71
342.54	211.56
342.93	200.90
343.31	211.06
343.69	211.62
344.07	212.09
344.46	212.53
344.84	212.92
345.22	213.09
345.60	213.36
345.99	213.54
346.37	213.68
346.75	213.78
347.13	213.86
347.52	213.93
347.90	214.07
348.28	214.10
348.66	214.20
349.05	214.14
349.43	214.23
349.81	214.29
350.19	214.30
350.57	214.37
350.96	214.50
351.34	214.57
351.72	214.63
352.10	214.75
352.48	214.80
352.87	214.84
353.25	214.89
353.63	214.95
354.01	214.98
354.39	215.08
354.77	215.17
355.15	215.28
355.54	215.35
355.92	215.33
356.30	215.39
356.68	215.59
357.06	215.68
357.44	215.69
357.82	215.72
358.20	215.84
358.58	215.93
358.97	216.01
359.35	216.11
359.73	216.23
360.11	216.27
360.49	216.35
360.87	216.39
361.25	216.47
361.63	216.60
362.01	216.67
362.39	216.71
362.77	216.76
363.15	216.75
363.53	216.75
363.91	216.80
364.29	216.81
364.67	216.58
365.05	216.61
365.43	216.64
365.81	216.69
366.19	216.79
366.57	216.86
366.95	216.83
367.33	216.79
367.71	216.77
368.09	216.79
368.47	216.79
368.85	216.74
369.23	216.78
369.61	216.69
369.99	216.75
370.37	216.75
370.75	216.81
371.13	216.79
371.51	216.76
371.89	216.74
372.27	216.74
372.65	216.76
373.03	216.76
373.41	216.71
373.78	216.66
374.16	216.50
374.54	216.39
374.92	216.33
375.30	216.29
375.68	216.23
376.06	216.21
376.44	216.16
376.82	216.18
377.19	216.12
377.57	216.07
377.95	215.98
378.33	215.92
378.71	215.79
379.09	215.81
379.47	215.81
379.84	215.73
380.22	215.67
380.60	215.62
380.98	215.54
381.36	215.49
381.73	215.42
382.11	215.46
382.49	215.43
382.87	215.34
383.25	215.30
383.62	215.49
384.00	215.39
384.38	215.34
384.76	215.34
385.13	215.39
385.51	215.36
385.89	215.29
386.27	215.26
386.64	215.29
387.02	215.22
387.40	215.18
387.78	215.18
388.15	215.19
388.53	215.15
388.91	215.14
389.29	215.12
389.66	215.13
390.04	215.06
390.42	215.06
390.79	215.05
391.17	215.06
391.55	214.81
391.92	214.80
392.30	214.82
392.68	214.76
393.05	214.74
393.43	214.73
393.81	214.73
394.18	214.69
394.56	214.66
394.94	214.71
395.31	214.69
395.69	214.76
396.06	214.80
396.44	214.80
396.82	214.80
397.19	214.93
397.57	214.95
397.95	215.01
398.32	215.00
398.70	215.08
399.07	215.14
399.45	215.20
399.82	215.30
400.20	215.31
400.58	215.35
400.95	215.32
401.33	215.42
401.70	215.66
402.08	215.79
402.45	215.89
402.83	215.97
403.20	216.10
403.58	216.15
403.95	216.29
404.33	216.48
404.71	216.62
405.08	216.86
405.46	217.05
405.83	217.26
406.21	217.46
406.58	217.70
406.96	217.94
407.33	218.22
407.70	218.47
408.08	218.94
408.45	219.29
408.83	219.72
409.20	220.08
409.58	220.35
409.95	220.78
410.33	221.28
410.70	221.78
411.08	222.33
411.45	222.95
411.82	223.56
412.20	224.24
412.57	225.06
412.95	225.62
413.32	226.42
413.69	227.25
414.07	228.20
414.44	229.16
414.82	230.19
415.19	231.37
415.56	232.62
415.94	233.83
416.31	235.34
416.68	236.73
417.06	238.32
417.43	239.92
417.81	241.68
418.18	243.46
418.55	245.39
418.93	247.40
419.30	249.50
419.67	251.73
420.04	254.05
420.42	256.43
420.79	259.31
421.16	262.15
421.54	265.07
421.91	268.03
422.28	271.17
422.66	274.48
423.03	277.77
423.40	281.16
423.77	284.74
424.15	288.38
424.52	292.24
424.89	296.41
425.26	300.51
425.64	304.41
426.01	308.75
426.38	313.23
426.75	317.82
427.13	322.56
427.50	327.58
427.87	332.80
428.24	338.08
428.61	343.04
428.99	348.56
429.36	354.60
429.73	360.55
430.10	366.42
430.47	372.50
430.85	378.80
431.22	385.54
431.59	392.72
431.96	399.55
432.33	407.11
432.70	414.39
433.08	422.93
433.45	431.01
433.82	439.01
434.19	447.95
434.56	456.69
434.93	465.09
435.30	473.42
435.68	482.58
436.05	491.60
436.42	500.59
436.79	508.78
437.16	517.53
437.53	526.83
437.90	536.08
438.27	545.04
438.64	554.34
439.01	562.85
439.38	570.38
439.75	577.67
440.13	586.09
440.50	594.13
440.87	600.56
441.24	607.18
441.61	614.58
441.98	619.95
442.35	626.35
442.72	632.72
443.09	638.76
443.46	642.50
443.83	644.99
444.20	647.19
444.57	650.37
444.94	651.92
445.31	653.40
445.68	654.79
446.05	655.51
446.42	654.76
446.79	653.82
447.16	652.84
447.53	652.16
447.90	648.80
448.27	645.45
448.64	640.85
449.01	637.54
449.37	631.60
449.74	625.94
450.11	618.98
450.48	611.59
450.85	604.20
451.22	597.71
451.59	591.59
451.96	585.77
452.33	577.87
452.70	570.65
453.07	562.13
453.43	553.45
453.80	545.05
454.17	536.98
454.54	529.41
454.91	521.11
455.28	513.09
455.65	505.64
456.02	498.16
456.38	491.76
456.75	483.87
457.12	477.29
457.49	470.73
457.86	464.52
458.23	459.02
458.59	452.97
458.96	446.94
459.33	441.61
459.70	436.17
460.07	431.97
460.43	427.10
460.80	422.48
461.17	418.47
461.54	414.25
461.91	410.20
462.27	406.10
462.64	402.71
463.01	398.90
463.38	395.23
463.74	391.48
464.11	388.25
464.48	385.42
464.85	382.35
465.21	379.87
465.58	377.20
465.95	374.08
466.32	371.47
466.68	368.84
467.05	366.22
467.42	363.67
467.78	360.88
468.15	358.31
468.52	356.38
468.88	353.86
469.25	351.65
469.62	349.85
469.98	347.87
470.35	346.02
470.72	344.30
471.08	342.46
471.45	340.93
471.82	339.36
472.18	337.69
472.55	336.42
472.92	335.04
473.28	333.82
473.65	332.63
474.02	331.43
474.38	330.55
474.75	329.79
475.11	328.95
475.48	328.35
475.85	327.83
476.21	327.30
476.58	326.89
476.94	326.60
477.31	326.24
477.67	325.98
478.04	325.80
478.41	325.75
478.77	325.93
479.14	325.86
479.50	325.99
479.87	326.21
480.23	326.53
480.60	326.80
480.96	327.08
481.33	327.74
481.69	328.33
482.06	328.82
482.42	329.29
482.79	329.87
483.15	330.69
483.52	331.67
483.88	332.58
484.25	333.56
484.61	334.57
484.98	335.61
485.34	336.92
485.71	338.29
486.07	339.75
486.44	341.05
486.80	342.71
487.17	344.40
487.53	346.29
487.90	348.15
488.26	350.18
488.62	352.30
488.99	354.33
489.35	356.48
489.72	358.91
490.08	361.45
490.44	364.00
490.81	366.69
491.17	369.41
491.54	372.36
491.90	375.39
492.26	378.63
492.63	382.05
492.99	385.54
493.36	389.15
493.72	393.00
494.08	396.96
494.45	401.12
494.81	405.44
495.17	409.83
495.54	414.51
495.90	419.28
496.26	424.22
496.63	429.41
496.99	434.84
497.35	440.33
497.72	446.09
498.08	452.07
498.44	458.17
498.80	464.59
499.17	471.08
499.53	477.80
499.89	484.72
500.26	491.76
500.62	498.82
500.98	506.27
501.34	513.78
501.71	521.57
502.07	529.40
502.43	537.36
502.79	545.52
503.16	553.94
503.52	562.52
503.88	571.24
504.24	580.20
504.60	589.22
504.97	598.50
505.33	607.81
505.69	617.63
506.05	627.48
506.41	637.32
506.78	647.38
507.14	657.66
507.50	668.08
507.86	678.72
508.22	689.47
508.59	700.18
508.95	711.20
509.31	722.51
509.67	734.06
510.03	745.49
510.39	757.19
510.75	769.00
511.12	780.93
511.48	792.92
511.84	805.18
512.20	817.50
512.56	830.13
512.92	842.93
513.28	855.62
513.64	868.40
514.00	881.23
514.37	894.25
514.73	907.38
515.09	920.42
515.45	933.33
515.81	946.39
516.17	959.80
516.53	973.06
516.89	986.11
517.25	999.29
517.61	1012.88
517.97	1026.34
518.33	1039.58
518.69	1053.22
519.05	1067.19
519.41	1080.92
519.77	1094.88
520.13	1108.31
520.49	1121.51
520.85	1134.85
521.21	1148.23
521.57	1161.91
521.93	1174.98
522.29	1188.75
522.65	1202.46
523.01	1216.17
523.37	1229.39
523.73	1242.80
524.09	1256.07
524.45	1269.66
524.81	1283.16
525.17	1296.46
525.53	1309.83
525.89	1323.16
526.25	1336.29
526.61	1349.11
526.97	1362.29
527.33	1375.18
527.68	1388.69
528.04	1402.29
528.40	1415.57
528.76	1429.05
529.12	1442.02
529.48	1455.45
529.84	1467.78
530.20	1480.58
530.56	1493.33
530.91	1506.71
531.27	1519.58
531.63	1532.29
531.99	1544.93
532.35	1557.16
532.71	1569.72
533.07	1582.64
533.42	1594.92
533.78	1607.14
534.14	1619.23
534.50	1630.46
534.86	1642.27
535.21	1653.07
535.57	1664.77
535.93	1676.08
536.29	1687.16
536.65	1698.75
537.00	1709.83
537.36	1721.36
537.72	1732.42
538.08	1743.82
538.44	1754.88
538.79	1766.07
539.15	1777.17
539.51	1788.23
539.87	1799.72
540.22	1810.56
540.58	1821.53
540.94	1832.64
541.29	1843.05
541.65	1852.92
542.01	1863.59
542.37	1873.70
542.72	1884.14
543.08	1893.84
543.44	1904.34
543.79	1913.71
544.15	1923.17
544.51	1933.06
544.87	1942.87
545.22	1952.21
545.58	1961.12
545.94	1970.08
546.29	1978.62
546.65	1987.11
547.01	1995.30
547.36	2003.03
547.72	2010.92
548.07	2018.61
548.43	2026.25
548.79	2034.10
549.14	2042.39
549.50	2050.81
549.86	2058.83
550.21	2066.29
550.57	2074.09
550.92	2081.00
551.28	2088.55
551.64	2095.86
551.99	2103.54
552.35	2110.82
552.70	2117.68
553.06	2124.40
553.41	2130.75
553.77	2137.35
554.13	2143.69
554.48	2150.80
554.84	2157.95
555.19	2164.64
555.55	2171.02
555.90	2177.49
556.26	2184.37
556.61	2190.59
556.97	2195.43
557.32	2201.21
557.68	2207.66
558.03	2213.36
558.39	2218.78
558.74	2224.89
559.10	2230.38
559.45	2235.92
559.81	2241.36
560.16	2247.03
560.52	2252.92
560.87	2259.20
561.23	2264.99
561.58	2271.66
561.94	2277.00
562.29	2281.55
562.64	2287.46
563.00	2292.88
563.35	2298.33
563.71	2303.92
564.06	2309.35
564.42	2315.32
564.77	2320.31
565.12	2325.43
565.48	2330.46
565.83	2335.82
566.19	2340.99
566.54	2346.32
566.89	2350.84
567.25	2355.53
567.60	2360.99
567.96	2366.04
568.31	2370.60
568.66	2374.89
569.02	2378.61
569.37	2382.07
569.72	2386.45
570.08	2389.84
570.43	2393.08
570.78	2396.01
571.14	2398.50
571.49	2401.62
571.84	2405.12
572.20	2407.95
572.55	2410.94
572.90	2413.12
573.26	2415.74
573.61	2418.22
573.96	2420.24
574.31	2422.27
574.67	2424.14
575.02	2424.80
575.37	2426.03
575.72	2426.40
576.08	2427.67
576.43	2427.71
576.78	2428.15
577.13	2429.67
577.49	2430.69
577.84	2431.43
578.19	2432.69
578.54	2433.14
578.90	2433.66
579.25	2433.20
579.60	2433.08
579.95	2431.95
580.30	2431.90
580.66	2431.34
581.01	2429.56
581.36	2427.06
581.71	2425.36
582.06	2423.96
582.42	2423.03
582.77	2420.61
583.12	2418.99
583.47	2417.41
583.82	2416.76
584.17	2415.23
584.53	2412.86
584.88	2410.53
585.23	2408.68
585.58	2406.29
585.93	2404.15
586.28	2401.79
586.63	2399.23
586.98	2396.74
587.34	2394.69
587.69	2392.04
588.04	2389.54
588.39	2387.96
588.74	2385.38
589.09	2382.59
589.44	2379.09
589.79	2376.30
590.14	2374.24
590.49	2371.28
590.84	2367.31
591.19	2363.90
591.54	2360.58
591.89	2356.44
592.25	2353.18
592.60	2348.94
592.95	2344.65
593.30	2340.33
593.65	2335.86
594.00	2331.28
594.35	2328.17
594.70	2323.41
595.05	2318.92
595.40	2313.42
595.75	2307.50
596.10	2303.85
596.45	2298.95
596.80	2294.34
597.15	2289.12
597.50	2283.20
597.85	2278.19
598.19	2273.05
598.54	2267.36
598.89	2261.99
599.24	2257.33
599.59	2251.06
599.94	2244.94
600.29	2238.84
600.64	2232.98
600.99	2226.02
601.34	2220.80
601.69	2213.65
602.04	2207.34
602.39	2200.61
602.74	2194.54
603.08	2189.06
603.43	2182.47
603.78	2175.57
604.13	2168.41
604.48	2161.20
604.83	2155.04
605.18	2148.86
605.53	2141.87
605.87	2134.66
606.22	2127.78
606.57	2119.88
606.92	2112.02
607.27	2105.16
607.62	2098.65
607.96	2091.52
608.31	2085.08
608.66	2077.02
609.01	2069.52
609.36	2062.43
609.70	2054.68
610.05	2046.81
610.40	2038.33
610.75	2029.95
611.10	2022.20
611.44	2013.28
611.79	2004.58
612.14	1994.60
612.49	1983.89
612.83	1974.54
613.18	1965.33
613.53	1956.11
613.88	1946.45
614.22	1937.78
614.57	1927.99
614.92	1917.29
615.27	1907.07
615.61	1897.09
615.96	1887.53
616.31	1877.86
616.65	1868.24
617.00	1858.50
617.35	1848.99
617.70	1839.41
618.04	1829.57
618.39	1819.48
618.74	1810.06
619.08	1800.37
619.43	1791.77
619.78	1783.64
620.12	1775.12
620.47	1765.69
620.82	1755.48
621.16	1745.80
621.51	1735.97
621.85	1726.14
622.20	1716.03
622.55	1705.52
622.89	1695.58
623.24	1685.93
623.59	1676.29
623.93	1666.28
624.28	1656.64
624.62	1646.57
624.97	1636.43
625.32	1626.57
625.66	1617.69
626.01	1608.86
626.35	1599.61
626.70	1589.62
627.04	1579.39
627.39	1569.28
627.73	1560.07
628.08	1551.25
628.43	1541.86
628.77	1532.74
629.12	1523.99
629.46	1516.13
629.81	1507.85
630.15	1498.38
630.50	1488.66
630.84	1478.13
631.19	1468.40
631.53	1459.24
631.88	1449.21
632.22	1439.24
632.57	1430.06
632.91	1419.99
633.26	1410.20
633.60	1400.72
633.95	1391.49
634.29	1382.31
634.64	1372.99
634.98	1362.95
635.32	1353.73
635.67	1345.25
636.01	1335.99
636.36	1326.30
636.70	1316.76
637.05	1307.56
637.39	1298.80
637.73	1290.26
638.08	1282.88
638.42	1274.74
638.77	1265.95
639.11	1257.66
639.45	1249.85
639.80	1241.29
640.14	1232.73
640.49	1224.00
640.83	1215.21
641.17	1207.03
641.52	1198.87
641.86	1190.39
642.20	1182.70
642.55	1174.00
642.89	1165.11
643.23	1156.54
643.58	1148.37
643.92	1139.48
644.26	1130.80
644.61	1122.37
644.95	1113.59
645.29	1104.36
645.64	1095.24
645.98	1086.74
646.32	1078.96
646.66	1070.48
647.01	1062.26
647.35	1054.07
647.69	1045.88
648.04	1037.68
648.38	1028.90
648.72	1020.16
649.06	1011.77
649.41	1003.57
649.75	995.69
650.09	987.97
650.43	979.94
650.78	971.72
651.12	964.05
651.46	956.67
651.80	949.43
652.14	942.20
652.49	934.73
652.83	927.42
653.17	919.79
653.51	912.10
653.85	904.84
654.20	897.57
654.54	890.13
654.88	882.83
655.22	875.62
655.56	868.68
655.90	861.92
656.25	855.21
656.59	848.35
656.93	841.40
657.27	834.26
657.61	827.23
657.95	821.17
658.29	815.18
658.64	809.05
658.98	802.56
659.32	796.00
659.66	789.77
660.00	783.49
660.34	777.42
660.68	771.33
661.02	765.07
661.36	759.09
661.70	753.33
662.05	747.73
662.39	742.17
662.73	736.74
663.07	731.33
663.41	725.72
663.75	719.99
664.09	714.28
664.43	708.83
664.77	703.58
665.11	697.72
665.45	691.84
665.79	686.01
666.13	680.37
666.47	674.86
666.81	669.36
667.15	663.90
667.49	658.69
667.83	653.44
668.17	648.19
668.51	643.05
668.85	638.08
669.19	633.15
669.53	628.16
669.87	623.03
670.21	618.21
670.55	613.49
670.89	609.01
671.23	604.69
671.57	600.31
671.91	595.99
672.25	591.84
672.58	587.71
672.92	583.61
673.26	579.68
673.60	575.77
673.94	572.00
674.28	568.45
674.62	564.69
674.96	560.89
675.30	557.41
675.64	553.73
675.97	550.09
676.31	546.47
676.65	542.86
676.99	539.40
677.33	535.57
677.67	531.96
678.01	528.11
678.34	524.42
678.68	520.87
679.02	517.28
679.36	513.50
679.70	509.80
680.04	506.24
680.37	502.72
680.71	499.38
681.05	496.16
681.39	492.80
681.73	489.61
682.06	486.57
682.40	483.44
682.74	480.25
683.08	477.03
683.42	473.78
683.75	470.78
684.09	467.69
684.43	464.87
684.77	461.92
685.10	459.08
685.44	456.12
685.78	453.20
686.12	450.41
686.45	447.65
686.79	445.02
687.13	442.44
687.46	439.84
687.80	437.15
688.14	434.27
688.48	431.63
688.81	428.97
689.15	426.37
689.49	423.72
689.82	421.18
690.16	418.58
690.50	416.14
690.83	413.54
691.17	410.98
691.51	408.47
691.84	406.14
692.18	403.83
692.52	401.64
692.85	399.51
693.19	397.30
693.52	395.19
693.86	392.94
694.20	390.77
694.53	388.55
694.87	386.32
695.21	384.16
695.54	381.97
695.88	379.73
696.21	377.48
696.55	375.29
696.88	373.19
697.22	371.17
697.56	369.20
697.89	367.33
698.23	365.60
698.56	363.75
698.90	361.99
699.23	360.09
699.57	358.21
699.90	356.23
700.24	354.38
700.58	352.60
700.91	350.88
701.25	349.24
701.58	347.64
701.92	346.04
702.25	344.38
702.59	342.70
702.92	341.16
703.26	339.57
703.59	338.09
703.93	336.80
704.26	335.36
704.60	333.87
704.93	332.40
705.26	330.83
705.60	329.38
705.93	327.83
706.27	326.48
706.60	325.19
706.94	323.96
707.27	322.55
707.61	321.14
707.94	319.78
708.27	318.25
708.61	316.75
708.94	315.38
709.28	314.08
709.61	312.85
709.94	311.58
710.28	310.35
710.61	309.18
710.95	307.74
711.28	306.66
711.61	305.46
711.95	304.28
712.28	303.08
712.61	301.87
712.95	300.81
713.28	299.75
713.61	298.55
713.95	297.41
714.28	296.40
714.61	295.33
714.95	294.30
715.28	293.27
715.61	292.23
715.95	291.21
716.28	290.26
716.61	289.30
716.95	288.26
717.28	287.32
717.61	286.31
717.94	285.37
718.28	284.33
718.61	283.40
718.94	282.50
719.27	281.65
719.61	280.82
719.94	279.90
720.27	278.91
720.60	278.09
720.94	277.24
721.27	276.44
721.60	275.74
721.93	275.00
722.27	274.35
722.60	273.67
722.93	272.95
723.26	272.24
723.59	271.50
723.93	270.92
724.26	270.27
724.59	269.58
724.92	268.97
725.25	268.43
725.59	267.86
725.92	267.27
726.25	266.68
726.58	266.06
726.91	265.44
727.24	264.90
727.57	264.31
727.91	263.69
728.24	263.14
728.57	262.52
728.90	261.96
729.23	261.32
729.56	260.89
729.89	260.31
730.22	259.72
730.55	259.19
730.89	258.64
731.22	258.06
731.55	257.57
731.88	257.04
732.21	256.45
732.54	255.88
732.87	255.41
733.20	254.95
733.53	254.46
733.86	254.02
734.19	253.57
734.52	253.12
734.85	252.85
735.18	252.34
735.51	252.03
735.84	251.57
736.17	251.22
736.50	250.69
736.83	250.57
737.16	250.22
737.49	249.84
737.82	249.42
738.15	249.11
738.48	248.71
738.81	248.32
739.14	247.91
739.47	247.52
739.80	247.10
740.13	246.73
740.46	246.35
740.79	245.98
741.12	245.57
741.45	245.18
741.78	244.70
742.11	244.45
742.44	244.03
742.77	243.74
743.10	243.38
743.43	242.99
743.75	242.39
744.08	242.31
744.41	241.91
744.74	241.55
745.07	241.14
745.40	240.85
745.73	240.59
746.06	240.27
746.39	239.97
746.71	239.63
747.04	239.26
747.37	238.95
747.70	238.64
748.03	238.33
748.36	238.10
748.68	237.79
749.01	237.41
749.34	237.10
749.67	236.80
750.00	236.53
750.33	236.43
750.65	236.18
750.98	235.63
751.31	235.43
751.64	235.19
751.97	235.08
752.29	234.82
752.62	234.45
752.95	234.21
753.28	233.92
753.60	233.70
753.93	233.52
754.26	233.29
754.59	233.03
754.91	232.77
755.24	232.51
755.57	232.28
755.90	232.02
756.22	231.77
756.55	231.52
756.88	231.24
757.20	230.89
757.53	230.62
757.86	230.40
758.19	230.18
758.51	229.97
758.84	229.64
759.17	229.39
759.49	229.22
759.82	229.13
760.15	228.97
760.47	228.75
760.80	228.51
761.13	228.34
761.45	228.11
761.78	227.97
762.11	227.76
762.43	227.60
762.76	227.47
763.08	227.34
763.41	227.18
763.74	227.05
764.06	226.88
764.39	226.71
764.71	226.54
765.04	226.36
765.37	226.23
765.69	226.08
766.02	225.96
766.34	225.84
766.67	225.59
767.00	225.52
767.32	225.49
767.65	225.48
767.97	225.32
768.30	225.25
768.62	225.09
768.95	224.97
769.27	224.81
769.60	224.72
769.92	224.55
770.25	224.39
770.57	224.21
770.90	224.10
771.22	224.00
771.55	223.92
771.87	223.83
772.20	223.69
772.52	223.73
772.85	223.86
773.17	223.72
773.50	223.61
773.82	223.45
774.15	223.25
774.47	223.05
774.80	222.92
775.12	222.80
775.45	222.71
775.77	222.62
776.09	222.55
776.42	222.46
776.74	222.43
777.07	222.32
777.39	222.23
777.72	222.11
778.04	222.05
778.36	221.94
778.69	221.84
779.01	221.79
779.33	221.59
779.66	221.27
779.98	221.16
780.31	221.09
780.63	221.08
780.95	221.00
781.28	220.92
781.60	220.82
781.92	220.77
782.25	220.69
782.57	220.65
782.89	220.55
783.22	220.43
783.54	220.34
783.86	220.28
784.19	220.24
784.51	220.25
784.83	220.15
785.16	220.07
785.48	220.02
785.80	219.92
786.12	219.83
786.45	219.79
786.77	219.76
787.09	219.72
787.42	219.58
787.74	219.54
788.06	219.48
788.38	219.46
788.71	219.36
789.03	219.31
789.35	219.26
789.67	219.20
789.99	219.18
790.32	219.10
790.64	219.10
790.96	219.21
791.28	219.07
791.61	219.02
791.93	219.00
792.25	218.96
792.57	219.11
792.89	219.04
793.21	218.98
793.54	218.92
793.86	218.85
794.18	218.86
794.50	218.80
794.82	218.78
795.14	218.72
795.47	218.74
795.79	218.69
796.11	218.63
796.43	218.58
796.75	218.55
797.07	218.52
797.39	218.45
797.71	218.27
798.04	218.27
798.36	218.23
798.68	218.20
799.00	218.16
799.32	217.96
799.64	217.98
799.96	217.93
800.28	217.90
800.60	217.85
800.92	217.81
801.24	217.76
801.56	217.71
801.89	217.70
802.21	217.66
802.53	217.61
802.85	217.60
803.17	217.66
803.49	217.55
803.81	217.50
804.13	217.45
804.45	217.39
804.77	217.36
805.09	217.34
805.41	217.27
805.73	217.21
806.05	217.16
806.37	217.10
806.69	217.09
807.01	217.05
807.33	217.03
807.65	216.94
807.97	217.02
808.28	216.98
808.60	216.95
808.92	216.88
809.24	216.95
809.56	216.91
809.88	216.79
810.20	216.78
810.52	216.81
810.84	216.76
811.16	216.73
811.48	216.69
811.80	216.77
812.12	216.73
812.43	216.77
812.75	216.71
813.07	216.67
813.39	216.67
813.71	216.63
814.03	216.60
814.35	216.59
814.67	216.49
814.98	216.43
815.30	216.40
815.62	216.36
815.94	216.20
816.26	216.17
816.58	216.13
816.89	216.14
817.21	216.06
817.53	216.06
817.85	216.05
818.17	216.02
818.48	215.89
818.80	215.96
819.12	215.88
819.44	215.84
819.76	215.82
820.07	215.77
820.39	215.77
820.71	215.76
821.03	215.75
821.34	215.71
821.66	215.72
821.98	215.74
822.30	215.70
822.61	215.84
822.93	215.81
823.25	215.81
823.57	215.73
823.88	215.76
824.20	215.76
824.52	215.77
824.83	215.74
825.15	215.72
825.47	215.70
825.79	215.69
826.10	215.68
826.42	215.63
826.74	215.60
827.05	215.55
827.37	215.52
827.69	215.47
828.00	215.46
828.32	215.46
828.64	215.40
828.95	215.53
829.27	215.43
829.58	215.41
829.90	215.44
830.22	215.50
830.53	215.42
830.85	215.38
831.17	215.31
831.48	215.31
831.80	215.30
832.11	215.23
832.43	215.20
832.75	215.17
833.06	215.29
833.38	215.25
833.69	215.26
834.01	215.26
834.32	215.27
834.64	215.24
834.96	215.23
835.27	215.22
835.59	215.15
835.90	215.11
836.22	215.09
836.53	215.04
836.85	214.98
837.16	215.20
837.48	215.21
837.79	215.30
838.11	215.29
838.42	215.30
838.74	215.33
839.05	215.31
839.37	215.31
839.68	215.17
840.00	215.16
840.31	215.17
840.63	215.14
840.94	215.12
841.26	215.08
841.57	215.07
841.88	215.10
842.20	215.03
842.51	215.00
842.83	214.98
843.14	215.15
843.46	215.17
843.77	215.02
844.08	214.96
844.40	214.88
844.71	214.84
845.03	214.83
845.34	214.79
845.65	214.76
845.97	214.78
846.28	214.76
846.60	214.79
846.91	214.77
847.22	214.75
847.54	214.80
847.85	214.85
848.16	214.84
848.48	214.80
848.79	214.89
849.10	214.90
849.42	214.94
849.73	214.71
850.04	214.69
850.36	214.64
850.67	214.67
850.98	214.67
851.30	214.71
851.61	214.68
851.92	214.68
852.23	214.76
852.55	214.77
852.86	214.78
853.17	214.77
853.49	214.82
853.80	214.87
854.11	214.89
854.42	214.91
854.74	214.84
855.05	214.85
855.36	214.74
855.67	214.74
855.99	214.73
856.30	215.01
856.61	215.03
856.92	215.03
857.23	215.02
857.55	215.00
857.86	214.99
858.17	215.04
858.48	214.98
858.79	214.94
859.11	214.95
859.42	214.96
859.73	214.95
860.04	214.92
860.35	214.86
860.66	214.75
860.98	214.75
861.29	214.80
861.60	214.78
861.91	214.84
862.22	214.82
862.53	214.77
862.84	214.53
863.16	214.58
863.47	214.53
863.78	214.55
864.09	214.55
864.40	214.53
864.71	214.51
865.02	214.55
865.33	214.50
865.64	214.47
865.95	214.46
866.27	214.58
866.58	214.56
866.89	214.59
867.20	214.61
867.51	214.54
867.82	214.53
868.13	214.58
868.44	214.56
868.75	214.59
869.06	214.61
869.37	214.60
869.68	214.52
869.99	214.57
870.30	214.55
870.61	214.58
870.92	214.55
871.23	214.53
871.54	214.55
871.85	214.62
872.16	214.63
872.47	214.58
872.78	214.46
873.09	214.47
873.40	214.44
873.71	214.45
874.02	214.47
874.33	214.45
874.64	214.41
874.95	214.42
875.26	214.37
875.56	214.36
875.87	214.35
876.18	214.32
876.49	214.52
876.80	214.52
877.11	214.47
877.42	214.47
877.73	214.47
878.04	214.42
878.35	214.44
878.66	214.46
878.96	214.46
879.27	214.45
879.58	214.42
879.89	214.39
880.20	214.44
880.51	214.45
880.82	214.45
881.12	214.48
881.43	214.45
881.74	214.42
882.05	214.41
882.36	214.44
882.67	214.48
882.97	214.25
883.28	214.25
883.59	214.24
883.90	214.26
884.21	214.28
884.51	214.29
884.82	214.20
885.13	214.16
885.44	214.18
885.74	214.19
886.05	214.22
886.36	214.23
886.67	214.17
886.98	214.25
887.28	214.27
887.59	214.24
887.90	214.24
888.20	214.24
888.51	214.29
888.82	214.23
889.13	214.21
889.43	214.38
889.74	214.33
890.05	214.35
890.35	214.33
890.66	214.27
890.97	214.24
891.28	214.27
891.58	214.27
891.89	214.28
892.20	214.25
892.50	214.23
892.81	214.25
893.12	214.26
893.42	214.15
893.73	214.18
894.04	214.20
894.34	214.22
894.65	214.21
894.95	214.18
895.26	214.21
895.57	214.31
895.87	214.11
896.18	214.17
896.48	214.18
896.79	214.19
897.10	214.27
897.40	214.30
897.71	214.32
898.01	214.29
898.32	214.30
898.63	214.30
898.93	214.33
899.24	214.32
899.54	214.26
899.85	214.26
900.15	214.23
900.46	214.23
900.76	214.26
901.07	214.25
901.38	214.24
901.68	214.24
901.99	214.14
902.29	214.14
902.60	214.12
902.90	214.10
903.21	214.11
903.51	214.06
903.82	214.10
904.12	214.12
904.43	214.17
904.73	214.13
905.03	214.15
905.34	214.30
905.64	214.26
905.95	214.30
906.25	214.30
906.56	214.29
906.86	214.29
907.17	214.24
907.47	214.27
907.77	214.23
908.08	214.20
908.38	214.21
908.69	214.22
908.99	214.20
909.30	214.21
909.60	214.18
909.90	214.19
910.21	214.13
910.51	214.06
910.81	214.05
911.12	214.04
911.42	214.03
911.73	213.83
912.03	213.86
912.33	213.91
912.64	213.87
912.94	213.81
913.24	213.78
913.55	213.76
913.85	213.75
914.15	213.81
914.46	213.81
914.76	213.79
915.06	213.78
915.37	213.80
915.67	213.76
915.97	213.77
916.27	213.73
916.58	213.74
916.88	213.74
917.18	213.73
917.49	213.91
917.79	213.89
918.09	213.91
918.39	213.95
918.70	213.89
919.00	213.91
919.30	214.02
919.60	214.00
919.91	213.98
920.21	213.99
920.51	213.95
920.81	213.95
921.12	213.99
921.42	213.98
921.72	213.97
922.02	214.02
922.32	214.06
922.63	214.05
922.93	214.16
923.23	214.20
923.53	214.18
923.83	214.03
924.13	214.02
924.44	214.01
924.74	214.04
925.04	214.10
925.34	214.08
925.64	213.99
925.94	214.01
926.24	214.12
926.55	214.10
926.85	214.10
927.15	214.12
927.45	214.14
927.75	214.11
928.05	214.11
928.35	214.07
928.65	214.09
928.95	214.13
929.26	214.05
929.56	214.05
929.86	214.05
930.16	214.05
930.46	214.04
930.76	214.06
931.06	213.96
931.36	213.92
931.66	213.96
931.96	214.02
932.26	214.01
932.56	213.93
932.86	213.96
933.16	213.97
933.46	213.94
933.76	213.88
934.06	213.95
934.36	214.01
934.66	214.02
934.96	214.01
935.26	213.99
935.56	214.01
935.86	213.97
936.16	213.97
936.46	213.92
936.76	213.94
937.06	213.90
937.36	213.93
937.66	213.94
937.96	213.95
938.26	213.90
938.56	213.91
938.86	213.88
939.16	213.91
939.46	213.93
939.76	213.93
940.06	213.92
940.35	213.89
940.65	213.81
940.95	213.84
941.25	213.76
941.55	213.74
941.85	213.77
942.15	213.82
942.45	213.87
942.75	213.88
943.04	213.88
943.34	213.90
943.64	213.89
943.94	213.88
944.24	213.86
944.54	213.87
944.84	213.84
945.13	213.83
945.43	213.77
945.73	213.75
946.03	213.75
946.33	213.73
946.62	213.69
946.92	213.66
947.22	213.65
947.52	213.68
947.82	213.75
948.11	213.65
948.41	213.60
948.71	213.54
949.01	213.55
949.31	213.51
949.60	213.51
949.90	213.54
950.20	213.52
950.50	213.52
950.79	213.48
951.09	213.50
951.39	213.49
951.69	213.46
951.98	213.53
952.28	213.54
952.58	213.55
952.87	213.56
953.17	213.62
953.47	213.60
953.76	213.60
954.06	213.55
954.36	213.57
954.66	213.57
954.95	213.64
955.25	213.66
955.55	213.71
955.84	213.69
956.14	213.70
956.44	213.72
956.73	213.69
957.03	213.74
957.32	213.75
957.62	213.78
957.92	213.81
958.21	213.77
958.51	214.02
958.81	214.05
959.10	214.09
959.40	214.11
959.69	214.15
959.99	214.17
960.29	214.14
960.58	214.16
960.88	214.22
961.17	214.19
961.47	214.22
961.76	214.19
962.06	214.24
962.36	214.19
962.65	214.21
962.95	214.25
963.24	214.20
963.54	214.21
963.83	214.22
964.13	214.24
964.42	214.19
964.72	214.02
965.01	214.02
965.31	213.99
965.60	213.95
965.90	214.07
966.19	214.04
966.49	214.05
966.78	214.03
967.08	214.01
967.37	214.02
967.67	213.95
967.96	214.01
968.26	213.99
968.55	214.03
968.85	213.99
969.14	214.00
969.43	214.01
969.73	214.00
970.02	213.97
970.32	213.98
970.61	213.97
970.91	213.92
971.20	213.87
971.49	213.86
971.79	213.88
972.08	213.74
972.38	213.72
972.67	213.77
972.96	213.79
973.26	213.76
973.55	213.83
973.85	213.84
974.14	213.79
974.43	213.80
974.73	213.76
975.02	213.75
975.31	213.73
975.61	213.74
975.90	213.70
976.19	213.69
976.49	213.66
976.78	213.69
977.07	213.70
977.37	213.73
977.66	213.79
977.95	213.78
978.24	213.80
978.54	213.86
978.83	213.83
979.12	213.81
979.42	213.81
979.71	213.72
980.00	213.71
980.29	213.71
980.59	213.69
980.88	213.71
981.17	213.72
981.46	213.72
981.76	213.70
982.05	213.76
982.34	213.77
982.63	213.77
982.93	213.76
983.22	213.77
983.51	213.78
983.80	213.79
984.09	213.79
984.39	213.77
984.68	213.74
984.97	213.74
985.26	213.71
985.55	213.73
985.85	213.73
986.14	213.78
986.43	213.79
986.72	213.74
987.01	213.73
987.30	213.69
987.59	213.67
987.89	213.70
988.18	213.63
988.47	213.62
988.76	213.63
989.05	213.62
989.34	213.59
989.63	213.64
989.92	213.62
990.22	213.60
990.51	213.61
990.80	213.62
991.09	213.64
991.38	213.65
991.67	213.64
991.96	213.61
992.25	213.61
992.54	213.59
992.83	213.62
993.12	213.60
993.41	213.66
993.70	213.74
993.99	213.76
994.28	213.83
994.58	213.87
994.87	213.84
995.16	213.82
995.45	213.80
995.74	213.69
996.03	213.71
996.32	213.72
996.61	213.73
996.90	213.75
997.19	213.75
997.48	213.79
997.77	213.78
998.06	213.78
998.34	213.76
998.63	213.77
998.92	213.77
999.21	213.81
999.50	213.83
999.79	213.78
1000.08	213.77
1000.37	213.75
1000.66	213.74
1000.95	213.79
1001.24	213.78
1001.53	213.82
1001.82	213.86
1002.11	213.80
1002.40	213.85
1002.68	213.92
1002.97	214.04
1003.26	214.00
1003.55	213.96
1003.84	213.98
1004.13	214.07
1004.42	214.07
1004.71	214.05
1004.99	214.05
1005.28	214.12
1005.57	214.10
1005.86	214.09
1006.15	214.08
1006.44	214.05
1006.72	214.07
1007.01	214.07
1007.30	214.11
1007.59	214.11
1007.88	214.10
1008.17	214.13
1008.45	214.07
1008.74	213.94
1009.03	213.84
1009.32	213.84
1009.60	213.84
1009.89	213.83
1010.18	213.75
1010.47	213.73
1010.76	213.75
1011.04	213.74
1011.33	213.72
1011.62	213.71
1011.91	213.72
1012.19	213.72
1012.48	213.73
1012.77	213.72
1013.05	213.82
1013.34	213.81
1013.63	213.77
1013.92	213.78
1014.20	213.75
1014.49	213.79
1014.78	213.84
1015.06	213.75
1015.35	213.73
1015.64	213.76
1015.92	213.78
1016.21	213.77
1016.50	213.76
1016.78	213.78
1017.07	213.77
1017.36	213.72
1017.64	213.71
1017.93	213.72
1018.22	213.75
1018.50	213.74
1018.79	213.76
1019.08	213.65
1019.36	213.66
1019.65	213.66
1019.93	213.73
1020.22	213.80
1020.51	213.91
1020.79	213.86
1021.08	214.01
1021.36	213.51
1021.65	214.12
1021.94	214.10
1022.22	213.75
1022.51	213.47
1022.79	215.07
1023.08	214.49
1023.36	216.49
1023.65	212.92
>>>>>End Processed Spectral Data<<<<<
