SpectraSuite Data File
++++++++++++++++++++++++++++++++++++
Date: Tue Jan 29 16:35:36 EST 2013
User: group
Dark Spectrum Present: No
Reference Spectrum Present: No
Number of Sampled Component Spectra: 1
Spectrometers: USB2E7196
Integration Time (usec): 65000 (USB2E7196)
Spectra Averaged: 100 (USB2E7196)
Boxcar Smoothing: 10 (USB2E7196)
Correct for Electrical Dark: No (USB2E7196)
Strobe/Lamp Enabled: No (USB2E7196)
Correct for Detector Non-linearity: No (USB2E7196)
Correct for Stray Light: No (USB2E7196)
Number of Pixels in Processed Spectrum: 2048
>>>>>Begin Processed Spectral Data<<<<<
339.09	0.00
339.48	201.62
339.86	203.32
340.24	205.00
340.63	206.44
341.01	210.42
341.39	208.59
341.78	210.53
342.16	211.93
342.54	211.67
342.93	201.15
343.31	211.33
343.69	211.90
344.07	212.39
344.46	212.79
344.84	213.18
345.22	213.36
345.60	213.66
345.99	213.86
346.37	214.01
346.75	214.16
347.13	214.21
347.52	214.27
347.90	214.45
348.28	214.52
348.66	214.60
349.05	214.58
349.43	214.67
349.81	214.76
350.19	214.86
350.57	214.94
350.96	215.04
351.34	215.12
351.72	215.21
352.10	215.30
352.48	215.43
352.87	215.49
353.25	215.55
353.63	215.57
354.01	215.64
354.39	215.70
354.77	215.75
355.15	215.89
355.54	215.93
355.92	215.90
356.30	215.95
356.68	216.13
357.06	216.17
357.44	216.16
357.82	216.21
358.20	216.25
358.58	216.33
358.97	216.36
359.35	216.49
359.73	216.59
360.11	216.64
360.49	216.66
360.87	216.69
361.25	216.78
361.63	216.91
362.01	216.95
362.39	216.97
362.77	217.00
363.15	217.02
363.53	217.06
363.91	217.09
364.29	217.09
364.67	216.93
365.05	216.98
365.43	217.02
365.81	217.08
366.19	217.17
366.57	217.20
366.95	217.22
367.33	217.13
367.71	217.09
368.09	217.13
368.47	217.16
368.85	217.15
369.23	217.15
369.61	217.07
369.99	217.10
370.37	217.10
370.75	217.20
371.13	217.14
371.51	217.09
371.89	217.08
372.27	217.08
372.65	217.05
373.03	217.02
373.41	216.97
373.78	216.91
374.16	216.77
374.54	216.69
374.92	216.65
375.30	216.63
375.68	216.55
376.06	216.52
376.44	216.42
376.82	216.40
377.19	216.33
377.57	216.25
377.95	216.15
378.33	216.12
378.71	215.93
379.09	215.90
379.47	215.89
379.84	215.82
380.22	215.74
380.60	215.64
380.98	215.57
381.36	215.52
381.73	215.42
382.11	215.40
382.49	215.39
382.87	215.32
383.25	215.27
383.62	215.48
384.00	215.38
384.38	215.37
384.76	215.37
385.13	215.42
385.51	215.43
385.89	215.37
386.27	215.31
386.64	215.30
387.02	215.24
387.40	215.22
387.78	215.20
388.15	215.24
388.53	215.25
388.91	215.25
389.29	215.24
389.66	215.25
390.04	215.21
390.42	215.21
390.79	215.23
391.17	215.27
391.55	215.03
391.92	215.05
392.30	215.07
392.68	215.03
393.05	214.98
393.43	214.99
393.81	215.01
394.18	214.99
394.56	215.05
394.94	215.12
395.31	215.12
395.69	215.20
396.06	215.21
396.44	215.25
396.82	215.25
397.19	215.36
397.57	215.38
397.95	215.41
398.32	215.38
398.70	215.40
399.07	215.45
399.45	215.47
399.82	215.53
400.20	215.56
400.58	215.62
400.95	215.61
401.33	215.73
401.70	215.93
402.08	216.00
402.45	216.07
402.83	216.20
403.20	216.29
403.58	216.38
403.95	216.52
404.33	216.64
404.71	216.79
405.08	217.04
405.46	217.22
405.83	217.45
406.21	217.66
406.58	217.89
406.96	218.11
407.33	218.38
407.70	218.67
408.08	219.13
408.45	219.46
408.83	219.85
409.20	220.18
409.58	220.47
409.95	220.95
410.33	221.42
410.70	221.86
411.08	222.42
411.45	222.98
411.82	223.56
412.20	224.22
412.57	225.06
412.95	225.66
413.32	226.49
413.69	227.31
414.07	228.20
414.44	229.19
414.82	230.22
415.19	231.40
415.56	232.60
415.94	233.74
416.31	235.22
416.68	236.65
417.06	238.29
417.43	239.85
417.81	241.58
418.18	243.35
418.55	245.25
418.93	247.29
419.30	249.42
419.67	251.67
420.04	253.97
420.42	256.36
420.79	259.18
421.16	261.98
421.54	264.96
421.91	267.99
422.28	271.14
422.66	274.44
423.03	277.68
423.40	281.09
423.77	284.72
424.15	288.36
424.52	292.20
424.89	296.35
425.26	300.44
425.64	304.37
426.01	308.66
426.38	313.18
426.75	317.75
427.13	322.54
427.50	327.52
427.87	332.79
428.24	338.00
428.61	343.01
428.99	348.53
429.36	354.48
429.73	360.42
430.10	366.27
430.47	372.29
430.85	378.65
431.22	385.29
431.59	392.41
431.96	399.24
432.33	406.73
432.70	414.02
433.08	422.59
433.45	430.69
433.82	438.72
434.19	447.64
434.56	456.39
434.93	464.70
435.30	472.96
435.68	482.09
436.05	491.09
436.42	499.98
436.79	508.19
437.16	516.96
437.53	526.17
437.90	535.32
438.27	544.35
438.64	553.59
439.01	562.22
439.38	569.84
439.75	577.10
440.13	585.60
440.50	593.49
440.87	599.94
441.24	606.54
441.61	613.92
441.98	619.28
442.35	625.57
442.72	631.93
443.09	638.02
443.46	641.76
443.83	644.23
444.20	646.46
444.57	649.65
444.94	651.16
445.31	652.68
445.68	654.11
446.05	654.75
446.42	653.96
446.79	652.95
447.16	651.84
447.53	651.14
447.90	647.81
448.27	644.61
448.64	639.91
449.01	636.63
449.37	630.72
449.74	625.06
450.11	618.12
450.48	610.70
450.85	603.25
451.22	596.72
451.59	590.66
451.96	584.80
452.33	576.88
452.70	569.73
453.07	561.19
453.43	552.48
453.80	544.16
454.17	536.16
454.54	528.64
454.91	520.47
455.28	512.45
455.65	505.00
456.02	497.43
456.38	491.10
456.75	483.17
457.12	476.64
457.49	470.12
457.86	463.92
458.23	458.51
458.59	452.53
458.96	446.54
459.33	441.16
459.70	435.79
460.07	431.48
460.43	426.60
460.80	422.05
461.17	418.10
461.54	413.88
461.91	409.81
462.27	405.67
462.64	402.21
463.01	398.46
463.38	394.73
463.74	391.05
464.11	387.79
464.48	384.94
464.85	381.80
465.21	379.33
465.58	376.71
465.95	373.52
466.32	370.93
466.68	368.32
467.05	365.75
467.42	363.15
467.78	360.45
468.15	357.92
468.52	355.95
468.88	353.46
469.25	351.21
469.62	349.44
469.98	347.51
470.35	345.71
470.72	344.01
471.08	342.22
471.45	340.72
471.82	339.18
472.18	337.54
472.55	336.31
472.92	334.93
473.28	333.74
473.65	332.59
474.02	331.48
474.38	330.60
474.75	329.87
475.11	329.06
475.48	328.51
475.85	327.99
476.21	327.51
476.58	327.16
476.94	326.93
477.31	326.62
477.67	326.34
478.04	326.20
478.41	326.13
478.77	326.25
479.14	326.17
479.50	326.31
479.87	326.60
480.23	326.94
480.60	327.18
480.96	327.44
481.33	328.10
481.69	328.66
482.06	329.13
482.42	329.62
482.79	330.21
483.15	331.01
483.52	331.95
483.88	332.84
484.25	333.76
484.61	334.78
484.98	335.84
485.34	337.18
485.71	338.53
486.07	339.96
486.44	341.30
486.80	342.96
487.17	344.67
487.53	346.51
487.90	348.34
488.26	350.42
488.62	352.57
488.99	354.59
489.35	356.76
489.72	359.17
490.08	361.68
490.44	364.27
490.81	366.94
491.17	369.68
491.54	372.67
491.90	375.75
492.26	379.05
492.63	382.45
492.99	385.88
493.36	389.54
493.72	393.45
494.08	397.44
494.45	401.63
494.81	405.94
495.17	410.38
495.54	415.13
495.90	419.90
496.26	424.83
496.63	430.05
496.99	435.45
497.35	441.04
497.72	446.83
498.08	452.75
498.44	458.86
498.80	465.27
499.17	471.80
499.53	478.54
499.89	485.40
500.26	492.42
500.62	499.55
500.98	506.97
501.34	514.47
501.71	522.29
502.07	530.12
502.43	538.19
502.79	546.36
503.16	554.75
503.52	563.39
503.88	572.16
504.24	581.13
504.60	590.21
504.97	599.51
505.33	608.89
505.69	618.80
506.05	628.75
506.41	638.68
506.78	648.70
507.14	658.97
507.50	669.45
507.86	680.15
508.22	690.99
508.59	701.72
508.95	712.83
509.31	724.13
509.67	735.63
510.03	747.07
510.39	758.75
510.75	770.60
511.12	782.57
511.48	794.69
511.84	807.02
512.20	819.37
512.56	832.07
512.92	845.00
513.28	857.77
513.64	870.69
514.00	883.60
514.37	896.72
514.73	909.84
515.09	922.98
515.45	935.99
515.81	949.06
516.17	962.56
516.53	975.89
516.89	989.12
517.25	1002.48
517.61	1016.17
517.97	1029.79
518.33	1043.08
518.69	1056.72
519.05	1070.62
519.41	1084.41
519.77	1098.41
520.13	1111.65
520.49	1124.85
520.85	1138.28
521.21	1151.61
521.57	1165.38
521.93	1178.52
522.29	1192.35
522.65	1206.01
523.01	1219.72
523.37	1232.99
523.73	1246.34
524.09	1259.56
524.45	1273.04
524.81	1286.62
525.17	1300.00
525.53	1313.32
525.89	1326.73
526.25	1339.97
526.61	1352.83
526.97	1366.07
527.33	1379.10
527.68	1392.76
528.04	1406.33
528.40	1419.63
528.76	1433.01
529.12	1445.95
529.48	1459.47
529.84	1471.87
530.20	1484.77
530.56	1497.55
530.91	1510.98
531.27	1523.94
531.63	1536.79
531.99	1549.70
532.35	1562.01
532.71	1574.51
533.07	1587.43
533.42	1599.85
533.78	1612.05
534.14	1624.20
534.50	1635.49
534.86	1647.29
535.21	1658.37
535.57	1669.99
535.93	1681.24
536.29	1692.58
536.65	1704.22
537.00	1715.15
537.36	1726.71
537.72	1737.90
538.08	1749.25
538.44	1760.29
538.79	1771.56
539.15	1782.71
539.51	1793.54
539.87	1804.94
540.22	1815.91
540.58	1826.89
540.94	1837.93
541.29	1848.35
541.65	1858.26
542.01	1868.87
542.37	1878.91
542.72	1889.09
543.08	1898.90
543.44	1909.62
543.79	1919.04
544.15	1928.59
544.51	1938.59
544.87	1948.58
545.22	1957.89
545.58	1966.93
545.94	1976.02
546.29	1984.54
546.65	1992.76
547.01	2001.06
547.36	2008.86
547.72	2016.80
548.07	2024.46
548.43	2032.25
548.79	2040.19
549.14	2048.46
549.50	2057.04
549.86	2065.14
550.21	2072.58
550.57	2080.34
550.92	2087.07
551.28	2094.53
551.64	2101.82
551.99	2109.45
552.35	2116.75
552.70	2123.69
553.06	2130.41
553.41	2136.78
553.77	2143.51
554.13	2150.06
554.48	2157.11
554.84	2164.27
555.19	2170.75
555.55	2177.23
555.90	2183.46
556.26	2190.30
556.61	2196.55
556.97	2201.23
557.32	2207.04
557.68	2213.59
558.03	2219.49
558.39	2224.96
558.74	2231.00
559.10	2236.63
559.45	2242.37
559.81	2247.88
560.16	2253.48
560.52	2259.46
560.87	2265.73
561.23	2271.53
561.58	2278.34
561.94	2283.71
562.29	2288.38
562.64	2294.49
563.00	2300.23
563.35	2305.98
563.71	2311.64
564.06	2317.16
564.42	2323.34
564.77	2328.34
565.12	2333.68
565.48	2338.76
565.83	2344.29
566.19	2349.58
566.54	2354.84
566.89	2359.36
567.25	2363.94
567.60	2369.54
567.96	2374.72
568.31	2379.25
568.66	2383.45
569.02	2387.21
569.37	2390.88
569.72	2395.33
570.08	2398.71
570.43	2401.85
570.78	2404.73
571.14	2407.33
571.49	2410.53
571.84	2413.99
572.20	2416.87
572.55	2419.77
572.90	2422.10
573.26	2424.75
573.61	2427.36
573.96	2429.44
574.31	2431.41
574.67	2433.22
575.02	2433.84
575.37	2435.15
575.72	2435.91
576.08	2437.34
576.43	2437.41
576.78	2437.75
577.13	2439.32
577.49	2440.46
577.84	2441.31
578.19	2442.50
578.54	2443.04
578.90	2443.55
579.25	2443.22
579.60	2443.13
579.95	2442.25
580.30	2442.27
580.66	2441.46
581.01	2439.77
581.36	2437.39
581.71	2435.84
582.06	2434.57
582.42	2433.65
582.77	2431.29
583.12	2429.52
583.47	2427.99
583.82	2427.39
584.17	2426.25
584.53	2423.94
584.88	2421.81
585.23	2419.88
585.58	2417.65
585.93	2415.43
586.28	2413.13
586.63	2410.59
586.98	2408.20
587.34	2406.19
587.69	2403.59
588.04	2401.50
588.39	2399.80
588.74	2397.21
589.09	2394.49
589.44	2391.19
589.79	2388.56
590.14	2386.50
590.49	2383.66
590.84	2379.78
591.19	2376.47
591.54	2373.05
591.89	2368.89
592.25	2365.62
592.60	2361.35
592.95	2357.22
593.30	2353.01
593.65	2348.55
594.00	2344.07
594.35	2340.99
594.70	2336.09
595.05	2331.45
595.40	2326.08
595.75	2320.31
596.10	2316.67
596.45	2311.80
596.80	2307.13
597.15	2301.91
597.50	2295.82
597.85	2290.66
598.19	2285.45
598.54	2279.73
598.89	2274.48
599.24	2269.79
599.59	2263.41
599.94	2257.51
600.29	2251.37
600.64	2245.47
600.99	2238.54
601.34	2233.00
601.69	2225.96
602.04	2219.48
602.39	2212.73
602.74	2206.47
603.08	2200.95
603.43	2194.34
603.78	2187.50
604.13	2180.43
604.48	2173.08
604.83	2167.07
605.18	2160.82
605.53	2153.83
605.87	2146.77
606.22	2139.85
606.57	2131.98
606.92	2124.00
607.27	2117.03
607.62	2110.37
607.96	2103.36
608.31	2096.95
608.66	2089.12
609.01	2081.56
609.36	2074.64
609.70	2066.96
610.05	2059.03
610.40	2050.58
610.75	2042.20
611.10	2034.27
611.44	2025.41
611.79	2016.81
612.14	2006.75
612.49	1996.08
612.83	1986.69
613.18	1977.39
613.53	1967.95
613.88	1958.36
614.22	1949.83
614.57	1939.88
614.92	1929.22
615.27	1918.93
615.61	1908.81
615.96	1899.18
616.31	1889.41
616.65	1879.89
617.00	1870.17
617.35	1860.60
617.70	1850.97
618.04	1841.02
618.39	1830.91
618.74	1821.22
619.08	1811.51
619.43	1802.76
619.78	1794.54
620.12	1785.90
620.47	1776.18
620.82	1765.92
621.16	1756.14
621.51	1746.10
621.85	1736.27
622.20	1725.91
622.55	1715.33
622.89	1705.38
623.24	1695.68
623.59	1685.91
623.93	1675.67
624.28	1665.86
624.62	1655.63
624.97	1645.32
625.32	1635.48
625.66	1626.47
626.01	1617.70
626.35	1608.29
626.70	1598.24
627.04	1588.16
627.39	1578.05
627.73	1568.72
628.08	1559.72
628.43	1550.03
628.77	1540.76
629.12	1531.94
629.46	1524.17
629.81	1515.85
630.15	1506.37
630.50	1496.50
630.84	1486.01
631.19	1476.30
631.53	1467.00
631.88	1456.93
632.22	1446.90
632.57	1437.53
632.91	1427.51
633.26	1417.62
633.60	1407.99
633.95	1398.69
634.29	1389.23
634.64	1379.92
634.98	1370.06
635.32	1360.78
635.67	1352.42
636.01	1343.21
636.36	1333.43
636.70	1323.83
637.05	1314.37
637.39	1305.36
637.73	1296.84
638.08	1289.27
638.42	1280.91
638.77	1272.22
639.11	1263.95
639.45	1256.16
639.80	1247.58
640.14	1238.79
640.49	1229.88
640.83	1220.97
641.17	1212.80
641.52	1204.59
641.86	1195.94
642.20	1187.95
642.55	1179.37
642.89	1170.48
643.23	1161.82
643.58	1153.71
643.92	1144.65
644.26	1135.96
644.61	1127.58
644.95	1118.76
645.29	1109.59
645.64	1100.44
645.98	1091.73
646.32	1083.77
646.66	1075.24
647.01	1066.84
647.35	1058.79
647.69	1050.46
648.04	1042.22
648.38	1033.37
648.72	1024.53
649.06	1016.15
649.41	1007.98
649.75	1000.01
650.09	992.03
650.43	984.04
650.78	975.57
651.12	967.88
651.46	960.43
651.80	953.16
652.14	945.79
652.49	938.17
652.83	930.86
653.17	923.16
653.51	915.47
653.85	908.14
654.20	900.92
654.54	893.35
654.88	886.06
655.22	878.81
655.56	871.74
655.90	864.92
656.25	858.14
656.59	851.24
656.93	844.16
657.27	837.00
657.61	830.01
657.95	823.95
658.29	817.94
658.64	811.79
658.98	805.23
659.32	798.60
659.66	792.37
660.00	785.99
660.34	779.91
660.68	773.81
661.02	767.43
661.36	761.38
661.70	755.55
662.05	749.90
662.39	744.39
662.73	738.90
663.07	733.52
663.41	727.90
663.75	722.17
664.09	716.39
664.43	710.87
664.77	705.45
665.11	699.60
665.45	693.65
665.79	687.76
666.13	682.01
666.47	676.50
666.81	670.96
667.15	665.49
667.49	660.24
667.83	654.94
668.17	649.65
668.51	644.58
668.85	639.61
669.19	634.69
669.53	629.66
669.87	624.56
670.21	619.68
670.55	614.95
670.89	610.39
671.23	606.06
671.57	601.70
671.91	597.25
672.25	593.06
672.58	588.91
672.92	584.85
673.26	580.96
673.60	577.04
673.94	573.25
674.28	569.65
674.62	565.84
674.96	562.05
675.30	558.48
675.64	554.67
675.97	551.03
676.31	547.38
676.65	543.71
676.99	540.27
677.33	536.42
677.67	532.71
678.01	528.86
678.34	525.18
678.68	521.56
679.02	518.01
679.36	514.31
679.70	510.55
680.04	506.96
680.37	503.43
680.71	500.08
681.05	496.84
681.39	493.54
681.73	490.34
682.06	487.32
682.40	484.23
682.74	481.07
683.08	477.77
683.42	474.48
683.75	471.39
684.09	468.33
684.43	465.47
684.77	462.53
685.10	459.65
685.44	456.72
685.78	453.78
686.12	450.93
686.45	448.12
686.79	445.50
687.13	442.88
687.46	440.18
687.80	437.45
688.14	434.56
688.48	431.87
688.81	429.20
689.15	426.52
689.49	423.81
689.82	421.19
690.16	418.59
690.50	416.19
690.83	413.74
691.17	411.08
691.51	408.58
691.84	406.26
692.18	403.99
692.52	401.76
692.85	399.61
693.19	397.46
693.52	395.30
693.86	393.02
694.20	390.78
694.53	388.63
694.87	386.40
695.21	384.23
695.54	382.01
695.88	379.76
696.21	377.55
696.55	375.41
696.88	373.34
697.22	371.33
697.56	369.35
697.89	367.44
698.23	365.67
698.56	363.86
698.90	362.06
699.23	360.06
699.57	358.14
699.90	356.22
700.24	354.36
700.58	352.56
700.91	350.87
701.25	349.28
701.58	347.68
701.92	346.02
702.25	344.40
702.59	342.73
702.92	341.14
703.26	339.53
703.59	338.07
703.93	336.86
704.26	335.44
704.60	333.90
704.93	332.36
705.26	330.89
705.60	329.43
705.93	327.87
706.27	326.60
706.60	325.28
706.94	324.08
707.27	322.71
707.61	321.34
707.94	319.98
708.27	318.48
708.61	317.00
708.94	315.66
709.28	314.33
709.61	313.07
709.94	311.88
710.28	310.67
710.61	309.42
710.95	307.94
711.28	306.82
711.61	305.61
711.95	304.46
712.28	303.21
712.61	301.98
712.95	300.97
713.28	299.83
713.61	298.67
713.95	297.49
714.28	296.46
714.61	295.43
714.95	294.39
715.28	293.33
715.61	292.27
715.95	291.29
716.28	290.32
716.61	289.40
716.95	288.40
717.28	287.46
717.61	286.48
717.94	285.54
718.28	284.50
718.61	283.61
718.94	282.71
719.27	281.85
719.61	281.02
719.94	280.08
720.27	279.14
720.60	278.30
720.94	277.44
721.27	276.65
721.60	275.92
721.93	275.21
722.27	274.58
722.60	273.92
722.93	273.21
723.26	272.56
723.59	271.83
723.93	271.17
724.26	270.48
724.59	269.84
724.92	269.25
725.25	268.70
725.59	268.13
725.92	267.57
726.25	266.98
726.58	266.39
726.91	265.82
727.24	265.29
727.57	264.72
727.91	264.10
728.24	263.55
728.57	262.92
728.90	262.35
729.23	261.70
729.56	261.27
729.89	260.74
730.22	260.11
730.55	259.57
730.89	259.02
731.22	258.51
731.55	257.94
731.88	257.43
732.21	256.85
732.54	256.30
732.87	255.79
733.20	255.31
733.53	254.85
733.86	254.37
734.19	253.88
734.52	253.46
734.85	253.20
735.18	252.71
735.51	252.36
735.84	251.92
736.17	251.50
736.50	250.95
736.83	250.75
737.16	250.39
737.49	250.01
737.82	249.59
738.15	249.23
738.48	248.88
738.81	248.46
739.14	248.10
739.47	247.71
739.80	247.32
740.13	246.96
740.46	246.51
740.79	246.12
741.12	245.76
741.45	245.37
741.78	244.90
742.11	244.62
742.44	244.21
742.77	243.92
743.10	243.59
743.43	243.24
743.75	242.67
744.08	242.59
744.41	242.21
744.74	241.86
745.07	241.42
745.40	241.14
745.73	240.89
746.06	240.53
746.39	240.23
746.71	239.88
747.04	239.51
747.37	239.18
747.70	238.89
748.03	238.59
748.36	238.30
748.68	237.99
749.01	237.63
749.34	237.32
749.67	237.00
750.00	236.75
750.33	236.63
750.65	236.38
750.98	235.86
751.31	235.63
751.64	235.42
751.97	235.31
752.29	235.06
752.62	234.67
752.95	234.40
753.28	234.13
753.60	233.91
753.93	233.76
754.26	233.58
754.59	233.28
754.91	233.02
755.24	232.77
755.57	232.54
755.90	232.34
756.22	232.12
756.55	231.86
756.88	231.59
757.20	231.23
757.53	230.97
757.86	230.75
758.19	230.55
758.51	230.33
758.84	230.00
759.17	229.75
759.49	229.61
759.82	229.52
760.15	229.36
760.47	229.13
760.80	228.88
761.13	228.69
761.45	228.52
761.78	228.33
762.11	228.16
762.43	227.93
762.76	227.75
763.08	227.59
763.41	227.41
763.74	227.26
764.06	227.06
764.39	226.91
764.71	226.76
765.04	226.57
765.37	226.42
765.69	226.28
766.02	226.14
766.34	225.96
766.67	225.75
767.00	225.66
767.32	225.66
767.65	225.63
767.97	225.51
768.30	225.40
768.62	225.27
768.95	225.10
769.27	224.97
769.60	224.88
769.92	224.74
770.25	224.57
770.57	224.39
770.90	224.28
771.22	224.13
771.55	223.99
771.87	223.89
772.20	223.77
772.52	223.83
772.85	223.97
773.17	223.94
773.50	223.80
773.82	223.63
774.15	223.42
774.47	223.20
774.80	223.07
775.12	222.96
775.45	222.87
775.77	222.80
776.09	222.73
776.42	222.66
776.74	222.62
777.07	222.53
777.39	222.45
777.72	222.36
778.04	222.35
778.36	222.27
778.69	222.20
779.01	222.12
779.33	221.89
779.66	221.55
779.98	221.38
780.31	221.32
780.63	221.35
780.95	221.29
781.28	221.20
781.60	221.13
781.92	221.05
782.25	220.99
782.57	220.93
782.89	220.85
783.22	220.72
783.54	220.57
783.86	220.55
784.19	220.50
784.51	220.49
784.83	220.36
785.16	220.28
785.48	220.20
785.80	220.12
786.12	220.07
786.45	220.05
786.77	220.05
787.09	219.97
787.42	219.80
787.74	219.78
788.06	219.75
788.38	219.70
788.71	219.65
789.03	219.60
789.35	219.58
789.67	219.51
789.99	219.49
790.32	219.45
790.64	219.43
790.96	219.54
791.28	219.41
791.61	219.36
791.93	219.33
792.25	219.29
792.57	219.41
792.89	219.33
793.21	219.24
793.54	219.18
793.86	219.15
794.18	219.12
794.50	219.01
794.82	218.95
795.14	218.90
795.47	218.86
795.79	218.79
796.11	218.69
796.43	218.63
796.75	218.58
797.07	218.52
797.39	218.46
797.71	218.27
798.04	218.25
798.36	218.24
798.68	218.18
799.00	218.14
799.32	218.00
799.64	218.02
799.96	217.97
800.28	217.98
800.60	217.94
800.92	217.90
801.24	217.85
801.56	217.83
801.89	217.79
802.21	217.77
802.53	217.73
802.85	217.75
803.17	217.81
803.49	217.72
803.81	217.71
804.13	217.69
804.45	217.61
804.77	217.59
805.09	217.55
805.41	217.48
805.73	217.47
806.05	217.36
806.37	217.27
806.69	217.25
807.01	217.19
807.33	217.15
807.65	217.06
807.97	217.16
808.28	217.12
808.60	217.09
808.92	217.02
809.24	217.11
809.56	217.02
809.88	216.92
810.20	216.94
810.52	216.96
810.84	216.89
811.16	216.84
811.48	216.81
811.80	216.86
812.12	216.89
812.43	216.85
812.75	216.84
813.07	216.81
813.39	216.82
813.71	216.76
814.03	216.71
814.35	216.71
814.67	216.59
814.98	216.53
815.30	216.51
815.62	216.49
815.94	216.35
816.26	216.35
816.58	216.31
816.89	216.30
817.21	216.19
817.53	216.17
817.85	216.19
818.17	216.16
818.48	216.06
818.80	216.06
819.12	216.03
819.44	216.00
819.76	215.98
820.07	215.95
820.39	215.95
820.71	215.96
821.03	215.95
821.34	215.88
821.66	215.90
821.98	215.91
822.30	215.87
822.61	215.97
822.93	215.95
823.25	215.91
823.57	215.88
823.88	215.94
824.20	215.95
824.52	215.97
824.83	215.93
825.15	215.89
825.47	215.87
825.79	215.83
826.10	215.80
826.42	215.76
826.74	215.76
827.05	215.74
827.37	215.72
827.69	215.67
828.00	215.70
828.32	215.68
828.64	215.64
828.95	215.75
829.27	215.67
829.58	215.66
829.90	215.69
830.22	215.69
830.53	215.62
830.85	215.57
831.17	215.49
831.48	215.48
831.80	215.49
832.11	215.47
832.43	215.45
832.75	215.48
833.06	215.61
833.38	215.54
833.69	215.52
834.01	215.49
834.32	215.50
834.64	215.48
834.96	215.49
835.27	215.49
835.59	215.42
835.90	215.37
836.22	215.35
836.53	215.32
836.85	215.30
837.16	215.50
837.48	215.50
837.79	215.58
838.11	215.58
838.42	215.61
838.74	215.64
839.05	215.62
839.37	215.58
839.68	215.43
840.00	215.43
840.31	215.45
840.63	215.45
840.94	215.40
841.26	215.36
841.57	215.35
841.88	215.34
842.20	215.30
842.51	215.29
842.83	215.28
843.14	215.44
843.46	215.43
843.77	215.27
844.08	215.26
844.40	215.19
844.71	215.17
845.03	215.11
845.34	215.08
845.65	215.06
845.97	215.07
846.28	215.06
846.60	215.06
846.91	215.00
847.22	214.98
847.54	215.03
847.85	215.06
848.16	215.02
848.48	214.98
848.79	215.06
849.10	215.07
849.42	215.10
849.73	214.88
850.04	214.88
850.36	214.81
850.67	214.83
850.98	214.81
851.30	214.83
851.61	214.83
851.92	214.81
852.23	214.88
852.55	214.87
852.86	214.88
853.17	214.88
853.49	214.92
853.80	214.97
854.11	214.96
854.42	214.98
854.74	214.97
855.05	214.99
855.36	214.89
855.67	214.85
855.99	214.84
856.30	215.12
856.61	215.09
856.92	215.07
857.23	215.06
857.55	215.03
857.86	215.03
858.17	215.06
858.48	215.01
858.79	214.97
859.11	215.00
859.42	214.99
859.73	214.97
860.04	214.97
860.35	214.88
860.66	214.83
860.98	214.81
861.29	214.83
861.60	214.78
861.91	214.78
862.22	214.79
862.53	214.75
862.84	214.50
863.16	214.56
863.47	214.53
863.78	214.53
864.09	214.56
864.40	214.55
864.71	214.55
865.02	214.59
865.33	214.58
865.64	214.53
865.95	214.55
866.27	214.66
866.58	214.64
866.89	214.69
867.20	214.69
867.51	214.65
867.82	214.60
868.13	214.69
868.44	214.69
868.75	214.70
869.06	214.69
869.37	214.71
869.68	214.65
869.99	214.71
870.30	214.74
870.61	214.76
870.92	214.73
871.23	214.71
871.54	214.75
871.85	214.77
872.16	214.81
872.47	214.78
872.78	214.69
873.09	214.70
873.40	214.67
873.71	214.70
874.02	214.72
874.33	214.75
874.64	214.70
874.95	214.70
875.26	214.68
875.56	214.71
875.87	214.68
876.18	214.68
876.49	214.87
876.80	214.85
877.11	214.81
877.42	214.82
877.73	214.82
878.04	214.73
878.35	214.74
878.66	214.72
878.96	214.74
879.27	214.71
879.58	214.71
879.89	214.73
880.20	214.80
880.51	214.77
880.82	214.75
881.12	214.75
881.43	214.72
881.74	214.69
882.05	214.66
882.36	214.67
882.67	214.68
882.97	214.47
883.28	214.43
883.59	214.41
883.90	214.42
884.21	214.45
884.51	214.46
884.82	214.42
885.13	214.44
885.44	214.42
885.74	214.43
886.05	214.40
886.36	214.39
886.67	214.31
886.98	214.44
887.28	214.48
887.59	214.46
887.90	214.47
888.20	214.46
888.51	214.48
888.82	214.45
889.13	214.46
889.43	214.62
889.74	214.58
890.05	214.60
890.35	214.57
890.66	214.51
890.97	214.47
891.28	214.45
891.58	214.42
891.89	214.39
892.20	214.38
892.50	214.38
892.81	214.33
893.12	214.32
893.42	214.22
893.73	214.22
894.04	214.23
894.34	214.27
894.65	214.26
894.95	214.27
895.26	214.28
895.57	214.38
895.87	214.20
896.18	214.24
896.48	214.24
896.79	214.25
897.10	214.30
897.40	214.33
897.71	214.39
898.01	214.40
898.32	214.47
898.63	214.45
898.93	214.45
899.24	214.51
899.54	214.50
899.85	214.52
900.15	214.50
900.46	214.51
900.76	214.51
901.07	214.51
901.38	214.52
901.68	214.56
901.99	214.46
902.29	214.46
902.60	214.46
902.90	214.44
903.21	214.43
903.51	214.41
903.82	214.47
904.12	214.44
904.43	214.43
904.73	214.39
905.03	214.41
905.34	214.62
905.64	214.56
905.95	214.51
906.25	214.47
906.56	214.43
906.86	214.43
907.17	214.39
907.47	214.42
907.77	214.38
908.08	214.31
908.38	214.33
908.69	214.32
908.99	214.36
909.30	214.40
909.60	214.42
909.90	214.43
910.21	214.37
910.51	214.32
910.81	214.31
911.12	214.36
911.42	214.35
911.73	214.14
912.03	214.16
912.33	214.24
912.64	214.26
912.94	214.26
913.24	214.18
913.55	214.19
913.85	214.18
914.15	214.20
914.46	214.25
914.76	214.22
915.06	214.27
915.37	214.21
915.67	214.17
915.97	214.14
916.27	214.10
916.58	214.13
916.88	214.16
917.18	214.15
917.49	214.29
917.79	214.29
918.09	214.33
918.39	214.42
918.70	214.40
919.00	214.43
919.30	214.55
919.60	214.58
919.91	214.57
920.21	214.58
920.51	214.58
920.81	214.59
921.12	214.61
921.42	214.56
921.72	214.61
922.02	214.63
922.32	214.67
922.63	214.66
922.93	214.73
923.23	214.73
923.53	214.69
923.83	214.52
924.13	214.51
924.44	214.50
924.74	214.50
925.04	214.55
925.34	214.51
925.64	214.43
925.94	214.42
926.24	214.54
926.55	214.52
926.85	214.51
927.15	214.47
927.45	214.47
927.75	214.45
928.05	214.44
928.35	214.45
928.65	214.48
928.95	214.47
929.26	214.40
929.56	214.45
929.86	214.51
930.16	214.52
930.46	214.55
930.76	214.57
931.06	214.49
931.36	214.39
931.66	214.44
931.96	214.44
932.26	214.46
932.56	214.37
932.86	214.37
933.16	214.39
933.46	214.37
933.76	214.35
934.06	214.43
934.36	214.50
934.66	214.49
934.96	214.45
935.26	214.52
935.56	214.54
935.86	214.46
936.16	214.40
936.46	214.38
936.76	214.35
937.06	214.30
937.36	214.27
937.66	214.34
937.96	214.31
938.26	214.29
938.56	214.26
938.86	214.25
939.16	214.31
939.46	214.33
939.76	214.34
940.06	214.35
940.35	214.29
940.65	214.20
940.95	214.23
941.25	214.19
941.55	214.14
941.85	214.12
942.15	214.19
942.45	214.27
942.75	214.26
943.04	214.27
943.34	214.32
943.64	214.33
943.94	214.26
944.24	214.24
944.54	214.24
944.84	214.24
945.13	214.24
945.43	214.23
945.73	214.21
946.03	214.18
946.33	214.17
946.62	214.12
946.92	214.10
947.22	214.07
947.52	214.09
947.82	214.14
948.11	214.11
948.41	214.05
948.71	213.98
949.01	214.03
949.31	214.00
949.60	213.99
949.90	214.03
950.20	214.02
950.50	214.07
950.79	214.06
951.09	214.09
951.39	214.10
951.69	214.05
951.98	214.09
952.28	214.10
952.58	214.08
952.87	214.09
953.17	214.13
953.47	214.11
953.76	214.10
954.06	214.04
954.36	214.03
954.66	214.03
954.95	214.07
955.25	214.05
955.55	214.07
955.84	214.04
956.14	214.03
956.44	214.03
956.73	213.98
957.03	213.98
957.32	213.97
957.62	213.95
957.92	214.00
958.21	213.96
958.51	214.21
958.81	214.26
959.10	214.28
959.40	214.31
959.69	214.33
959.99	214.35
960.29	214.35
960.58	214.37
960.88	214.47
961.17	214.44
961.47	214.46
961.76	214.43
962.06	214.48
962.36	214.44
962.65	214.45
962.95	214.43
963.24	214.42
963.54	214.43
963.83	214.43
964.13	214.41
964.42	214.37
964.72	214.20
965.01	214.20
965.31	214.17
965.60	214.10
965.90	214.21
966.19	214.17
966.49	214.16
966.78	214.13
967.08	214.10
967.37	214.06
967.67	214.03
967.96	214.08
968.26	214.05
968.55	214.09
968.85	214.11
969.14	214.14
969.43	214.14
969.73	214.14
970.02	214.12
970.32	214.12
970.61	214.12
970.91	214.06
971.20	214.02
971.49	214.02
971.79	214.05
972.08	213.93
972.38	213.94
972.67	213.97
972.96	213.97
973.26	213.93
973.55	214.02
973.85	214.00
974.14	213.97
974.43	214.02
974.73	213.98
975.02	213.98
975.31	214.01
975.61	214.01
975.90	213.98
976.19	213.94
976.49	213.94
976.78	213.94
977.07	213.93
977.37	213.90
977.66	213.95
977.95	213.93
978.24	213.93
978.54	213.97
978.83	213.95
979.12	213.96
979.42	213.98
979.71	213.95
980.00	213.95
980.29	213.96
980.59	213.88
980.88	213.92
981.17	213.89
981.46	213.85
981.76	213.84
982.05	213.89
982.34	213.92
982.63	213.92
982.93	213.94
983.22	213.97
983.51	214.00
983.80	214.00
984.09	214.01
984.39	214.00
984.68	213.95
984.97	213.96
985.26	213.96
985.55	213.99
985.85	213.94
986.14	213.97
986.43	214.00
986.72	214.00
987.01	213.93
987.30	213.92
987.59	213.92
987.89	213.94
988.18	213.89
988.47	213.89
988.76	213.85
989.05	213.82
989.34	213.80
989.63	213.85
989.92	213.83
990.22	213.81
990.51	213.83
990.80	213.83
991.09	213.83
991.38	213.84
991.67	213.77
991.96	213.78
992.25	213.82
992.54	213.77
992.83	213.73
993.12	213.76
993.41	213.81
993.70	213.89
993.99	213.91
994.28	213.90
994.58	213.95
994.87	213.96
995.16	213.95
995.45	213.97
995.74	213.94
996.03	213.95
996.32	214.00
996.61	214.03
996.90	214.05
997.19	214.05
997.48	214.05
997.77	214.06
998.06	214.05
998.34	214.02
998.63	214.04
998.92	214.09
999.21	214.12
999.50	214.13
999.79	214.06
1000.08	214.05
1000.37	214.06
1000.66	214.03
1000.95	214.10
1001.24	214.10
1001.53	214.14
1001.82	214.12
1002.11	214.09
1002.40	214.10
1002.68	214.13
1002.97	214.22
1003.26	214.22
1003.55	214.17
1003.84	214.17
1004.13	214.25
1004.42	214.25
1004.71	214.23
1004.99	214.26
1005.28	214.28
1005.57	214.24
1005.86	214.23
1006.15	214.19
1006.44	214.13
1006.72	214.15
1007.01	214.13
1007.30	214.13
1007.59	214.12
1007.88	214.12
1008.17	214.14
1008.45	214.08
1008.74	214.03
1009.03	213.97
1009.32	213.98
1009.60	214.01
1009.89	214.00
1010.18	213.91
1010.47	213.89
1010.76	213.90
1011.04	213.86
1011.33	213.89
1011.62	213.91
1011.91	213.94
1012.19	213.96
1012.48	214.00
1012.77	214.00
1013.05	214.08
1013.34	214.10
1013.63	214.06
1013.92	214.07
1014.20	214.06
1014.49	214.07
1014.78	214.06
1015.06	213.99
1015.35	213.97
1015.64	213.97
1015.92	214.02
1016.21	214.02
1016.50	214.03
1016.78	214.06
1017.07	214.06
1017.36	214.00
1017.64	213.97
1017.93	213.99
1018.22	214.01
1018.50	214.00
1018.79	213.99
1019.08	213.87
1019.36	213.86
1019.65	213.85
1019.93	213.89
1020.22	213.91
1020.51	214.01
1020.79	213.97
1021.08	213.98
1021.36	213.58
1021.65	214.00
1021.94	213.56
1022.22	213.93
1022.51	213.45
1022.79	214.89
1023.08	213.90
1023.36	216.34
1023.65	212.95
>>>>>End Processed Spectral Data<<<<<
