SpectraSuite Data File
++++++++++++++++++++++++++++++++++++
Date: Tue Jan 29 15:57:04 EST 2013
User: group
Dark Spectrum Present: No
Reference Spectrum Present: No
Number of Sampled Component Spectra: 1
Spectrometers: USB2E7196
Integration Time (usec): 65000 (USB2E7196)
Spectra Averaged: 100 (USB2E7196)
Boxcar Smoothing: 10 (USB2E7196)
Correct for Electrical Dark: No (USB2E7196)
Strobe/Lamp Enabled: No (USB2E7196)
Correct for Detector Non-linearity: No (USB2E7196)
Correct for Stray Light: No (USB2E7196)
Number of Pixels in Processed Spectrum: 2048
>>>>>Begin Processed Spectral Data<<<<<
339.09	0.00
339.48	203.10
339.86	203.95
340.24	205.99
340.63	207.53
341.01	211.46
341.39	209.58
341.78	211.89
342.16	212.42
342.54	213.00
342.93	202.15
343.31	212.35
343.69	212.89
344.07	213.38
344.46	213.83
344.84	214.21
345.22	214.39
345.60	214.67
345.99	214.83
346.37	215.00
346.75	215.12
347.13	215.17
347.52	215.24
347.90	215.36
348.28	215.40
348.66	215.41
349.05	215.37
349.43	215.46
349.81	215.51
350.19	215.56
350.57	215.63
350.96	215.69
351.34	215.79
351.72	215.86
352.10	215.96
352.48	216.01
352.87	216.08
353.25	216.15
353.63	216.21
354.01	216.27
354.39	216.33
354.77	216.39
355.15	216.52
355.54	216.59
355.92	216.62
356.30	216.67
356.68	216.88
357.06	216.96
357.44	216.98
357.82	217.04
358.20	217.11
358.58	217.17
358.97	217.22
359.35	217.31
359.73	217.42
360.11	217.48
360.49	217.57
360.87	217.59
361.25	217.64
361.63	217.75
362.01	217.82
362.39	217.88
362.77	217.94
363.15	217.96
363.53	218.01
363.91	218.05
364.29	218.08
364.67	217.89
365.05	217.91
365.43	217.94
365.81	218.02
366.19	218.16
366.57	218.24
366.95	218.29
367.33	218.27
367.71	218.28
368.09	218.33
368.47	218.31
368.85	218.33
369.23	218.37
369.61	218.29
369.99	218.36
370.37	218.37
370.75	218.46
371.13	218.45
371.51	218.35
371.89	218.34
372.27	218.35
372.65	218.36
373.03	218.35
373.41	218.31
373.78	218.23
374.16	218.07
374.54	218.02
374.92	217.96
375.30	217.92
375.68	217.83
376.06	217.81
376.44	217.74
376.82	217.70
377.19	217.62
377.57	217.55
377.95	217.43
378.33	217.33
378.71	217.17
379.09	217.15
379.47	217.17
379.84	217.10
380.22	217.01
380.60	216.95
380.98	216.91
381.36	216.85
381.73	216.81
382.11	216.84
382.49	216.76
382.87	216.72
383.25	216.67
383.62	216.91
384.00	216.81
384.38	216.78
384.76	216.79
385.13	216.85
385.51	216.82
385.89	216.76
386.27	216.75
386.64	216.73
387.02	216.65
387.40	216.57
387.78	216.54
388.15	216.55
388.53	216.52
388.91	216.49
389.29	216.46
389.66	216.45
390.04	216.36
390.42	216.39
390.79	216.35
391.17	216.35
391.55	216.14
391.92	216.15
392.30	216.17
392.68	216.11
393.05	216.10
393.43	216.11
393.81	216.10
394.18	216.09
394.56	216.08
394.94	216.13
395.31	216.14
395.69	216.21
396.06	216.23
396.44	216.27
396.82	216.27
397.19	216.40
397.57	216.40
397.95	216.48
398.32	216.43
398.70	216.47
399.07	216.53
399.45	216.52
399.82	216.56
400.20	216.56
400.58	216.62
400.95	216.58
401.33	216.70
401.70	216.94
402.08	217.03
402.45	217.10
402.83	217.23
403.20	217.35
403.58	217.40
403.95	217.55
404.33	217.68
404.71	217.80
405.08	218.04
405.46	218.20
405.83	218.37
406.21	218.54
406.58	218.82
406.96	219.04
407.33	219.29
407.70	219.56
408.08	220.01
408.45	220.36
408.83	220.76
409.20	221.08
409.58	221.33
409.95	221.78
410.33	222.27
410.70	222.67
411.08	223.21
411.45	223.81
411.82	224.33
412.20	225.00
412.57	225.82
412.95	226.36
413.32	227.17
413.69	228.01
414.07	228.86
414.44	229.81
414.82	230.78
415.19	231.91
415.56	233.05
415.94	234.18
416.31	235.54
416.68	236.88
417.06	238.43
417.43	239.90
417.81	241.57
418.18	243.30
418.55	245.14
418.93	247.05
419.30	249.06
419.67	251.22
420.04	253.40
420.42	255.67
420.79	258.38
421.16	261.06
421.54	263.83
421.91	266.79
422.28	269.73
422.66	272.90
423.03	276.04
423.40	279.28
423.77	282.72
424.15	286.25
424.52	289.92
424.89	293.91
425.26	297.82
425.64	301.55
426.01	305.63
426.38	309.92
426.75	314.33
427.13	318.85
427.50	323.61
427.87	328.66
428.24	333.65
428.61	338.41
428.99	343.71
429.36	349.46
429.73	355.08
430.10	360.74
430.47	366.54
430.85	372.61
431.22	379.04
431.59	385.91
431.96	392.44
432.33	399.67
432.70	406.69
433.08	414.89
433.45	422.64
433.82	430.31
434.19	438.87
434.56	447.18
434.93	455.14
435.30	463.12
435.68	471.80
436.05	480.44
436.42	489.05
436.79	496.88
437.16	505.30
437.53	514.23
437.90	522.96
438.27	531.53
438.64	540.37
439.01	548.57
439.38	555.86
439.75	562.95
440.13	571.02
440.50	578.65
440.87	584.87
441.24	591.20
441.61	598.23
441.98	603.40
442.35	609.53
442.72	615.64
443.09	621.39
443.46	625.01
443.83	627.35
444.20	629.44
444.57	632.46
444.94	633.87
445.31	635.20
445.68	636.52
446.05	637.09
446.42	636.30
446.79	635.34
447.16	634.24
447.53	633.40
447.90	630.18
448.27	626.96
448.64	622.39
449.01	619.08
449.37	613.47
449.74	607.89
450.11	601.25
450.48	594.15
450.85	586.99
451.22	580.75
451.59	574.88
451.96	569.25
452.33	561.64
452.70	554.73
453.07	546.59
453.43	538.38
453.80	530.42
454.17	522.78
454.54	515.53
454.91	507.72
455.28	500.06
455.65	492.94
456.02	485.80
456.38	479.79
456.75	472.42
457.12	466.14
457.49	460.05
457.86	454.17
458.23	449.02
458.59	443.39
458.96	437.68
459.33	432.66
459.70	427.51
460.07	423.49
460.43	418.86
460.80	414.50
461.17	410.69
461.54	406.76
461.91	402.89
462.27	399.02
462.64	395.74
463.01	392.12
463.38	388.59
463.74	385.05
464.11	381.93
464.48	379.20
464.85	376.20
465.21	373.88
465.58	371.32
465.95	368.34
466.32	365.82
466.68	363.36
467.05	360.90
467.42	358.49
467.78	355.95
468.15	353.55
468.52	351.78
468.88	349.41
469.25	347.28
469.62	345.62
469.98	343.73
470.35	341.96
470.72	340.40
471.08	338.68
471.45	337.23
471.82	335.72
472.18	334.12
472.55	333.05
472.92	331.70
473.28	330.59
473.65	329.50
474.02	328.47
474.38	327.62
474.75	326.89
475.11	326.10
475.48	325.62
475.85	325.17
476.21	324.67
476.58	324.33
476.94	324.12
477.31	323.84
477.67	323.66
478.04	323.57
478.41	323.51
478.77	323.73
479.14	323.70
479.50	323.91
479.87	324.27
480.23	324.59
480.60	324.85
480.96	325.14
481.33	325.75
481.69	326.28
482.06	326.83
482.42	327.34
482.79	327.98
483.15	328.76
483.52	329.74
483.88	330.69
484.25	331.71
484.61	332.73
484.98	333.80
485.34	335.13
485.71	336.50
486.07	337.98
486.44	339.27
486.80	340.96
487.17	342.62
487.53	344.42
487.90	346.23
488.26	348.27
488.62	350.35
488.99	352.38
489.35	354.60
489.72	357.01
490.08	359.55
490.44	362.10
490.81	364.84
491.17	367.53
491.54	370.47
491.90	373.46
492.26	376.78
492.63	380.20
492.99	383.71
493.36	387.37
493.72	391.18
494.08	395.23
494.45	399.38
494.81	403.75
495.17	408.20
495.54	412.90
495.90	417.74
496.26	422.74
496.63	427.95
496.99	433.35
497.35	438.87
497.72	444.65
498.08	450.56
498.44	456.52
498.80	462.92
499.17	469.38
499.53	476.08
499.89	482.86
500.26	489.80
500.62	496.83
500.98	504.22
501.34	511.66
501.71	519.41
502.07	527.21
502.43	535.15
502.79	543.24
503.16	551.62
503.52	560.16
503.88	568.80
504.24	577.72
504.60	586.70
504.97	595.91
505.33	605.21
505.69	615.07
506.05	624.98
506.41	634.82
506.78	644.82
507.14	655.07
507.50	665.47
507.86	676.08
508.22	686.80
508.59	697.42
508.95	708.52
509.31	719.76
509.67	731.20
510.03	742.59
510.39	754.33
510.75	766.15
511.12	778.00
511.48	790.14
511.84	802.31
512.20	814.59
512.56	827.13
512.92	839.73
513.28	852.23
513.64	864.84
514.00	877.56
514.37	890.43
514.73	903.36
515.09	916.12
515.45	928.87
515.81	941.77
516.17	955.05
516.53	968.10
516.89	980.94
517.25	993.83
517.61	1007.15
517.97	1020.32
518.33	1033.26
518.69	1046.54
519.05	1060.01
519.41	1073.49
519.77	1087.18
520.13	1100.29
520.49	1113.37
520.85	1126.59
521.21	1139.71
521.57	1153.20
521.93	1166.09
522.29	1179.61
522.65	1193.18
523.01	1206.57
523.37	1219.54
523.73	1232.50
524.09	1245.31
524.45	1258.56
524.81	1271.89
525.17	1284.95
525.53	1297.92
525.89	1310.98
526.25	1323.86
526.61	1336.37
526.97	1349.10
527.33	1361.72
527.68	1374.78
528.04	1387.96
528.40	1400.76
528.76	1413.81
529.12	1426.29
529.48	1439.21
529.84	1451.17
530.20	1463.59
530.56	1475.91
530.91	1488.84
531.27	1501.38
531.63	1514.04
531.99	1526.41
532.35	1538.24
532.71	1550.31
533.07	1562.71
533.42	1574.57
533.78	1586.27
534.14	1598.02
534.50	1608.95
534.86	1620.22
535.21	1630.82
535.57	1641.81
535.93	1652.83
536.29	1663.58
536.65	1674.67
537.00	1685.28
537.36	1696.29
537.72	1706.97
538.08	1717.84
538.44	1728.34
538.79	1739.08
539.15	1749.40
539.51	1759.74
539.87	1770.82
540.22	1781.24
540.58	1791.89
540.94	1802.36
541.29	1812.30
541.65	1821.72
542.01	1832.01
542.37	1841.73
542.72	1851.63
543.08	1861.09
543.44	1870.97
543.79	1880.07
544.15	1889.28
544.51	1899.02
544.87	1908.55
545.22	1917.31
545.58	1925.91
545.94	1934.51
546.29	1942.72
546.65	1950.86
547.01	1958.80
547.36	1966.05
547.72	1973.48
548.07	1980.73
548.43	1988.26
548.79	1995.96
549.14	2003.94
549.50	2011.95
549.86	2019.42
550.21	2026.52
550.57	2034.04
550.92	2040.64
551.28	2047.64
551.64	2054.63
551.99	2061.76
552.35	2068.71
552.70	2075.31
553.06	2081.90
553.41	2087.86
553.77	2094.04
554.13	2100.14
554.48	2107.04
554.84	2113.94
555.19	2120.37
555.55	2126.72
555.90	2132.99
556.26	2139.56
556.61	2145.19
556.97	2149.88
557.32	2155.82
557.68	2162.12
558.03	2167.67
558.39	2172.79
558.74	2178.78
559.10	2184.33
559.45	2189.94
559.81	2195.45
560.16	2201.01
560.52	2206.79
560.87	2213.32
561.23	2219.46
561.58	2226.11
561.94	2231.34
562.29	2236.29
562.64	2242.39
563.00	2247.98
563.35	2253.59
563.71	2259.36
564.06	2265.09
564.42	2270.99
564.77	2275.89
565.12	2281.04
565.48	2286.35
565.83	2292.08
566.19	2297.73
566.54	2303.04
566.89	2307.64
567.25	2312.32
567.60	2318.03
567.96	2323.23
568.31	2327.76
568.66	2332.01
569.02	2335.96
569.37	2339.70
569.72	2344.08
570.08	2347.75
570.43	2350.85
570.78	2353.73
571.14	2356.47
571.49	2359.69
571.84	2363.44
572.20	2366.56
572.55	2369.74
572.90	2371.95
573.26	2374.99
573.61	2377.30
573.96	2379.64
574.31	2381.74
574.67	2383.75
575.02	2384.87
575.37	2386.48
575.72	2387.52
576.08	2389.02
576.43	2389.50
576.78	2390.37
577.13	2392.19
577.49	2393.47
577.84	2395.02
578.19	2396.98
578.54	2397.85
578.90	2399.18
579.25	2399.50
579.60	2399.84
579.95	2399.48
580.30	2400.21
580.66	2399.78
581.01	2398.52
581.36	2396.65
581.71	2395.60
582.06	2394.91
582.42	2394.20
582.77	2392.27
583.12	2390.86
583.47	2389.99
583.82	2389.59
584.17	2388.53
584.53	2386.68
584.88	2384.88
585.23	2383.16
585.58	2380.99
585.93	2379.06
586.28	2376.89
586.63	2374.59
586.98	2372.56
587.34	2370.84
587.69	2368.50
588.04	2366.79
588.39	2365.53
588.74	2363.31
589.09	2361.07
589.44	2358.03
589.79	2356.01
590.14	2354.39
590.49	2351.93
590.84	2348.25
591.19	2345.60
591.54	2342.52
591.89	2338.68
592.25	2335.73
592.60	2331.82
592.95	2327.85
593.30	2323.96
593.65	2319.72
594.00	2315.54
594.35	2312.62
594.70	2308.09
595.05	2303.70
595.40	2298.26
595.75	2293.11
596.10	2289.39
596.45	2284.59
596.80	2280.32
597.15	2275.15
597.50	2269.29
597.85	2264.45
598.19	2259.52
598.54	2253.64
598.89	2248.73
599.24	2244.38
599.59	2238.40
599.94	2232.95
600.29	2227.24
600.64	2221.35
600.99	2214.91
601.34	2209.61
601.69	2202.62
602.04	2196.43
602.39	2190.02
602.74	2184.24
603.08	2178.59
603.43	2172.26
603.78	2165.54
604.13	2158.37
604.48	2151.29
604.83	2145.50
605.18	2139.28
605.53	2132.33
605.87	2125.52
606.22	2118.86
606.57	2110.97
606.92	2103.10
607.27	2096.01
607.62	2089.39
607.96	2082.46
608.31	2075.97
608.66	2068.27
609.01	2060.83
609.36	2053.76
609.70	2046.19
610.05	2038.41
610.40	2030.27
610.75	2022.12
611.10	2014.55
611.44	2005.96
611.79	1997.21
612.14	1987.10
612.49	1976.62
612.83	1967.58
613.18	1958.65
613.53	1949.36
613.88	1939.86
614.22	1931.34
614.57	1921.58
614.92	1911.17
615.27	1901.25
615.61	1891.26
615.96	1881.56
616.31	1872.12
616.65	1862.80
617.00	1852.85
617.35	1843.17
617.70	1833.49
618.04	1823.40
618.39	1813.03
618.74	1803.26
619.08	1793.87
619.43	1785.30
619.78	1777.08
620.12	1768.17
620.47	1758.21
620.82	1747.80
621.16	1738.01
621.51	1728.00
621.85	1718.03
622.20	1707.57
622.55	1697.05
622.89	1687.29
623.24	1677.62
623.59	1667.68
623.93	1657.58
624.28	1647.82
624.62	1637.52
624.97	1627.09
625.32	1617.36
625.66	1608.68
626.01	1599.74
626.35	1590.01
626.70	1579.83
627.04	1569.55
627.39	1559.53
627.73	1550.31
628.08	1541.21
628.43	1531.61
628.77	1522.38
629.12	1513.46
629.46	1505.47
629.81	1496.88
630.15	1487.15
630.50	1477.20
630.84	1466.77
631.19	1456.78
631.53	1447.35
631.88	1437.32
632.22	1427.29
632.57	1417.85
632.91	1407.58
633.26	1397.82
633.60	1388.29
633.95	1378.94
634.29	1369.60
634.64	1360.19
634.98	1350.21
635.32	1341.02
635.67	1332.43
636.01	1323.14
636.36	1313.38
636.70	1303.83
637.05	1294.41
637.39	1285.40
637.73	1276.84
638.08	1269.36
638.42	1260.98
638.77	1252.20
639.11	1243.99
639.45	1236.04
639.80	1227.39
640.14	1218.57
640.49	1209.72
640.83	1200.95
641.17	1192.85
641.52	1184.55
641.86	1175.95
642.20	1167.97
642.55	1159.29
642.89	1150.35
643.23	1141.61
643.58	1133.42
643.92	1124.38
644.26	1115.75
644.61	1107.31
644.95	1098.55
645.29	1089.21
645.64	1080.06
645.98	1071.70
646.32	1063.64
646.66	1055.14
647.01	1046.71
647.35	1038.59
647.69	1030.14
648.04	1021.77
648.38	1012.78
648.72	1004.06
649.06	995.57
649.41	987.45
649.75	979.42
650.09	971.61
650.43	963.57
650.78	955.42
651.12	947.82
651.46	940.48
651.80	933.30
652.14	925.94
652.49	918.39
652.83	911.18
653.17	903.42
653.51	895.86
653.85	888.65
654.20	881.49
654.54	874.03
654.88	866.89
655.22	859.73
655.56	852.80
655.90	845.97
656.25	839.45
656.59	832.53
656.93	825.57
657.27	818.51
657.61	811.72
657.95	805.63
658.29	799.70
658.64	793.47
658.98	787.03
659.32	780.48
659.66	774.27
660.00	767.90
660.34	761.99
660.68	755.92
661.02	749.66
661.36	743.77
661.70	738.07
662.05	732.47
662.39	727.04
662.73	721.71
663.07	716.40
663.41	710.75
663.75	705.21
664.09	699.62
664.43	694.31
664.77	688.96
665.11	683.13
665.45	677.30
665.79	671.60
666.13	665.89
666.47	660.48
666.81	655.14
667.15	649.90
667.49	644.71
667.83	639.51
668.17	634.39
668.51	629.31
668.85	624.48
669.19	619.64
669.53	614.68
669.87	609.68
670.21	605.01
670.55	600.35
670.89	595.96
671.23	591.74
671.57	587.41
671.91	583.12
672.25	579.04
672.58	574.92
672.92	570.88
673.26	567.08
673.60	563.30
673.94	559.56
674.28	555.95
674.62	552.24
674.96	548.60
675.30	545.10
675.64	541.49
675.97	537.90
676.31	534.34
676.65	530.80
676.99	527.42
677.33	523.63
677.67	520.11
678.01	516.30
678.34	512.72
678.68	509.21
679.02	505.61
679.36	501.99
679.70	498.46
680.04	495.02
680.37	491.65
680.71	488.37
681.05	485.27
681.39	482.12
681.73	479.00
682.06	475.99
682.40	472.99
682.74	469.89
683.08	466.76
683.42	463.61
683.75	460.69
684.09	457.71
684.43	454.99
684.77	452.08
685.10	449.28
685.44	446.40
685.78	443.57
686.12	440.97
686.45	438.32
686.79	435.70
687.13	433.24
687.46	430.67
687.80	428.06
688.14	425.16
688.48	422.58
688.81	419.99
689.15	417.48
689.49	414.85
689.82	412.33
690.16	409.83
690.50	407.49
690.83	405.06
691.17	402.56
691.51	400.15
691.84	398.00
692.18	395.88
692.52	393.73
692.85	391.60
693.19	389.45
693.52	387.33
693.86	385.15
694.20	383.02
694.53	380.95
694.87	378.83
695.21	376.84
695.54	374.75
695.88	372.65
696.21	370.46
696.55	368.44
696.88	366.44
697.22	364.51
697.56	362.65
697.89	360.81
698.23	359.12
698.56	357.41
698.90	355.68
699.23	353.77
699.57	351.95
699.90	350.14
700.24	348.39
700.58	346.70
700.91	345.10
701.25	343.57
701.58	341.98
701.92	340.40
702.25	338.84
702.59	337.22
702.92	335.73
703.26	334.31
703.59	332.92
703.93	331.73
704.26	330.33
704.60	328.86
704.93	327.48
705.26	326.03
705.60	324.54
705.93	323.05
706.27	321.81
706.60	320.60
706.94	319.43
707.27	318.11
707.61	316.78
707.94	315.48
708.27	314.03
708.61	312.62
708.94	311.34
709.28	310.11
709.61	308.92
709.94	307.76
710.28	306.55
710.61	305.35
710.95	304.00
711.28	303.00
711.61	301.87
711.95	300.74
712.28	299.57
712.61	298.45
712.95	297.44
713.28	296.41
713.61	295.28
713.95	294.14
714.28	293.16
714.61	292.14
714.95	291.16
715.28	290.16
715.61	289.18
715.95	288.25
716.28	287.31
716.61	286.37
716.95	285.39
717.28	284.47
717.61	283.57
717.94	282.72
718.28	281.67
718.61	280.82
718.94	279.95
719.27	279.14
719.61	278.31
719.94	277.45
720.27	276.53
720.60	275.73
720.94	274.97
721.27	274.21
721.60	273.55
721.93	272.82
722.27	272.21
722.60	271.56
722.93	270.86
723.26	270.23
723.59	269.54
723.93	268.91
724.26	268.30
724.59	267.71
724.92	267.10
725.25	266.61
725.59	266.02
725.92	265.48
726.25	264.94
726.58	264.39
726.91	263.81
727.24	263.29
727.57	262.73
727.91	262.15
728.24	261.64
728.57	261.03
728.90	260.51
729.23	259.91
729.56	259.48
729.89	258.96
730.22	258.39
730.55	257.88
730.89	257.37
731.22	256.83
731.55	256.30
731.88	255.80
732.21	255.26
732.54	254.74
732.87	254.30
733.20	253.77
733.53	253.34
733.86	252.90
734.19	252.41
734.52	252.03
734.85	251.77
735.18	251.28
735.51	250.92
735.84	250.51
736.17	250.15
736.50	249.66
736.83	249.49
737.16	249.13
737.49	248.77
737.82	248.42
738.15	248.11
738.48	247.76
738.81	247.38
739.14	246.98
739.47	246.62
739.80	246.23
740.13	245.91
740.46	245.50
740.79	245.12
741.12	244.80
741.45	244.45
741.78	244.01
742.11	243.77
742.44	243.46
742.77	243.18
743.10	242.86
743.43	242.52
743.75	241.97
744.08	241.90
744.41	241.55
744.74	241.19
745.07	240.85
745.40	240.60
745.73	240.36
746.06	240.04
746.39	239.76
746.71	239.44
747.04	239.09
747.37	238.83
747.70	238.59
748.03	238.32
748.36	238.09
748.68	237.78
749.01	237.44
749.34	237.13
749.67	236.81
750.00	236.58
750.33	236.44
750.65	236.24
750.98	235.75
751.31	235.51
751.64	235.29
751.97	235.13
752.29	234.82
752.62	234.49
752.95	234.24
753.28	233.97
753.60	233.75
753.93	233.62
754.26	233.40
754.59	233.11
754.91	232.89
755.24	232.61
755.57	232.40
755.90	232.19
756.22	231.95
756.55	231.75
756.88	231.46
757.20	231.15
757.53	230.86
757.86	230.66
758.19	230.49
758.51	230.28
758.84	229.99
759.17	229.81
759.49	229.64
759.82	229.59
760.15	229.44
760.47	229.23
760.80	228.98
761.13	228.83
761.45	228.64
761.78	228.42
762.11	228.26
762.43	228.06
762.76	227.90
763.08	227.77
763.41	227.60
763.74	227.50
764.06	227.36
764.39	227.23
764.71	227.05
765.04	226.89
765.37	226.73
765.69	226.61
766.02	226.49
766.34	226.35
766.67	226.12
767.00	226.03
767.32	226.06
767.65	226.04
767.97	225.86
768.30	225.76
768.62	225.67
768.95	225.51
769.27	225.39
769.60	225.27
769.92	225.13
770.25	225.03
770.57	224.86
770.90	224.75
771.22	224.62
771.55	224.57
771.87	224.51
772.20	224.40
772.52	224.46
772.85	224.57
773.17	224.46
773.50	224.34
773.82	224.22
774.15	224.00
774.47	223.79
774.80	223.72
775.12	223.61
775.45	223.54
775.77	223.46
776.09	223.39
776.42	223.29
776.74	223.30
777.07	223.20
777.39	223.15
777.72	223.02
778.04	222.95
778.36	222.85
778.69	222.71
779.01	222.67
779.33	222.44
779.66	222.17
779.98	222.12
780.31	222.05
780.63	222.03
780.95	221.99
781.28	221.93
781.60	221.83
781.92	221.77
782.25	221.69
782.57	221.63
782.89	221.56
783.22	221.50
783.54	221.36
783.86	221.30
784.19	221.23
784.51	221.23
784.83	221.17
785.16	221.09
785.48	221.09
785.80	221.01
786.12	220.98
786.45	220.89
786.77	220.85
787.09	220.79
787.42	220.69
787.74	220.62
788.06	220.55
788.38	220.51
788.71	220.44
789.03	220.35
789.35	220.33
789.67	220.24
789.99	220.23
790.32	220.15
790.64	220.12
790.96	220.24
791.28	220.13
791.61	220.07
791.93	220.07
792.25	220.03
792.57	220.12
792.89	220.00
793.21	219.98
793.54	219.88
793.86	219.84
794.18	219.81
794.50	219.74
794.82	219.71
795.14	219.68
795.47	219.69
795.79	219.67
796.11	219.59
796.43	219.55
796.75	219.50
797.07	219.47
797.39	219.41
797.71	219.22
798.04	219.18
798.36	219.15
798.68	219.08
799.00	219.04
799.32	218.90
799.64	218.90
799.96	218.84
800.28	218.84
800.60	218.78
800.92	218.74
801.24	218.68
801.56	218.68
801.89	218.63
802.21	218.58
802.53	218.51
802.85	218.51
803.17	218.57
803.49	218.47
803.81	218.46
804.13	218.42
804.45	218.35
804.77	218.33
805.09	218.31
805.41	218.25
805.73	218.18
806.05	218.11
806.37	218.08
806.69	218.09
807.01	218.05
807.33	218.03
807.65	217.95
807.97	218.04
808.28	217.97
808.60	217.96
808.92	217.92
809.24	218.01
809.56	217.98
809.88	217.85
810.20	217.85
810.52	217.88
810.84	217.82
811.16	217.78
811.48	217.77
811.80	217.80
812.12	217.76
812.43	217.77
812.75	217.75
813.07	217.71
813.39	217.63
813.71	217.57
814.03	217.51
814.35	217.48
814.67	217.34
814.98	217.32
815.30	217.30
815.62	217.26
815.94	217.10
816.26	217.07
816.58	217.05
816.89	217.05
817.21	216.95
817.53	216.95
817.85	216.97
818.17	216.93
818.48	216.85
818.80	216.88
819.12	216.84
819.44	216.79
819.76	216.74
820.07	216.78
820.39	216.77
820.71	216.80
821.03	216.78
821.34	216.78
821.66	216.83
821.98	216.82
822.30	216.80
822.61	216.93
822.93	216.93
823.25	216.92
823.57	216.88
823.88	216.93
824.20	216.93
824.52	216.93
824.83	216.94
825.15	216.88
825.47	216.88
825.79	216.90
826.10	216.90
826.42	216.88
826.74	216.87
827.05	216.88
827.37	216.87
827.69	216.86
828.00	216.86
828.32	216.85
828.64	216.80
828.95	216.90
829.27	216.85
829.58	216.85
829.90	216.87
830.22	216.89
830.53	216.84
830.85	216.79
831.17	216.72
831.48	216.70
831.80	216.71
832.11	216.65
832.43	216.62
832.75	216.63
833.06	216.76
833.38	216.69
833.69	216.67
834.01	216.69
834.32	216.67
834.64	216.62
834.96	216.58
835.27	216.58
835.59	216.51
835.90	216.45
836.22	216.41
836.53	216.36
836.85	216.32
837.16	216.51
837.48	216.52
837.79	216.59
838.11	216.60
838.42	216.58
838.74	216.62
839.05	216.59
839.37	216.56
839.68	216.42
840.00	216.39
840.31	216.39
840.63	216.35
840.94	216.33
841.26	216.35
841.57	216.34
841.88	216.36
842.20	216.31
842.51	216.28
842.83	216.27
843.14	216.44
843.46	216.45
843.77	216.31
844.08	216.29
844.40	216.22
844.71	216.17
845.03	216.17
845.34	216.10
845.65	216.06
845.97	216.06
846.28	216.08
846.60	216.10
846.91	216.11
847.22	216.13
847.54	216.16
847.85	216.16
848.16	216.12
848.48	216.05
848.79	216.14
849.10	216.14
849.42	216.15
849.73	215.98
850.04	215.95
850.36	215.84
850.67	215.86
850.98	215.83
851.30	215.88
851.61	215.89
851.92	215.92
852.23	216.02
852.55	216.02
852.86	216.00
853.17	216.02
853.49	216.04
853.80	216.05
854.11	216.07
854.42	216.11
854.74	216.13
855.05	216.13
855.36	216.01
855.67	216.02
855.99	216.01
856.30	216.25
856.61	216.26
856.92	216.30
857.23	216.30
857.55	216.30
857.86	216.26
858.17	216.28
858.48	216.25
858.79	216.18
859.11	216.21
859.42	216.20
859.73	216.14
860.04	216.11
860.35	216.04
860.66	215.95
860.98	215.91
861.29	215.92
861.60	215.92
861.91	215.96
862.22	215.89
862.53	215.87
862.84	215.60
863.16	215.65
863.47	215.62
863.78	215.57
864.09	215.57
864.40	215.56
864.71	215.55
865.02	215.57
865.33	215.56
865.64	215.50
865.95	215.49
866.27	215.65
866.58	215.63
866.89	215.64
867.20	215.65
867.51	215.62
867.82	215.58
868.13	215.64
868.44	215.59
868.75	215.66
869.06	215.67
869.37	215.68
869.68	215.57
869.99	215.59
870.30	215.62
870.61	215.62
870.92	215.58
871.23	215.58
871.54	215.60
871.85	215.64
872.16	215.68
872.47	215.69
872.78	215.54
873.09	215.57
873.40	215.55
873.71	215.57
874.02	215.57
874.33	215.54
874.64	215.50
874.95	215.55
875.26	215.49
875.56	215.49
875.87	215.50
876.18	215.51
876.49	215.72
876.80	215.70
877.11	215.69
877.42	215.70
877.73	215.69
878.04	215.64
878.35	215.63
878.66	215.63
878.96	215.60
879.27	215.60
879.58	215.58
879.89	215.56
880.20	215.61
880.51	215.61
880.82	215.67
881.12	215.68
881.43	215.67
881.74	215.63
882.05	215.61
882.36	215.64
882.67	215.68
882.97	215.47
883.28	215.46
883.59	215.44
883.90	215.46
884.21	215.50
884.51	215.54
884.82	215.49
885.13	215.50
885.44	215.50
885.74	215.50
886.05	215.45
886.36	215.47
886.67	215.41
886.98	215.50
887.28	215.47
887.59	215.47
887.90	215.43
888.20	215.45
888.51	215.49
888.82	215.44
889.13	215.44
889.43	215.57
889.74	215.60
890.05	215.61
890.35	215.57
890.66	215.53
890.97	215.50
891.28	215.46
891.58	215.44
891.89	215.43
892.20	215.43
892.50	215.45
892.81	215.45
893.12	215.46
893.42	215.36
893.73	215.36
894.04	215.35
894.34	215.38
894.65	215.37
894.95	215.35
895.26	215.35
895.57	215.45
895.87	215.26
896.18	215.27
896.48	215.25
896.79	215.28
897.10	215.27
897.40	215.27
897.71	215.36
898.01	215.36
898.32	215.36
898.63	215.38
898.93	215.40
899.24	215.41
899.54	215.38
899.85	215.38
900.15	215.40
900.46	215.42
900.76	215.46
901.07	215.45
901.38	215.45
901.68	215.45
901.99	215.33
902.29	215.32
902.60	215.32
902.90	215.31
903.21	215.32
903.51	215.35
903.82	215.37
904.12	215.34
904.43	215.29
904.73	215.33
905.03	215.35
905.34	215.54
905.64	215.51
905.95	215.51
906.25	215.51
906.56	215.49
906.86	215.48
907.17	215.45
907.47	215.44
907.77	215.41
908.08	215.40
908.38	215.45
908.69	215.50
908.99	215.53
909.30	215.54
909.60	215.51
909.90	215.53
910.21	215.47
910.51	215.42
910.81	215.43
911.12	215.41
911.42	215.39
911.73	215.18
912.03	215.19
912.33	215.24
912.64	215.20
912.94	215.19
913.24	215.15
913.55	215.15
913.85	215.16
914.15	215.23
914.46	215.24
914.76	215.17
915.06	215.18
915.37	215.13
915.67	215.13
915.97	215.13
916.27	215.06
916.58	215.07
916.88	215.08
917.18	215.09
917.49	215.26
917.79	215.25
918.09	215.27
918.39	215.34
918.70	215.30
919.00	215.33
919.30	215.40
919.60	215.42
919.91	215.38
920.21	215.39
920.51	215.30
920.81	215.29
921.12	215.33
921.42	215.31
921.72	215.31
922.02	215.33
922.32	215.38
922.63	215.40
922.93	215.54
923.23	215.55
923.53	215.52
923.83	215.33
924.13	215.37
924.44	215.35
924.74	215.36
925.04	215.44
925.34	215.46
925.64	215.39
925.94	215.37
926.24	215.48
926.55	215.46
926.85	215.50
927.15	215.52
927.45	215.54
927.75	215.51
928.05	215.49
928.35	215.45
928.65	215.46
928.95	215.46
929.26	215.36
929.56	215.41
929.86	215.46
930.16	215.46
930.46	215.39
930.76	215.42
931.06	215.34
931.36	215.29
931.66	215.27
931.96	215.28
932.26	215.28
932.56	215.20
932.86	215.26
933.16	215.26
933.46	215.23
933.76	215.17
934.06	215.24
934.36	215.32
934.66	215.34
934.96	215.33
935.26	215.32
935.56	215.33
935.86	215.26
936.16	215.22
936.46	215.22
936.76	215.23
937.06	215.20
937.36	215.17
937.66	215.16
937.96	215.18
938.26	215.15
938.56	215.15
938.86	215.12
939.16	215.12
939.46	215.12
939.76	215.15
940.06	215.15
940.35	215.12
940.65	215.04
940.95	215.05
941.25	214.98
941.55	214.95
941.85	214.94
942.15	214.98
942.45	215.02
942.75	215.02
943.04	215.04
943.34	215.07
943.64	215.06
943.94	215.03
944.24	215.05
944.54	215.06
944.84	215.03
945.13	215.03
945.43	215.02
945.73	214.99
946.03	214.99
946.33	214.99
946.62	214.96
946.92	214.96
947.22	214.97
947.52	215.01
947.82	215.05
948.11	215.03
948.41	214.97
948.71	214.91
949.01	214.92
949.31	214.92
949.60	214.92
949.90	214.94
950.20	214.94
950.50	214.92
950.79	214.89
951.09	214.93
951.39	214.95
951.69	214.91
951.98	214.96
952.28	214.97
952.58	214.96
952.87	214.99
953.17	215.02
953.47	215.00
953.76	214.99
954.06	214.97
954.36	214.98
954.66	214.98
954.95	215.08
955.25	215.07
955.55	215.08
955.84	215.09
956.14	215.13
956.44	215.16
956.73	215.13
957.03	215.19
957.32	215.19
957.62	215.15
957.92	215.21
958.21	215.18
958.51	215.42
958.81	215.45
959.10	215.43
959.40	215.48
959.69	215.48
959.99	215.47
960.29	215.47
960.58	215.46
960.88	215.53
961.17	215.51
961.47	215.56
961.76	215.52
962.06	215.50
962.36	215.47
962.65	215.46
962.95	215.46
963.24	215.43
963.54	215.46
963.83	215.46
964.13	215.42
964.42	215.37
964.72	215.18
965.01	215.18
965.31	215.18
965.60	215.11
965.90	215.25
966.19	215.23
966.49	215.24
966.78	215.23
967.08	215.23
967.37	215.18
967.67	215.12
967.96	215.17
968.26	215.16
968.55	215.20
968.85	215.20
969.14	215.17
969.43	215.14
969.73	215.12
970.02	215.14
970.32	215.15
970.61	215.18
970.91	215.12
971.20	215.10
971.49	215.08
971.79	215.11
972.08	214.97
972.38	215.00
972.67	215.02
972.96	215.07
973.26	215.03
973.55	215.13
973.85	215.14
974.14	215.11
974.43	215.16
974.73	215.14
975.02	215.14
975.31	215.19
975.61	215.20
975.90	215.19
976.19	215.15
976.49	215.16
976.78	215.18
977.07	215.18
977.37	215.21
977.66	215.24
977.95	215.18
978.24	215.19
978.54	215.20
978.83	215.16
979.12	215.14
979.42	215.14
979.71	215.06
980.00	215.08
980.29	215.10
980.59	215.05
980.88	215.09
981.17	215.07
981.46	215.03
981.76	215.03
982.05	215.08
982.34	215.10
982.63	215.11
982.93	215.10
983.22	215.13
983.51	215.13
983.80	215.16
984.09	215.24
984.39	215.23
984.68	215.21
984.97	215.23
985.26	215.20
985.55	215.22
985.85	215.23
986.14	215.21
986.43	215.22
986.72	215.22
987.01	215.15
987.30	215.16
987.59	215.17
987.89	215.17
988.18	215.10
988.47	215.10
988.76	215.08
989.05	215.08
989.34	215.07
989.63	215.10
989.92	215.05
990.22	215.00
990.51	215.00
990.80	215.00
991.09	215.02
991.38	215.05
991.67	215.04
991.96	215.00
992.25	215.04
992.54	215.01
992.83	214.98
993.12	214.98
993.41	215.00
993.70	215.10
993.99	215.16
994.28	215.21
994.58	215.24
994.87	215.21
995.16	215.18
995.45	215.15
995.74	215.10
996.03	215.13
996.32	215.19
996.61	215.23
996.90	215.23
997.19	215.20
997.48	215.18
997.77	215.16
998.06	215.18
998.34	215.11
998.63	215.10
998.92	215.11
999.21	215.16
999.50	215.20
999.79	215.09
1000.08	215.07
1000.37	215.03
1000.66	215.00
1000.95	215.04
1001.24	215.06
1001.53	215.10
1001.82	215.07
1002.11	215.03
1002.40	215.00
1002.68	215.04
1002.97	215.19
1003.26	215.15
1003.55	215.16
1003.84	215.22
1004.13	215.27
1004.42	215.29
1004.71	215.28
1004.99	215.28
1005.28	215.31
1005.57	215.24
1005.86	215.27
1006.15	215.25
1006.44	215.24
1006.72	215.28
1007.01	215.26
1007.30	215.28
1007.59	215.24
1007.88	215.25
1008.17	215.25
1008.45	215.25
1008.74	215.19
1009.03	215.08
1009.32	215.11
1009.60	215.06
1009.89	214.99
1010.18	214.93
1010.47	214.93
1010.76	214.94
1011.04	214.93
1011.33	214.96
1011.62	214.98
1011.91	214.96
1012.19	214.97
1012.48	214.99
1012.77	214.99
1013.05	215.11
1013.34	215.10
1013.63	215.08
1013.92	215.11
1014.20	215.12
1014.49	215.11
1014.78	215.14
1015.06	215.09
1015.35	215.08
1015.64	215.14
1015.92	215.16
1016.21	215.18
1016.50	215.19
1016.78	215.18
1017.07	215.18
1017.36	215.11
1017.64	215.06
1017.93	215.08
1018.22	215.06
1018.50	215.04
1018.79	215.05
1019.08	214.91
1019.36	214.91
1019.65	214.90
1019.93	214.94
1020.22	214.93
1020.51	215.05
1020.79	215.00
1021.08	214.60
1021.36	214.75
1021.65	215.36
1021.94	214.79
1022.22	214.65
1022.51	214.68
1022.79	215.78
1023.08	214.96
1023.36	217.64
1023.65	214.74
>>>>>End Processed Spectral Data<<<<<
