SpectraSuite Data File
++++++++++++++++++++++++++++++++++++
Date: Tue Jan 29 16:47:39 EST 2013
User: group
Dark Spectrum Present: No
Reference Spectrum Present: No
Number of Sampled Component Spectra: 1
Spectrometers: USB2E7196
Integration Time (usec): 65000 (USB2E7196)
Spectra Averaged: 100 (USB2E7196)
Boxcar Smoothing: 10 (USB2E7196)
Correct for Electrical Dark: No (USB2E7196)
Strobe/Lamp Enabled: No (USB2E7196)
Correct for Detector Non-linearity: No (USB2E7196)
Correct for Stray Light: No (USB2E7196)
Number of Pixels in Processed Spectrum: 2048
>>>>>Begin Processed Spectral Data<<<<<
339.09	0.00
339.48	201.74
339.86	202.64
340.24	203.88
340.63	205.77
341.01	210.51
341.39	207.79
341.78	209.59
342.16	211.68
342.54	211.35
342.93	200.57
343.31	210.68
343.69	211.19
344.07	211.66
344.46	212.10
344.84	212.48
345.22	212.63
345.60	212.93
345.99	213.15
346.37	213.27
346.75	213.42
347.13	213.51
347.52	213.58
347.90	213.71
348.28	213.74
348.66	213.81
349.05	213.81
349.43	213.88
349.81	213.99
350.19	214.04
350.57	214.12
350.96	214.23
351.34	214.39
351.72	214.52
352.10	214.63
352.48	214.74
352.87	214.83
353.25	214.90
353.63	214.97
354.01	215.00
354.39	215.10
354.77	215.13
355.15	215.29
355.54	215.37
355.92	215.36
356.30	215.45
356.68	215.66
357.06	215.72
357.44	215.75
357.82	215.81
358.20	215.92
358.58	215.96
358.97	216.03
359.35	216.10
359.73	216.21
360.11	216.28
360.49	216.34
360.87	216.39
361.25	216.45
361.63	216.59
362.01	216.69
362.39	216.72
362.77	216.81
363.15	216.80
363.53	216.86
363.91	216.93
364.29	216.97
364.67	216.81
365.05	216.89
365.43	216.98
365.81	217.02
366.19	217.10
366.57	217.22
366.95	217.22
367.33	217.20
367.71	217.21
368.09	217.24
368.47	217.23
368.85	217.22
369.23	217.29
369.61	217.19
369.99	217.25
370.37	217.27
370.75	217.35
371.13	217.31
371.51	217.25
371.89	217.24
372.27	217.25
372.65	217.24
373.03	217.15
373.41	217.08
373.78	217.02
374.16	216.90
374.54	216.78
374.92	216.71
375.30	216.66
375.68	216.53
376.06	216.49
376.44	216.44
376.82	216.43
377.19	216.35
377.57	216.32
377.95	216.19
378.33	216.11
378.71	215.93
379.09	215.91
379.47	215.91
379.84	215.84
380.22	215.76
380.60	215.67
380.98	215.67
381.36	215.61
381.73	215.56
382.11	215.54
382.49	215.51
382.87	215.47
383.25	215.42
383.62	215.64
384.00	215.56
384.38	215.54
384.76	215.54
385.13	215.58
385.51	215.55
385.89	215.50
386.27	215.47
386.64	215.49
387.02	215.44
387.40	215.36
387.78	215.35
388.15	215.35
388.53	215.33
388.91	215.27
389.29	215.22
389.66	215.24
390.04	215.21
390.42	215.23
390.79	215.21
391.17	215.20
391.55	214.97
391.92	214.97
392.30	214.94
392.68	214.85
393.05	214.79
393.43	214.76
393.81	214.77
394.18	214.75
394.56	214.72
394.94	214.76
395.31	214.73
395.69	214.76
396.06	214.78
396.44	214.83
396.82	214.84
397.19	214.96
397.57	214.95
397.95	214.99
398.32	214.93
398.70	214.98
399.07	215.03
399.45	215.08
399.82	215.10
400.20	215.14
400.58	215.23
400.95	215.20
401.33	215.31
401.70	215.50
402.08	215.56
402.45	215.66
402.83	215.79
403.20	215.91
403.58	215.99
403.95	216.11
404.33	216.24
404.71	216.39
405.08	216.68
405.46	216.83
405.83	217.04
406.21	217.25
406.58	217.54
406.96	217.80
407.33	218.04
407.70	218.36
408.08	218.85
408.45	219.21
408.83	219.63
409.20	219.99
409.58	220.29
409.95	220.81
410.33	221.31
410.70	221.75
411.08	222.34
411.45	222.96
411.82	223.58
412.20	224.30
412.57	225.12
412.95	225.65
413.32	226.49
413.69	227.33
414.07	228.26
414.44	229.20
414.82	230.22
415.19	231.41
415.56	232.61
415.94	233.82
416.31	235.21
416.68	236.65
417.06	238.28
417.43	239.86
417.81	241.58
418.18	243.35
418.55	245.30
418.93	247.32
419.30	249.44
419.67	251.67
420.04	253.95
420.42	256.38
420.79	259.28
421.16	262.09
421.54	265.00
421.91	268.00
422.28	271.12
422.66	274.42
423.03	277.68
423.40	281.06
423.77	284.66
424.15	288.35
424.52	292.18
424.89	296.35
425.26	300.45
425.64	304.37
426.01	308.66
426.38	313.18
426.75	317.77
427.13	322.49
427.50	327.50
427.87	332.76
428.24	338.02
428.61	342.99
428.99	348.57
429.36	354.63
429.73	360.60
430.10	366.51
430.47	372.65
430.85	379.03
431.22	385.80
431.59	392.96
431.96	399.80
432.33	407.36
432.70	414.66
433.08	423.16
433.45	431.29
433.82	439.40
434.19	448.26
434.56	456.99
434.93	465.41
435.30	473.75
435.68	482.88
436.05	491.89
436.42	500.86
436.79	509.03
437.16	517.88
437.53	527.18
437.90	536.39
438.27	545.42
438.64	554.71
439.01	563.28
439.38	570.86
439.75	578.18
440.13	586.64
440.50	594.67
440.87	601.15
441.24	607.78
441.61	615.15
441.98	620.69
442.35	627.11
442.72	633.47
443.09	639.55
443.46	643.39
443.83	645.93
444.20	648.11
444.57	651.29
444.94	652.65
445.31	654.11
445.68	655.49
446.05	656.10
446.42	655.26
446.79	654.31
447.16	653.30
447.53	652.68
447.90	649.32
448.27	646.00
448.64	641.39
449.01	638.12
449.37	632.22
449.74	626.43
450.11	619.45
450.48	612.03
450.85	604.56
451.22	598.05
451.59	591.86
451.96	586.05
452.33	578.16
452.70	571.14
453.07	562.65
453.43	554.07
453.80	545.72
454.17	537.72
454.54	530.12
454.91	521.88
455.28	513.79
455.65	506.35
456.02	498.78
456.38	492.38
456.75	484.45
457.12	477.79
457.49	471.23
457.86	464.97
458.23	459.56
458.59	453.54
458.96	447.44
459.33	442.16
459.70	436.74
460.07	432.44
460.43	427.47
460.80	422.86
461.17	418.80
461.54	414.49
461.91	410.41
462.27	406.29
462.64	402.82
463.01	399.03
463.38	395.32
463.74	391.65
464.11	388.42
464.48	385.54
464.85	382.43
465.21	380.01
465.58	377.37
465.95	374.20
466.32	371.55
466.68	368.96
467.05	366.29
467.42	363.71
467.78	360.98
468.15	358.40
468.52	356.46
468.88	353.93
469.25	351.80
469.62	350.00
469.98	348.00
470.35	346.20
470.72	344.50
471.08	342.72
471.45	341.18
471.82	339.59
472.18	337.90
472.55	336.75
472.92	335.33
473.28	334.13
473.65	332.99
474.02	331.90
474.38	330.96
474.75	330.20
475.11	329.38
475.48	328.80
475.85	328.33
476.21	327.79
476.58	327.39
476.94	327.11
477.31	326.80
477.67	326.60
478.04	326.41
478.41	326.32
478.77	326.42
479.14	326.37
479.50	326.51
479.87	326.76
480.23	327.03
480.60	327.27
480.96	327.52
481.33	328.08
481.69	328.62
482.06	329.14
482.42	329.61
482.79	330.17
483.15	330.98
483.52	331.95
483.88	332.83
484.25	333.83
484.61	334.83
484.98	335.86
485.34	337.10
485.71	338.53
486.07	339.94
486.44	341.27
486.80	342.85
487.17	344.51
487.53	346.37
487.90	348.25
488.26	350.30
488.62	352.49
488.99	354.53
489.35	356.73
489.72	359.16
490.08	361.70
490.44	364.31
490.81	367.00
491.17	369.66
491.54	372.64
491.90	375.66
492.26	378.87
492.63	382.27
492.99	385.78
493.36	389.36
493.72	393.21
494.08	397.19
494.45	401.47
494.81	405.83
495.17	410.27
495.54	415.00
495.90	419.80
496.26	424.72
496.63	429.96
496.99	435.33
497.35	440.87
497.72	446.67
498.08	452.54
498.44	458.64
498.80	465.07
499.17	471.55
499.53	478.27
499.89	485.22
500.26	492.26
500.62	499.34
500.98	506.75
501.34	514.25
501.71	522.07
502.07	529.80
502.43	537.78
502.79	545.97
503.16	554.33
503.52	562.95
503.88	571.71
504.24	580.65
504.60	589.74
504.97	599.00
505.33	608.29
505.69	618.17
506.05	628.02
506.41	637.96
506.78	648.04
507.14	658.22
507.50	668.64
507.86	679.29
508.22	690.07
508.59	700.73
508.95	711.84
509.31	723.08
509.67	734.58
510.03	746.02
510.39	757.58
510.75	769.37
511.12	781.20
511.48	793.19
511.84	805.40
512.20	817.71
512.56	830.36
512.92	843.18
513.28	855.87
513.64	868.61
514.00	881.40
514.37	894.29
514.73	907.49
515.09	920.55
515.45	933.46
515.81	946.58
516.17	960.01
516.53	973.19
516.89	986.26
517.25	999.47
517.61	1012.96
517.97	1026.51
518.33	1039.71
518.69	1053.37
519.05	1067.17
519.41	1080.96
519.77	1094.82
520.13	1108.17
520.49	1121.39
520.85	1134.83
521.21	1148.21
521.57	1161.89
521.93	1175.08
522.29	1188.81
522.65	1202.39
523.01	1216.03
523.37	1229.22
523.73	1242.40
524.09	1255.63
524.45	1269.18
524.81	1282.63
525.17	1296.13
525.53	1309.28
525.89	1322.59
526.25	1335.73
526.61	1348.66
526.97	1361.77
527.33	1374.82
527.68	1388.24
528.04	1401.71
528.40	1414.91
528.76	1428.46
529.12	1441.42
529.48	1454.82
529.84	1467.25
530.20	1480.14
530.56	1492.86
530.91	1506.14
531.27	1519.21
531.63	1532.09
531.99	1544.88
532.35	1557.22
532.71	1569.65
533.07	1582.76
533.42	1595.09
533.78	1607.17
534.14	1619.22
534.50	1630.55
534.86	1642.24
535.21	1653.30
535.57	1665.09
535.93	1676.29
536.29	1687.21
536.65	1698.85
537.00	1709.90
537.36	1721.28
537.72	1732.38
538.08	1743.93
538.44	1755.05
538.79	1766.26
539.15	1777.33
539.51	1788.20
539.87	1799.71
540.22	1810.63
540.58	1821.63
540.94	1832.69
541.29	1843.13
541.65	1853.12
542.01	1863.61
542.37	1873.70
542.72	1883.88
543.08	1893.48
543.44	1904.12
543.79	1913.60
544.15	1923.00
544.51	1933.06
544.87	1943.02
545.22	1952.25
545.58	1961.13
545.94	1970.15
546.29	1978.76
546.65	1987.11
547.01	1995.47
547.36	2003.11
547.72	2010.90
548.07	2018.41
548.43	2026.18
548.79	2034.17
549.14	2042.21
549.50	2050.82
549.86	2058.73
550.21	2066.20
550.57	2074.10
550.92	2080.86
551.28	2088.41
551.64	2095.60
551.99	2103.08
552.35	2110.22
552.70	2117.08
553.06	2123.79
553.41	2130.01
553.77	2136.44
554.13	2142.73
554.48	2149.55
554.84	2156.80
555.19	2163.48
555.55	2169.99
555.90	2176.20
556.26	2182.99
556.61	2189.21
556.97	2194.05
557.32	2199.83
557.68	2206.26
558.03	2211.96
558.39	2217.43
558.74	2223.46
559.10	2229.06
559.45	2234.66
559.81	2240.21
560.16	2245.69
560.52	2251.43
560.87	2257.80
561.23	2263.67
561.58	2270.45
561.94	2275.79
562.29	2280.21
562.64	2286.10
563.00	2291.72
563.35	2297.25
563.71	2302.86
564.06	2308.63
564.42	2314.53
564.77	2319.53
565.12	2324.82
565.48	2329.79
565.83	2335.19
566.19	2340.31
566.54	2345.58
566.89	2350.07
567.25	2354.54
567.60	2360.20
567.96	2365.28
568.31	2369.67
568.66	2374.00
569.02	2377.71
569.37	2381.36
569.72	2385.75
570.08	2389.09
570.43	2392.16
570.78	2395.29
571.14	2397.71
571.49	2400.54
571.84	2403.83
572.20	2406.67
572.55	2409.43
572.90	2411.70
573.26	2414.33
573.61	2416.93
573.96	2419.05
574.31	2420.98
574.67	2422.84
575.02	2423.54
575.37	2424.96
575.72	2425.43
576.08	2426.67
576.43	2426.75
576.78	2427.00
577.13	2428.51
577.49	2429.65
577.84	2430.51
578.19	2431.54
578.54	2431.95
578.90	2432.43
579.25	2432.19
579.60	2431.97
579.95	2431.06
580.30	2430.91
580.66	2430.16
581.01	2428.34
581.36	2425.74
581.71	2424.23
582.06	2422.83
582.42	2421.76
582.77	2419.22
583.12	2417.59
583.47	2416.05
583.82	2415.41
584.17	2413.95
584.53	2411.68
584.88	2409.22
585.23	2407.17
585.58	2404.69
585.93	2402.78
586.28	2400.38
586.63	2397.81
586.98	2395.42
587.34	2393.26
587.69	2390.63
588.04	2388.24
588.39	2386.54
588.74	2383.99
589.09	2381.04
589.44	2377.75
589.79	2375.06
590.14	2372.92
590.49	2370.08
590.84	2366.11
591.19	2362.60
591.54	2359.39
591.89	2355.15
592.25	2351.87
592.60	2347.45
592.95	2343.21
593.30	2338.83
593.65	2334.46
594.00	2329.90
594.35	2326.85
594.70	2322.01
595.05	2317.53
595.40	2312.02
595.75	2306.14
596.10	2302.46
596.45	2297.50
596.80	2292.94
597.15	2287.84
597.50	2281.99
597.85	2276.85
598.19	2271.58
598.54	2265.75
598.89	2260.29
599.24	2255.70
599.59	2249.61
599.94	2243.75
600.29	2237.81
600.64	2231.64
600.99	2224.81
601.34	2219.30
601.69	2212.19
602.04	2205.86
602.39	2199.06
602.74	2192.96
603.08	2187.56
603.43	2180.92
603.78	2174.09
604.13	2166.97
604.48	2159.54
604.83	2153.39
605.18	2147.16
605.53	2140.39
605.87	2133.36
606.22	2126.69
606.57	2118.70
606.92	2110.58
607.27	2103.71
607.62	2097.05
607.96	2090.23
608.31	2083.79
608.66	2076.01
609.01	2068.43
609.36	2061.27
609.70	2053.66
610.05	2045.95
610.40	2037.67
610.75	2029.39
611.10	2021.65
611.44	2012.75
611.79	2004.17
612.14	1994.20
612.49	1983.42
612.83	1973.88
613.18	1964.64
613.53	1955.15
613.88	1945.58
614.22	1936.96
614.57	1927.04
614.92	1916.38
615.27	1906.06
615.61	1895.87
615.96	1886.15
616.31	1876.56
616.65	1867.12
617.00	1857.38
617.35	1847.70
617.70	1837.76
618.04	1827.76
618.39	1817.70
618.74	1808.09
619.08	1798.41
619.43	1789.69
619.78	1781.49
620.12	1772.85
620.47	1763.52
620.82	1753.27
621.16	1743.54
621.51	1733.83
621.85	1724.10
622.20	1714.02
622.55	1703.56
622.89	1693.69
623.24	1684.04
623.59	1674.24
623.93	1664.16
624.28	1654.47
624.62	1644.47
624.97	1634.37
625.32	1624.61
625.66	1615.69
626.01	1606.91
626.35	1597.66
626.70	1587.83
627.04	1578.00
627.39	1567.89
627.73	1558.52
628.08	1549.80
628.43	1540.41
628.77	1531.33
629.12	1522.49
629.46	1514.63
629.81	1506.45
630.15	1497.15
630.50	1487.56
630.84	1477.28
631.19	1467.61
631.53	1458.45
631.88	1448.33
632.22	1438.43
632.57	1429.12
632.91	1419.16
633.26	1409.38
633.60	1399.81
633.95	1390.54
634.29	1380.95
634.64	1371.78
634.98	1361.86
635.32	1352.72
635.67	1344.37
636.01	1335.05
636.36	1325.37
636.70	1315.92
637.05	1306.63
637.39	1297.80
637.73	1289.20
638.08	1281.68
638.42	1273.53
638.77	1264.74
639.11	1256.60
639.45	1248.93
639.80	1240.51
640.14	1231.80
640.49	1223.06
640.83	1214.34
641.17	1206.17
641.52	1198.16
641.86	1189.73
642.20	1182.02
642.55	1173.32
642.89	1164.44
643.23	1155.87
643.58	1147.83
643.92	1138.91
644.26	1130.23
644.61	1121.75
644.95	1112.96
645.29	1103.86
645.64	1094.77
645.98	1086.34
646.32	1078.46
646.66	1069.93
647.01	1061.65
647.35	1053.57
647.69	1045.38
648.04	1037.18
648.38	1028.41
648.72	1019.73
649.06	1011.39
649.41	1003.13
649.75	995.30
650.09	987.42
650.43	979.43
650.78	971.20
651.12	963.52
651.46	956.12
651.80	948.94
652.14	941.73
652.49	934.20
652.83	926.92
653.17	919.21
653.51	911.64
653.85	904.47
654.20	897.30
654.54	889.97
654.88	882.66
655.22	875.47
655.56	868.50
655.90	861.69
656.25	855.00
656.59	848.25
656.93	841.22
657.27	834.10
657.61	827.15
657.95	820.99
658.29	814.93
658.64	808.86
658.98	802.36
659.32	795.81
659.66	789.62
660.00	783.24
660.34	777.20
660.68	771.05
661.02	764.69
661.36	758.74
661.70	752.90
662.05	747.25
662.39	741.73
662.73	736.31
663.07	731.00
663.41	725.36
663.75	719.58
664.09	713.88
664.43	708.45
664.77	703.14
665.11	697.37
665.45	691.59
665.79	685.73
666.13	680.16
666.47	674.69
666.81	669.16
667.15	663.75
667.49	658.52
667.83	653.32
668.17	648.07
668.51	642.96
668.85	638.00
669.19	633.19
669.53	628.20
669.87	623.05
670.21	618.19
670.55	613.48
670.89	609.03
671.23	604.72
671.57	600.38
671.91	596.05
672.25	591.84
672.58	587.67
672.92	583.61
673.26	579.60
673.60	575.71
673.94	571.94
674.28	568.34
674.62	564.64
674.96	560.84
675.30	557.33
675.64	553.63
675.97	550.00
676.31	546.25
676.65	542.59
676.99	539.22
677.33	535.37
677.67	531.68
678.01	527.80
678.34	524.16
678.68	520.65
679.02	517.08
679.36	513.39
679.70	509.73
680.04	506.18
680.37	502.71
680.71	499.37
681.05	496.08
681.39	492.82
681.73	489.52
682.06	486.46
682.40	483.34
682.74	480.12
683.08	476.85
683.42	473.67
683.75	470.61
684.09	467.50
684.43	464.71
684.77	461.76
685.10	458.92
685.44	455.98
685.78	453.01
686.12	450.17
686.45	447.45
686.79	444.81
687.13	442.23
687.46	439.58
687.80	436.85
688.14	434.03
688.48	431.34
688.81	428.70
689.15	426.07
689.49	423.45
689.82	420.91
690.16	418.29
690.50	415.85
690.83	413.37
691.17	410.84
691.51	408.29
691.84	406.01
692.18	403.74
692.52	401.54
692.85	399.37
693.19	397.21
693.52	395.03
693.86	392.79
694.20	390.58
694.53	388.40
694.87	386.18
695.21	384.05
695.54	381.87
695.88	379.66
696.21	377.50
696.55	375.33
696.88	373.25
697.22	371.28
697.56	369.32
697.89	367.40
698.23	365.58
698.56	363.78
698.90	362.00
699.23	360.09
699.57	358.17
699.90	356.25
700.24	354.42
700.58	352.63
700.91	350.90
701.25	349.29
701.58	347.67
701.92	346.05
702.25	344.40
702.59	342.79
702.92	341.23
703.26	339.64
703.59	338.16
703.93	336.82
704.26	335.37
704.60	333.89
704.93	332.40
705.26	330.91
705.60	329.43
705.93	327.89
706.27	326.58
706.60	325.30
706.94	324.09
707.27	322.69
707.61	321.32
707.94	319.93
708.27	318.45
708.61	316.99
708.94	315.57
709.28	314.28
709.61	312.99
709.94	311.78
710.28	310.55
710.61	309.37
710.95	307.99
711.28	306.93
711.61	305.72
711.95	304.52
712.28	303.32
712.61	302.05
712.95	301.00
713.28	299.90
713.61	298.71
713.95	297.51
714.28	296.45
714.61	295.40
714.95	294.37
715.28	293.30
715.61	292.25
715.95	291.31
716.28	290.29
716.61	289.32
716.95	288.29
717.28	287.29
717.61	286.27
717.94	285.35
718.28	284.27
718.61	283.39
718.94	282.49
719.27	281.63
719.61	280.84
719.94	279.92
720.27	278.94
720.60	278.08
720.94	277.24
721.27	276.44
721.60	275.70
721.93	274.98
722.27	274.33
722.60	273.65
722.93	272.93
723.26	272.29
723.59	271.55
723.93	270.89
724.26	270.27
724.59	269.60
724.92	268.99
725.25	268.43
725.59	267.81
725.92	267.26
726.25	266.64
726.58	266.03
726.91	265.42
727.24	264.89
727.57	264.30
727.91	263.70
728.24	263.16
728.57	262.57
728.90	262.01
729.23	261.40
729.56	260.93
729.89	260.41
730.22	259.81
730.55	259.27
730.89	258.76
731.22	258.24
731.55	257.76
731.88	257.21
732.21	256.66
732.54	256.11
732.87	255.58
733.20	255.10
733.53	254.62
733.86	254.16
734.19	253.65
734.52	253.26
734.85	252.98
735.18	252.49
735.51	252.15
735.84	251.71
736.17	251.33
736.50	250.74
736.83	250.54
737.16	250.14
737.49	249.78
737.82	249.36
738.15	248.96
738.48	248.54
738.81	248.17
739.14	247.77
739.47	247.39
739.80	247.03
740.13	246.71
740.46	246.31
740.79	245.92
741.12	245.58
741.45	245.16
741.78	244.70
742.11	244.47
742.44	244.02
742.77	243.73
743.10	243.35
743.43	243.04
743.75	242.48
744.08	242.43
744.41	242.06
744.74	241.71
745.07	241.33
745.40	241.02
745.73	240.73
746.06	240.39
746.39	240.07
746.71	239.71
747.04	239.30
747.37	238.98
747.70	238.69
748.03	238.37
748.36	238.12
748.68	237.79
749.01	237.38
749.34	237.09
749.67	236.76
750.00	236.49
750.33	236.34
750.65	236.06
750.98	235.50
751.31	235.25
751.64	235.03
751.97	234.93
752.29	234.66
752.62	234.30
752.95	234.06
753.28	233.79
753.60	233.55
753.93	233.41
754.26	233.22
754.59	232.91
754.91	232.64
755.24	232.39
755.57	232.17
755.90	231.95
756.22	231.72
756.55	231.48
756.88	231.22
757.20	230.86
757.53	230.61
757.86	230.43
758.19	230.25
758.51	230.01
758.84	229.70
759.17	229.50
759.49	229.35
759.82	229.27
760.15	229.10
760.47	228.91
760.80	228.64
761.13	228.44
761.45	228.25
761.78	228.08
762.11	227.92
762.43	227.71
762.76	227.51
763.08	227.34
763.41	227.17
763.74	227.01
764.06	226.86
764.39	226.71
764.71	226.47
765.04	226.27
765.37	226.09
765.69	225.91
766.02	225.76
766.34	225.61
766.67	225.38
767.00	225.27
767.32	225.20
767.65	225.19
767.97	225.07
768.30	224.97
768.62	224.85
768.95	224.64
769.27	224.53
769.60	224.48
769.92	224.33
770.25	224.18
770.57	224.02
770.90	223.90
771.22	223.75
771.55	223.70
771.87	223.57
772.20	223.45
772.52	223.49
772.85	223.63
773.17	223.53
773.50	223.41
773.82	223.30
774.15	223.14
774.47	222.91
774.80	222.79
775.12	222.67
775.45	222.59
775.77	222.60
776.09	222.50
776.42	222.39
776.74	222.36
777.07	222.29
777.39	222.21
777.72	222.13
778.04	222.10
778.36	221.97
778.69	221.92
779.01	221.88
779.33	221.62
779.66	221.30
779.98	221.19
780.31	221.11
780.63	221.10
780.95	221.05
781.28	220.99
781.60	220.89
781.92	220.82
782.25	220.74
782.57	220.63
782.89	220.55
783.22	220.47
783.54	220.36
783.86	220.31
784.19	220.23
784.51	220.23
784.83	220.13
785.16	220.11
785.48	220.04
785.80	219.99
786.12	219.97
786.45	219.90
786.77	219.85
787.09	219.75
787.42	219.63
787.74	219.55
788.06	219.48
788.38	219.42
788.71	219.34
789.03	219.27
789.35	219.27
789.67	219.20
789.99	219.17
790.32	219.10
790.64	219.06
790.96	219.21
791.28	219.08
791.61	219.02
791.93	218.99
792.25	218.93
792.57	219.00
792.89	218.89
793.21	218.86
793.54	218.78
793.86	218.77
794.18	218.70
794.50	218.64
794.82	218.59
795.14	218.58
795.47	218.58
795.79	218.56
796.11	218.43
796.43	218.38
796.75	218.31
797.07	218.27
797.39	218.22
797.71	218.01
798.04	217.98
798.36	217.92
798.68	217.87
799.00	217.87
799.32	217.73
799.64	217.75
799.96	217.75
800.28	217.74
800.60	217.66
800.92	217.67
801.24	217.63
801.56	217.62
801.89	217.57
802.21	217.54
802.53	217.46
802.85	217.51
803.17	217.57
803.49	217.48
803.81	217.41
804.13	217.37
804.45	217.31
804.77	217.29
805.09	217.27
805.41	217.20
805.73	217.13
806.05	217.08
806.37	217.04
806.69	216.98
807.01	216.96
807.33	216.93
807.65	216.83
807.97	216.89
808.28	216.83
808.60	216.78
808.92	216.75
809.24	216.86
809.56	216.81
809.88	216.71
810.20	216.73
810.52	216.73
810.84	216.69
811.16	216.64
811.48	216.60
811.80	216.65
812.12	216.63
812.43	216.63
812.75	216.60
813.07	216.53
813.39	216.52
813.71	216.46
814.03	216.45
814.35	216.40
814.67	216.25
814.98	216.24
815.30	216.24
815.62	216.18
815.94	215.99
816.26	215.93
816.58	215.87
816.89	215.90
817.21	215.86
817.53	215.83
817.85	215.85
818.17	215.80
818.48	215.71
818.80	215.72
819.12	215.66
819.44	215.61
819.76	215.59
820.07	215.56
820.39	215.51
820.71	215.52
821.03	215.53
821.34	215.53
821.66	215.53
821.98	215.55
822.30	215.53
822.61	215.66
822.93	215.65
823.25	215.65
823.57	215.57
823.88	215.60
824.20	215.59
824.52	215.60
824.83	215.60
825.15	215.57
825.47	215.54
825.79	215.54
826.10	215.52
826.42	215.52
826.74	215.53
827.05	215.56
827.37	215.55
827.69	215.51
828.00	215.48
828.32	215.47
828.64	215.39
828.95	215.50
829.27	215.43
829.58	215.41
829.90	215.44
830.22	215.45
830.53	215.40
830.85	215.38
831.17	215.31
831.48	215.30
831.80	215.29
832.11	215.30
832.43	215.26
832.75	215.25
833.06	215.36
833.38	215.30
833.69	215.28
834.01	215.27
834.32	215.25
834.64	215.27
834.96	215.24
835.27	215.24
835.59	215.15
835.90	215.10
836.22	215.09
836.53	215.02
836.85	215.00
837.16	215.22
837.48	215.21
837.79	215.28
838.11	215.28
838.42	215.27
838.74	215.26
839.05	215.24
839.37	215.24
839.68	215.12
840.00	215.09
840.31	215.11
840.63	215.08
840.94	215.08
841.26	215.05
841.57	215.09
841.88	215.14
842.20	215.09
842.51	215.06
842.83	215.07
843.14	215.26
843.46	215.24
843.77	215.07
844.08	215.04
844.40	214.96
844.71	214.95
845.03	214.93
845.34	214.91
845.65	214.92
845.97	214.92
846.28	214.89
846.60	214.92
846.91	214.88
847.22	214.87
847.54	214.91
847.85	214.91
848.16	214.85
848.48	214.76
848.79	214.84
849.10	214.85
849.42	214.83
849.73	214.64
850.04	214.63
850.36	214.56
850.67	214.59
850.98	214.63
851.30	214.61
851.61	214.62
851.92	214.64
852.23	214.69
852.55	214.69
852.86	214.71
853.17	214.68
853.49	214.72
853.80	214.74
854.11	214.73
854.42	214.76
854.74	214.71
855.05	214.71
855.36	214.58
855.67	214.57
855.99	214.57
856.30	214.79
856.61	214.79
856.92	214.82
857.23	214.79
857.55	214.74
857.86	214.71
858.17	214.74
858.48	214.70
858.79	214.67
859.11	214.64
859.42	214.60
859.73	214.59
860.04	214.58
860.35	214.50
860.66	214.44
860.98	214.41
861.29	214.47
861.60	214.45
861.91	214.52
862.22	214.50
862.53	214.46
862.84	214.23
863.16	214.29
863.47	214.24
863.78	214.22
864.09	214.26
864.40	214.29
864.71	214.28
865.02	214.29
865.33	214.27
865.64	214.25
865.95	214.24
866.27	214.36
866.58	214.32
866.89	214.37
867.20	214.36
867.51	214.33
867.82	214.31
868.13	214.38
868.44	214.30
868.75	214.35
869.06	214.37
869.37	214.36
869.68	214.25
869.99	214.28
870.30	214.29
870.61	214.28
870.92	214.23
871.23	214.20
871.54	214.22
871.85	214.25
872.16	214.27
872.47	214.30
872.78	214.18
873.09	214.15
873.40	214.11
873.71	214.15
874.02	214.18
874.33	214.14
874.64	214.11
874.95	214.18
875.26	214.11
875.56	214.12
875.87	214.12
876.18	214.12
876.49	214.34
876.80	214.32
877.11	214.30
877.42	214.34
877.73	214.37
878.04	214.34
878.35	214.33
878.66	214.34
878.96	214.36
879.27	214.35
879.58	214.40
879.89	214.40
880.20	214.42
880.51	214.44
880.82	214.43
881.12	214.45
881.43	214.38
881.74	214.40
882.05	214.38
882.36	214.41
882.67	214.43
882.97	214.22
883.28	214.22
883.59	214.19
883.90	214.17
884.21	214.16
884.51	214.15
884.82	214.12
885.13	214.10
885.44	214.04
885.74	214.04
886.05	214.01
886.36	214.02
886.67	213.98
886.98	214.05
887.28	214.11
887.59	214.07
887.90	214.10
888.20	214.06
888.51	214.10
888.82	214.10
889.13	214.16
889.43	214.29
889.74	214.27
890.05	214.30
890.35	214.30
890.66	214.26
890.97	214.24
891.28	214.23
891.58	214.25
891.89	214.25
892.20	214.24
892.50	214.25
892.81	214.26
893.12	214.23
893.42	214.14
893.73	214.16
894.04	214.15
894.34	214.14
894.65	214.14
894.95	214.13
895.26	214.09
895.57	214.16
895.87	214.00
896.18	214.05
896.48	214.01
896.79	214.01
897.10	214.07
897.40	214.07
897.71	214.13
898.01	214.11
898.32	214.14
898.63	214.14
898.93	214.14
899.24	214.12
899.54	214.13
899.85	214.12
900.15	214.07
900.46	214.09
900.76	214.14
901.07	214.13
901.38	214.13
901.68	214.13
901.99	213.99
902.29	213.95
902.60	213.93
902.90	213.96
903.21	213.96
903.51	213.93
903.82	214.00
904.12	213.97
904.43	213.98
904.73	213.98
905.03	213.99
905.34	214.18
905.64	214.19
905.95	214.16
906.25	214.17
906.56	214.15
906.86	214.13
907.17	214.12
907.47	214.15
907.77	214.10
908.08	214.09
908.38	214.10
908.69	214.13
908.99	214.18
909.30	214.21
909.60	214.20
909.90	214.20
910.21	214.12
910.51	214.09
910.81	214.07
911.12	214.06
911.42	214.06
911.73	213.85
912.03	213.83
912.33	213.92
912.64	213.92
912.94	213.91
913.24	213.87
913.55	213.82
913.85	213.80
914.15	213.86
914.46	213.88
914.76	213.89
915.06	213.89
915.37	213.86
915.67	213.84
915.97	213.85
916.27	213.79
916.58	213.80
916.88	213.80
917.18	213.80
917.49	213.92
917.79	213.91
918.09	213.93
918.39	214.00
918.70	213.96
919.00	213.98
919.30	214.08
919.60	214.10
919.91	214.08
920.21	214.13
920.51	214.06
920.81	214.06
921.12	214.11
921.42	214.11
921.72	214.08
922.02	214.05
922.32	214.06
922.63	214.08
922.93	214.17
923.23	214.21
923.53	214.21
923.83	214.09
924.13	214.11
924.44	214.11
924.74	214.09
925.04	214.13
925.34	214.09
925.64	213.99
925.94	213.97
926.24	214.12
926.55	214.05
926.85	214.11
927.15	214.08
927.45	214.08
927.75	214.08
928.05	214.10
928.35	214.11
928.65	214.17
928.95	214.19
929.26	214.10
929.56	214.13
929.86	214.15
930.16	214.12
930.46	214.13
930.76	214.14
931.06	214.07
931.36	214.02
931.66	214.07
931.96	214.12
932.26	214.12
932.56	214.00
932.86	214.04
933.16	214.02
933.46	214.02
933.76	213.98
934.06	214.00
934.36	214.09
934.66	214.08
934.96	214.04
935.26	214.03
935.56	214.05
935.86	213.96
936.16	213.95
936.46	213.94
936.76	213.89
937.06	213.87
937.36	213.87
937.66	213.88
937.96	213.85
938.26	213.82
938.56	213.82
938.86	213.85
939.16	213.90
939.46	213.93
939.76	213.96
940.06	213.95
940.35	213.91
940.65	213.79
940.95	213.81
941.25	213.77
941.55	213.78
941.85	213.76
942.15	213.80
942.45	213.85
942.75	213.83
943.04	213.85
943.34	213.87
943.64	213.88
943.94	213.85
944.24	213.86
944.54	213.87
944.84	213.88
945.13	213.85
945.43	213.80
945.73	213.78
946.03	213.72
946.33	213.70
946.62	213.68
946.92	213.69
947.22	213.71
947.52	213.72
947.82	213.72
948.11	213.72
948.41	213.69
948.71	213.62
949.01	213.63
949.31	213.64
949.60	213.66
949.90	213.69
950.20	213.67
950.50	213.68
950.79	213.68
951.09	213.70
951.39	213.69
951.69	213.65
951.98	213.70
952.28	213.74
952.58	213.73
952.87	213.73
953.17	213.74
953.47	213.70
953.76	213.71
954.06	213.67
954.36	213.62
954.66	213.63
954.95	213.67
955.25	213.68
955.55	213.67
955.84	213.62
956.14	213.62
956.44	213.65
956.73	213.57
957.03	213.57
957.32	213.55
957.62	213.57
957.92	213.64
958.21	213.58
958.51	213.82
958.81	213.85
959.10	213.86
959.40	213.95
959.69	213.96
959.99	213.99
960.29	214.00
960.58	214.03
960.88	214.12
961.17	214.08
961.47	214.08
961.76	214.07
962.06	214.08
962.36	214.05
962.65	214.04
962.95	214.08
963.24	214.07
963.54	214.08
963.83	214.07
964.13	214.03
964.42	214.02
964.72	213.83
965.01	213.84
965.31	213.83
965.60	213.72
965.90	213.83
966.19	213.80
966.49	213.80
966.78	213.80
967.08	213.79
967.37	213.83
967.67	213.81
967.96	213.84
968.26	213.86
968.55	213.91
968.85	213.92
969.14	213.96
969.43	213.95
969.73	213.94
970.02	213.95
970.32	213.94
970.61	213.90
970.91	213.85
971.20	213.84
971.49	213.85
971.79	213.91
972.08	213.77
972.38	213.78
972.67	213.78
972.96	213.82
973.26	213.76
973.55	213.83
973.85	213.83
974.14	213.81
974.43	213.85
974.73	213.79
975.02	213.78
975.31	213.75
975.61	213.77
975.90	213.71
976.19	213.68
976.49	213.73
976.78	213.73
977.07	213.75
977.37	213.74
977.66	213.76
977.95	213.71
978.24	213.73
978.54	213.75
978.83	213.76
979.12	213.72
979.42	213.72
979.71	213.70
980.00	213.69
980.29	213.69
980.59	213.62
980.88	213.67
981.17	213.66
981.46	213.67
981.76	213.66
982.05	213.74
982.34	213.76
982.63	213.73
982.93	213.77
983.22	213.82
983.51	213.83
983.80	213.83
984.09	213.89
984.39	213.88
984.68	213.86
984.97	213.86
985.26	213.87
985.55	213.89
985.85	213.81
986.14	213.82
986.43	213.86
986.72	213.86
987.01	213.82
987.30	213.83
987.59	213.81
987.89	213.83
988.18	213.76
988.47	213.75
988.76	213.78
989.05	213.78
989.34	213.75
989.63	213.83
989.92	213.80
990.22	213.74
990.51	213.74
990.80	213.74
991.09	213.78
991.38	213.79
991.67	213.75
991.96	213.74
992.25	213.76
992.54	213.75
992.83	213.73
993.12	213.74
993.41	213.75
993.70	213.85
993.99	213.88
994.28	213.93
994.58	213.95
994.87	213.95
995.16	213.94
995.45	213.89
995.74	213.80
996.03	213.82
996.32	213.87
996.61	213.92
996.90	213.89
997.19	213.85
997.48	213.84
997.77	213.84
998.06	213.87
998.34	213.85
998.63	213.81
998.92	213.81
999.21	213.84
999.50	213.83
999.79	213.75
1000.08	213.71
1000.37	213.71
1000.66	213.68
1000.95	213.69
1001.24	213.68
1001.53	213.74
1001.82	213.74
1002.11	213.71
1002.40	213.74
1002.68	213.77
1002.97	213.93
1003.26	213.89
1003.55	213.88
1003.84	213.90
1004.13	213.97
1004.42	213.96
1004.71	213.97
1004.99	213.96
1005.28	214.01
1005.57	214.00
1005.86	213.97
1006.15	213.99
1006.44	213.97
1006.72	214.01
1007.01	213.97
1007.30	213.98
1007.59	213.95
1007.88	213.94
1008.17	213.99
1008.45	213.93
1008.74	213.83
1009.03	213.74
1009.32	213.76
1009.60	213.78
1009.89	213.75
1010.18	213.67
1010.47	213.67
1010.76	213.67
1011.04	213.70
1011.33	213.69
1011.62	213.73
1011.91	213.78
1012.19	213.78
1012.48	213.76
1012.77	213.72
1013.05	213.81
1013.34	213.80
1013.63	213.80
1013.92	213.84
1014.20	213.80
1014.49	213.78
1014.78	213.80
1015.06	213.72
1015.35	213.75
1015.64	213.76
1015.92	213.79
1016.21	213.79
1016.50	213.80
1016.78	213.82
1017.07	213.79
1017.36	213.73
1017.64	213.68
1017.93	213.71
1018.22	213.68
1018.50	213.71
1018.79	213.73
1019.08	213.63
1019.36	213.67
1019.65	213.64
1019.93	213.67
1020.22	213.68
1020.51	213.79
1020.79	213.78
1021.08	213.45
1021.36	213.78
1021.65	214.09
1021.94	213.39
1022.22	214.14
1022.51	213.21
1022.79	214.53
1023.08	213.41
1023.36	216.00
1023.65	213.24
>>>>>End Processed Spectral Data<<<<<
