SpectraSuite Data File
++++++++++++++++++++++++++++++++++++
Date: Tue Jan 29 16:21:53 EST 2013
User: group
Dark Spectrum Present: No
Reference Spectrum Present: No
Number of Sampled Component Spectra: 1
Spectrometers: USB2E7196
Integration Time (usec): 65000 (USB2E7196)
Spectra Averaged: 100 (USB2E7196)
Boxcar Smoothing: 10 (USB2E7196)
Correct for Electrical Dark: No (USB2E7196)
Strobe/Lamp Enabled: No (USB2E7196)
Correct for Detector Non-linearity: No (USB2E7196)
Correct for Stray Light: No (USB2E7196)
Number of Pixels in Processed Spectrum: 2048
>>>>>Begin Processed Spectral Data<<<<<
339.09	0.00
339.48	202.29
339.86	203.59
340.24	205.01
340.63	206.74
341.01	211.11
341.39	209.25
341.78	211.29
342.16	212.62
342.54	212.42
342.93	201.72
343.31	211.92
343.69	212.46
344.07	212.95
344.46	213.41
344.84	213.81
345.22	213.99
345.60	214.26
345.99	214.47
346.37	214.61
346.75	214.73
347.13	214.82
347.52	214.88
347.90	215.02
348.28	215.08
348.66	215.15
349.05	215.12
349.43	215.18
349.81	215.29
350.19	215.33
350.57	215.44
350.96	215.53
351.34	215.68
351.72	215.77
352.10	215.88
352.48	215.96
352.87	215.99
353.25	216.06
353.63	216.13
354.01	216.16
354.39	216.22
354.77	216.31
355.15	216.43
355.54	216.46
355.92	216.46
356.30	216.52
356.68	216.73
357.06	216.83
357.44	216.88
357.82	216.94
358.20	217.05
358.58	217.06
358.97	217.12
359.35	217.16
359.73	217.26
360.11	217.31
360.49	217.37
360.87	217.42
361.25	217.51
361.63	217.62
362.01	217.68
362.39	217.69
362.77	217.73
363.15	217.71
363.53	217.73
363.91	217.75
364.29	217.76
364.67	217.57
365.05	217.53
365.43	217.55
365.81	217.56
366.19	217.63
366.57	217.74
366.95	217.74
367.33	217.73
367.71	217.74
368.09	217.76
368.47	217.75
368.85	217.72
369.23	217.74
369.61	217.64
369.99	217.67
370.37	217.69
370.75	217.77
371.13	217.70
371.51	217.67
371.89	217.67
372.27	217.65
372.65	217.63
373.03	217.64
373.41	217.60
373.78	217.53
374.16	217.38
374.54	217.27
374.92	217.22
375.30	217.15
375.68	217.05
376.06	217.00
376.44	216.93
376.82	216.94
377.19	216.86
377.57	216.82
377.95	216.72
378.33	216.66
378.71	216.49
379.09	216.49
379.47	216.47
379.84	216.37
380.22	216.32
380.60	216.24
380.98	216.17
381.36	216.11
381.73	216.05
382.11	216.04
382.49	216.00
382.87	215.91
383.25	215.89
383.62	216.10
384.00	216.01
384.38	215.99
384.76	215.99
385.13	216.04
385.51	215.99
385.89	215.94
386.27	215.90
386.64	215.93
387.02	215.89
387.40	215.84
387.78	215.83
388.15	215.77
388.53	215.75
388.91	215.72
389.29	215.67
389.66	215.70
390.04	215.62
390.42	215.66
390.79	215.68
391.17	215.63
391.55	215.39
391.92	215.43
392.30	215.44
392.68	215.36
393.05	215.35
393.43	215.37
393.81	215.42
394.18	215.39
394.56	215.40
394.94	215.44
395.31	215.47
395.69	215.57
396.06	215.63
396.44	215.69
396.82	215.73
397.19	215.89
397.57	215.90
397.95	215.97
398.32	215.94
398.70	215.99
399.07	216.10
399.45	216.12
399.82	216.17
400.20	216.22
400.58	216.33
400.95	216.32
401.33	216.42
401.70	216.64
402.08	216.74
402.45	216.81
402.83	216.96
403.20	217.06
403.58	217.10
403.95	217.28
404.33	217.43
404.71	217.57
405.08	217.81
405.46	218.01
405.83	218.23
406.21	218.43
406.58	218.67
406.96	218.88
407.33	219.18
407.70	219.45
408.08	219.87
408.45	220.22
408.83	220.57
409.20	220.93
409.58	221.17
409.95	221.62
410.33	222.10
410.70	222.49
411.08	223.07
411.45	223.66
411.82	224.21
412.20	224.89
412.57	225.73
412.95	226.27
413.32	227.09
413.69	227.89
414.07	228.79
414.44	229.76
414.82	230.75
415.19	231.91
415.56	233.11
415.94	234.30
416.31	235.72
416.68	237.09
417.06	238.69
417.43	240.20
417.81	241.95
418.18	243.70
418.55	245.65
418.93	247.61
419.30	249.69
419.67	251.94
420.04	254.17
420.42	256.49
420.79	259.32
421.16	262.03
421.54	264.93
421.91	267.91
422.28	270.97
422.66	274.27
423.03	277.49
423.40	280.83
423.77	284.39
424.15	288.02
424.52	291.84
424.89	295.93
425.26	299.98
425.64	303.81
426.01	308.08
426.38	312.49
426.75	317.01
427.13	321.64
427.50	326.56
427.87	331.71
428.24	336.88
428.61	341.79
428.99	347.28
429.36	353.18
429.73	359.01
430.10	364.82
430.47	370.83
430.85	377.09
431.22	383.70
431.59	390.72
431.96	397.40
432.33	404.85
432.70	412.06
433.08	420.50
433.45	428.43
433.82	436.35
434.19	445.13
434.56	453.74
434.93	462.08
435.30	470.28
435.68	479.33
436.05	488.12
436.42	496.95
436.79	504.99
437.16	513.72
437.53	522.92
437.90	531.95
438.27	540.80
438.64	549.88
439.01	558.30
439.38	565.83
439.75	573.12
440.13	581.40
440.50	589.30
440.87	595.67
441.24	602.23
441.61	609.48
441.98	614.85
442.35	621.09
442.72	627.34
443.09	633.24
443.46	636.93
443.83	639.51
444.20	641.73
444.57	644.87
444.94	646.21
445.31	647.56
445.68	648.96
446.05	649.48
446.42	648.68
446.79	647.76
447.16	646.68
447.53	645.95
447.90	642.61
448.27	639.25
448.64	634.65
449.01	631.38
449.37	625.53
449.74	619.90
450.11	613.09
450.48	605.73
450.85	598.44
451.22	592.01
451.59	585.93
451.96	580.06
452.33	572.27
452.70	565.31
453.07	556.99
453.43	548.47
453.80	540.31
454.17	532.44
454.54	524.94
454.91	516.84
455.28	508.90
455.65	501.65
456.02	494.29
456.38	488.01
456.75	480.26
457.12	473.80
457.49	467.35
457.86	461.25
458.23	455.92
458.59	450.03
458.96	444.12
459.33	438.93
459.70	433.69
460.07	429.49
460.43	424.63
460.80	420.08
461.17	416.14
461.54	412.01
461.91	408.05
462.27	403.96
462.64	400.59
463.01	396.84
463.38	393.14
463.74	389.49
464.11	386.26
464.48	383.44
464.85	380.36
465.21	377.98
465.58	375.37
465.95	372.28
466.32	369.65
466.68	367.06
467.05	364.48
467.42	361.91
467.78	359.27
468.15	356.74
468.52	354.83
468.88	352.40
469.25	350.20
469.62	348.40
469.98	346.56
470.35	344.75
470.72	343.06
471.08	341.30
471.45	339.80
471.82	338.35
472.18	336.72
472.55	335.51
472.92	334.15
473.28	332.92
473.65	331.83
474.02	330.76
474.38	329.91
474.75	329.16
475.11	328.36
475.48	327.81
475.85	327.35
476.21	326.88
476.58	326.52
476.94	326.36
477.31	326.08
477.67	325.81
478.04	325.66
478.41	325.67
478.77	325.86
479.14	325.81
479.50	325.95
479.87	326.26
480.23	326.61
480.60	326.86
480.96	327.18
481.33	327.76
481.69	328.37
482.06	328.90
482.42	329.33
482.79	329.94
483.15	330.68
483.52	331.62
483.88	332.52
484.25	333.48
484.61	334.44
484.98	335.48
485.34	336.80
485.71	338.18
486.07	339.66
486.44	341.01
486.80	342.62
487.17	344.25
487.53	346.04
487.90	347.85
488.26	349.86
488.62	352.04
488.99	354.07
489.35	356.21
489.72	358.59
490.08	361.18
490.44	363.74
490.81	366.51
491.17	369.30
491.54	372.31
491.90	375.31
492.26	378.61
492.63	382.07
492.99	385.56
493.36	389.23
493.72	393.13
494.08	397.13
494.45	401.36
494.81	405.77
495.17	410.24
495.54	415.04
495.90	419.85
496.26	424.75
496.63	430.01
496.99	435.39
497.35	440.96
497.72	446.76
498.08	452.77
498.44	458.87
498.80	465.29
499.17	471.83
499.53	478.62
499.89	485.52
500.26	492.46
500.62	499.61
500.98	507.04
501.34	514.49
501.71	522.33
502.07	530.26
502.43	538.31
502.79	546.50
503.16	554.84
503.52	563.48
503.88	572.20
504.24	581.18
504.60	590.40
504.97	599.67
505.33	608.98
505.69	618.88
506.05	628.80
506.41	638.62
506.78	648.75
507.14	659.02
507.50	669.57
507.86	680.33
508.22	691.20
508.59	701.98
508.95	713.14
509.31	724.45
509.67	736.00
510.03	747.54
510.39	759.42
510.75	771.37
511.12	783.40
511.48	795.59
511.84	807.95
512.20	820.36
512.56	833.16
512.92	846.08
513.28	858.81
513.64	871.57
514.00	884.54
514.37	897.56
514.73	910.79
515.09	923.83
515.45	936.83
515.81	949.98
516.17	963.44
516.53	976.78
516.89	989.91
517.25	1003.10
517.61	1016.66
517.97	1030.15
518.33	1043.42
518.69	1057.09
519.05	1070.99
519.41	1084.65
519.77	1098.56
520.13	1111.96
520.49	1125.19
520.85	1138.56
521.21	1152.02
521.57	1165.89
521.93	1179.07
522.29	1192.81
522.65	1206.42
523.01	1220.12
523.37	1233.36
523.73	1246.75
524.09	1259.96
524.45	1273.45
524.81	1287.02
525.17	1300.53
525.53	1313.78
525.89	1327.22
526.25	1340.40
526.61	1353.30
526.97	1366.47
527.33	1379.51
527.68	1393.00
528.04	1406.59
528.40	1419.93
528.76	1433.38
529.12	1446.34
529.48	1459.89
529.84	1472.34
530.20	1485.20
530.56	1497.87
530.91	1511.20
531.27	1524.07
531.63	1536.88
531.99	1549.82
532.35	1562.09
532.71	1574.47
533.07	1587.29
533.42	1599.46
533.78	1611.70
534.14	1623.86
534.50	1635.17
534.86	1646.75
535.21	1657.71
535.57	1669.20
535.93	1680.51
536.29	1691.67
536.65	1703.01
537.00	1713.83
537.36	1725.20
537.72	1736.25
538.08	1747.77
538.44	1758.74
538.79	1769.83
539.15	1780.76
539.51	1791.43
539.87	1802.77
540.22	1813.54
540.58	1824.57
540.94	1835.59
541.29	1845.79
541.65	1855.54
542.01	1866.29
542.37	1876.31
542.72	1886.41
543.08	1896.24
543.44	1906.68
543.79	1915.99
544.15	1925.60
544.51	1935.70
544.87	1945.67
545.22	1954.86
545.58	1963.66
545.94	1972.43
546.29	1981.02
546.65	1989.37
547.01	1997.68
547.36	2005.50
547.72	2013.43
548.07	2021.08
548.43	2028.74
548.79	2036.52
549.14	2044.70
549.50	2052.95
549.86	2060.85
550.21	2068.27
550.57	2075.97
550.92	2082.89
551.28	2090.32
551.64	2097.64
551.99	2105.22
552.35	2112.36
552.70	2119.34
553.06	2126.09
553.41	2132.33
553.77	2138.86
554.13	2145.27
554.48	2152.26
554.84	2159.28
555.19	2165.67
555.55	2171.95
555.90	2178.26
556.26	2185.06
556.61	2191.11
556.97	2195.90
557.32	2201.68
557.68	2208.26
558.03	2214.04
558.39	2219.34
558.74	2225.33
559.10	2230.78
559.45	2236.25
559.81	2241.76
560.16	2247.38
560.52	2253.35
560.87	2259.99
561.23	2265.98
561.58	2272.81
561.94	2277.93
562.29	2282.61
562.64	2288.76
563.00	2294.61
563.35	2300.30
563.71	2306.30
564.06	2311.97
564.42	2318.18
564.77	2323.45
565.12	2328.64
565.48	2333.93
565.83	2339.41
566.19	2345.13
566.54	2350.62
566.89	2355.26
567.25	2359.98
567.60	2365.71
567.96	2370.98
568.31	2375.57
568.66	2379.97
569.02	2383.88
569.37	2387.96
569.72	2392.50
570.08	2396.15
570.43	2399.27
570.78	2402.50
571.14	2405.00
571.49	2408.32
571.84	2411.88
572.20	2414.79
572.55	2418.01
572.90	2420.18
573.26	2423.18
573.61	2425.67
573.96	2427.88
574.31	2429.84
574.67	2431.86
575.02	2432.75
575.37	2434.16
575.72	2435.03
576.08	2436.57
576.43	2436.88
576.78	2437.41
577.13	2439.08
577.49	2440.26
577.84	2441.59
578.19	2443.05
578.54	2443.87
578.90	2444.71
579.25	2444.55
579.60	2444.64
579.95	2443.79
580.30	2444.14
580.66	2443.49
581.01	2441.86
581.36	2439.66
581.71	2438.64
582.06	2437.64
582.42	2436.97
582.77	2434.82
583.12	2433.32
583.47	2432.08
583.82	2431.56
584.17	2430.44
584.53	2428.45
584.88	2426.50
585.23	2424.60
585.58	2422.35
585.93	2420.24
586.28	2418.19
586.63	2415.88
586.98	2413.80
587.34	2412.02
587.69	2409.65
588.04	2407.78
588.39	2406.36
588.74	2403.98
589.09	2401.20
589.44	2398.07
589.79	2395.57
590.14	2393.82
590.49	2390.98
590.84	2387.18
591.19	2384.19
591.54	2380.98
591.89	2376.88
592.25	2373.63
592.60	2369.32
592.95	2365.20
593.30	2361.10
593.65	2356.57
594.00	2352.30
594.35	2349.26
594.70	2344.72
595.05	2340.19
595.40	2334.63
595.75	2329.04
596.10	2325.43
596.45	2320.61
596.80	2316.03
597.15	2310.80
597.50	2304.68
597.85	2299.78
598.19	2294.55
598.54	2288.68
598.89	2283.43
599.24	2279.01
599.59	2272.76
599.94	2267.04
600.29	2261.18
600.64	2255.30
600.99	2248.58
601.34	2243.01
601.69	2236.03
602.04	2229.50
602.39	2222.83
602.74	2216.79
603.08	2211.21
603.43	2204.60
603.78	2197.73
604.13	2190.65
604.48	2183.39
604.83	2177.40
605.18	2171.18
605.53	2164.18
605.87	2157.05
606.22	2150.20
606.57	2142.21
606.92	2134.47
607.27	2127.52
607.62	2120.67
607.96	2113.69
608.31	2107.21
608.66	2099.53
609.01	2091.94
609.36	2084.82
609.70	2077.10
610.05	2069.17
610.40	2060.70
610.75	2052.22
611.10	2044.58
611.44	2035.79
611.79	2026.98
612.14	2016.86
612.49	2006.14
612.83	1996.75
613.18	1987.63
613.53	1978.19
613.88	1968.49
614.22	1959.70
614.57	1949.80
614.92	1939.29
615.27	1929.04
615.61	1918.92
615.96	1908.91
616.31	1899.21
616.65	1889.77
617.00	1879.86
617.35	1870.33
617.70	1860.74
618.04	1850.67
618.39	1840.27
618.74	1830.34
619.08	1820.70
619.43	1811.90
619.78	1803.52
620.12	1794.71
620.47	1784.84
620.82	1774.49
621.16	1764.68
621.51	1754.78
621.85	1744.78
622.20	1734.38
622.55	1723.63
622.89	1713.69
623.24	1704.07
623.59	1694.15
623.93	1683.92
624.28	1674.14
624.62	1663.81
624.97	1653.28
625.32	1643.42
625.66	1634.47
626.01	1625.56
626.35	1616.07
626.70	1605.84
627.04	1595.66
627.39	1585.50
627.73	1576.16
628.08	1567.20
628.43	1557.60
628.77	1548.23
629.12	1539.24
629.46	1531.19
629.81	1522.71
630.15	1512.91
630.50	1502.97
630.84	1492.38
631.19	1482.40
631.53	1472.83
631.88	1462.68
632.22	1452.56
632.57	1443.24
632.91	1432.93
633.26	1422.99
633.60	1413.28
633.95	1403.89
634.29	1394.33
634.64	1384.91
634.98	1374.86
635.32	1365.28
635.67	1356.61
636.01	1347.17
636.36	1337.28
636.70	1327.57
637.05	1318.11
637.39	1309.08
637.73	1300.39
638.08	1292.72
638.42	1284.29
638.77	1275.53
639.11	1267.05
639.45	1259.13
639.80	1250.34
640.14	1241.61
640.49	1232.69
640.83	1223.68
641.17	1215.50
641.52	1207.16
641.86	1198.45
642.20	1190.52
642.55	1181.91
642.89	1172.90
643.23	1164.20
643.58	1156.06
643.92	1146.98
644.26	1138.15
644.61	1129.60
644.95	1120.63
645.29	1111.28
645.64	1102.11
645.98	1093.52
646.32	1085.46
646.66	1076.79
647.01	1068.35
647.35	1060.10
647.69	1051.59
648.04	1043.20
648.38	1034.22
648.72	1025.25
649.06	1016.75
649.41	1008.38
649.75	1000.32
650.09	992.29
650.43	984.06
650.78	975.57
651.12	967.77
651.46	960.27
651.80	952.90
652.14	945.48
652.49	937.92
652.83	930.54
653.17	922.66
653.51	914.99
653.85	907.69
654.20	900.38
654.54	892.74
654.88	885.44
655.22	878.18
655.56	871.07
655.90	864.28
656.25	857.47
656.59	850.47
656.93	843.38
657.27	836.18
657.61	829.10
657.95	822.95
658.29	817.10
658.64	810.92
658.98	804.51
659.32	797.90
659.66	791.46
660.00	784.91
660.34	778.82
660.68	772.65
661.02	766.21
661.36	760.16
661.70	754.37
662.05	748.61
662.39	743.10
662.73	737.64
663.07	732.20
663.41	726.58
663.75	720.80
664.09	715.00
664.43	709.51
664.77	704.20
665.11	698.30
665.45	692.21
665.79	686.27
666.13	680.38
666.47	674.85
666.81	669.39
667.15	663.98
667.49	658.72
667.83	653.40
668.17	648.16
668.51	642.99
668.85	638.02
669.19	633.06
669.53	627.94
669.87	622.76
670.21	617.95
670.55	613.20
670.89	608.79
671.23	604.48
671.57	600.06
671.91	595.70
672.25	591.56
672.58	587.41
672.92	583.33
673.26	579.40
673.60	575.46
673.94	571.63
674.28	567.94
674.62	564.14
674.96	560.36
675.30	556.81
675.64	553.09
675.97	549.36
676.31	545.71
676.65	542.06
676.99	538.62
677.33	534.73
677.67	531.01
678.01	527.02
678.34	523.32
678.68	519.78
679.02	516.16
679.36	512.41
679.70	508.68
680.04	505.10
680.37	501.64
680.71	498.28
681.05	495.04
681.39	491.75
681.73	488.57
682.06	485.49
682.40	482.33
682.74	479.10
683.08	475.90
683.42	472.66
683.75	469.64
684.09	466.55
684.43	463.74
684.77	460.75
685.10	457.98
685.44	455.02
685.78	452.08
686.12	449.29
686.45	446.53
686.79	443.85
687.13	441.33
687.46	438.62
687.80	435.90
688.14	433.08
688.48	430.47
688.81	427.74
689.15	425.11
689.49	422.51
689.82	420.02
690.16	417.42
690.50	414.99
690.83	412.45
691.17	409.94
691.51	407.38
691.84	405.10
692.18	402.82
692.52	400.58
692.85	398.38
693.19	396.18
693.52	393.99
693.86	391.77
694.20	389.56
694.53	387.44
694.87	385.28
695.21	383.11
695.54	380.91
695.88	378.77
696.21	376.61
696.55	374.46
696.88	372.39
697.22	370.43
697.56	368.49
697.89	366.58
698.23	364.77
698.56	363.02
698.90	361.22
699.23	359.25
699.57	357.35
699.90	355.52
700.24	353.70
700.58	351.93
700.91	350.26
701.25	348.66
701.58	347.03
701.92	345.41
702.25	343.83
702.59	342.24
702.92	340.64
703.26	339.00
703.59	337.54
703.93	336.21
704.26	334.77
704.60	333.28
704.93	331.80
705.26	330.34
705.60	328.84
705.93	327.32
706.27	326.03
706.60	324.77
706.94	323.55
707.27	322.18
707.61	320.82
707.94	319.45
708.27	317.90
708.61	316.43
708.94	315.05
709.28	313.75
709.61	312.50
709.94	311.32
710.28	310.10
710.61	308.88
710.95	307.45
711.28	306.33
711.61	305.09
711.95	303.97
712.28	302.72
712.61	301.51
712.95	300.44
713.28	299.36
713.61	298.19
713.95	296.99
714.28	295.92
714.61	294.90
714.95	293.87
715.28	292.90
715.61	291.88
715.95	290.91
716.28	289.93
716.61	288.95
716.95	287.93
717.28	286.99
717.61	285.97
717.94	285.08
718.28	284.00
718.61	283.14
718.94	282.20
719.27	281.38
719.61	280.58
719.94	279.68
720.27	278.70
720.60	277.87
720.94	277.08
721.27	276.34
721.60	275.62
721.93	274.89
722.27	274.23
722.60	273.57
722.93	272.84
723.26	272.16
723.59	271.49
723.93	270.87
724.26	270.25
724.59	269.64
724.92	269.07
725.25	268.59
725.59	267.98
725.92	267.47
726.25	266.91
726.58	266.31
726.91	265.72
727.24	265.21
727.57	264.60
727.91	263.99
728.24	263.43
728.57	262.85
728.90	262.32
729.23	261.67
729.56	261.22
729.89	260.66
730.22	260.09
730.55	259.51
730.89	258.98
731.22	258.42
731.55	257.86
731.88	257.33
732.21	256.75
732.54	256.26
732.87	255.76
733.20	255.25
733.53	254.79
733.86	254.37
734.19	253.89
734.52	253.49
734.85	253.19
735.18	252.69
735.51	252.33
735.84	251.89
736.17	251.52
736.50	250.97
736.83	250.86
737.16	250.45
737.49	250.09
737.82	249.66
738.15	249.31
738.48	248.97
738.81	248.55
739.14	248.13
739.47	247.74
739.80	247.37
740.13	246.99
740.46	246.58
740.79	246.17
741.12	245.82
741.45	245.46
741.78	245.02
742.11	244.76
742.44	244.35
742.77	244.04
743.10	243.67
743.43	243.33
743.75	242.77
744.08	242.72
744.41	242.38
744.74	242.06
745.07	241.71
745.40	241.41
745.73	241.15
746.06	240.87
746.39	240.58
746.71	240.22
747.04	239.89
747.37	239.57
747.70	239.28
748.03	238.96
748.36	238.68
748.68	238.36
749.01	238.02
749.34	237.72
749.67	237.41
750.00	237.16
750.33	237.03
750.65	236.73
750.98	236.21
751.31	235.92
751.64	235.69
751.97	235.57
752.29	235.30
752.62	234.98
752.95	234.66
753.28	234.38
753.60	234.12
753.93	233.95
754.26	233.72
754.59	233.45
754.91	233.18
755.24	232.91
755.57	232.71
755.90	232.47
756.22	232.22
756.55	231.96
756.88	231.70
757.20	231.33
757.53	231.09
757.86	230.88
758.19	230.67
758.51	230.45
758.84	230.11
759.17	229.88
759.49	229.73
759.82	229.66
760.15	229.48
760.47	229.31
760.80	229.06
761.13	228.91
761.45	228.72
761.78	228.57
762.11	228.38
762.43	228.15
762.76	227.96
763.08	227.86
763.41	227.75
763.74	227.61
764.06	227.46
764.39	227.31
764.71	227.15
765.04	226.97
765.37	226.78
765.69	226.64
766.02	226.51
766.34	226.33
766.67	226.11
767.00	226.02
767.32	225.99
767.65	225.92
767.97	225.76
768.30	225.63
768.62	225.55
768.95	225.38
769.27	225.27
769.60	225.17
769.92	224.97
770.25	224.84
770.57	224.66
770.90	224.55
771.22	224.40
771.55	224.30
771.87	224.19
772.20	224.09
772.52	224.18
772.85	224.31
773.17	224.19
773.50	224.09
773.82	223.95
774.15	223.79
774.47	223.62
774.80	223.52
775.12	223.45
775.45	223.31
775.77	223.27
776.09	223.18
776.42	223.09
776.74	223.06
777.07	222.91
777.39	222.82
777.72	222.71
778.04	222.67
778.36	222.56
778.69	222.48
779.01	222.38
779.33	222.10
779.66	221.79
779.98	221.70
780.31	221.61
780.63	221.60
780.95	221.55
781.28	221.47
781.60	221.37
781.92	221.29
782.25	221.24
782.57	221.19
782.89	221.14
783.22	221.05
783.54	220.96
783.86	220.95
784.19	220.89
784.51	220.88
784.83	220.79
785.16	220.72
785.48	220.66
785.80	220.61
786.12	220.56
786.45	220.51
786.77	220.47
787.09	220.39
787.42	220.27
787.74	220.21
788.06	220.16
788.38	220.10
788.71	220.02
789.03	219.92
789.35	219.86
789.67	219.78
789.99	219.75
790.32	219.66
790.64	219.62
790.96	219.80
791.28	219.67
791.61	219.62
791.93	219.61
792.25	219.57
792.57	219.69
792.89	219.60
793.21	219.56
793.54	219.48
793.86	219.43
794.18	219.40
794.50	219.29
794.82	219.28
795.14	219.27
795.47	219.27
795.79	219.25
796.11	219.17
796.43	219.11
796.75	219.06
797.07	219.05
797.39	218.98
797.71	218.78
798.04	218.81
798.36	218.77
798.68	218.69
799.00	218.66
799.32	218.51
799.64	218.54
799.96	218.51
800.28	218.54
800.60	218.52
800.92	218.50
801.24	218.47
801.56	218.43
801.89	218.38
802.21	218.36
802.53	218.28
802.85	218.30
803.17	218.39
803.49	218.30
803.81	218.27
804.13	218.23
804.45	218.16
804.77	218.10
805.09	218.04
805.41	218.01
805.73	217.97
806.05	217.94
806.37	217.88
806.69	217.81
807.01	217.78
807.33	217.78
807.65	217.67
807.97	217.76
808.28	217.72
808.60	217.68
808.92	217.63
809.24	217.74
809.56	217.70
809.88	217.62
810.20	217.63
810.52	217.60
810.84	217.56
811.16	217.50
811.48	217.47
811.80	217.56
812.12	217.56
812.43	217.57
812.75	217.53
813.07	217.50
813.39	217.49
813.71	217.42
814.03	217.35
814.35	217.33
814.67	217.22
814.98	217.14
815.30	217.14
815.62	217.07
815.94	216.93
816.26	216.90
816.58	216.83
816.89	216.86
817.21	216.82
817.53	216.81
817.85	216.85
818.17	216.82
818.48	216.72
818.80	216.72
819.12	216.66
819.44	216.60
819.76	216.56
820.07	216.55
820.39	216.52
820.71	216.53
821.03	216.54
821.34	216.46
821.66	216.49
821.98	216.48
822.30	216.47
822.61	216.60
822.93	216.61
823.25	216.59
823.57	216.52
823.88	216.54
824.20	216.52
824.52	216.52
824.83	216.50
825.15	216.44
825.47	216.41
825.79	216.40
826.10	216.37
826.42	216.34
826.74	216.35
827.05	216.34
827.37	216.34
827.69	216.29
828.00	216.32
828.32	216.30
828.64	216.26
828.95	216.36
829.27	216.24
829.58	216.16
829.90	216.17
830.22	216.19
830.53	216.12
830.85	216.10
831.17	216.00
831.48	215.98
831.80	215.99
832.11	215.95
832.43	215.94
832.75	215.95
833.06	216.07
833.38	215.97
833.69	215.96
834.01	215.94
834.32	215.95
834.64	215.94
834.96	215.93
835.27	215.93
835.59	215.85
835.90	215.78
836.22	215.79
836.53	215.76
836.85	215.73
837.16	215.95
837.48	215.97
837.79	216.06
838.11	216.09
838.42	216.08
838.74	216.12
839.05	216.07
839.37	216.01
839.68	215.88
840.00	215.88
840.31	215.89
840.63	215.85
840.94	215.84
841.26	215.79
841.57	215.78
841.88	215.78
842.20	215.74
842.51	215.76
842.83	215.76
843.14	215.92
843.46	215.89
843.77	215.77
844.08	215.73
844.40	215.64
844.71	215.61
845.03	215.58
845.34	215.55
845.65	215.56
845.97	215.61
846.28	215.60
846.60	215.59
846.91	215.56
847.22	215.59
847.54	215.62
847.85	215.66
848.16	215.63
848.48	215.61
848.79	215.70
849.10	215.70
849.42	215.71
849.73	215.51
850.04	215.51
850.36	215.41
850.67	215.47
850.98	215.48
851.30	215.47
851.61	215.48
851.92	215.48
852.23	215.53
852.55	215.54
852.86	215.55
853.17	215.58
853.49	215.62
853.80	215.61
854.11	215.59
854.42	215.61
854.74	215.60
855.05	215.62
855.36	215.48
855.67	215.48
855.99	215.48
856.30	215.74
856.61	215.71
856.92	215.69
857.23	215.66
857.55	215.64
857.86	215.62
858.17	215.63
858.48	215.57
858.79	215.50
859.11	215.50
859.42	215.47
859.73	215.46
860.04	215.43
860.35	215.37
860.66	215.31
860.98	215.30
861.29	215.32
861.60	215.27
861.91	215.36
862.22	215.33
862.53	215.29
862.84	215.06
863.16	215.12
863.47	215.12
863.78	215.09
864.09	215.11
864.40	215.14
864.71	215.15
865.02	215.20
865.33	215.16
865.64	215.13
865.95	215.14
866.27	215.25
866.58	215.25
866.89	215.31
867.20	215.33
867.51	215.28
867.82	215.26
868.13	215.35
868.44	215.30
868.75	215.30
869.06	215.31
869.37	215.31
869.68	215.25
869.99	215.28
870.30	215.29
870.61	215.31
870.92	215.26
871.23	215.21
871.54	215.23
871.85	215.32
872.16	215.35
872.47	215.31
872.78	215.18
873.09	215.18
873.40	215.15
873.71	215.15
874.02	215.17
874.33	215.15
874.64	215.05
874.95	215.08
875.26	215.06
875.56	215.05
875.87	215.05
876.18	215.06
876.49	215.25
876.80	215.21
877.11	215.16
877.42	215.18
877.73	215.22
878.04	215.19
878.35	215.16
878.66	215.13
878.96	215.16
879.27	215.15
879.58	215.14
879.89	215.13
880.20	215.19
880.51	215.19
880.82	215.21
881.12	215.26
881.43	215.22
881.74	215.21
882.05	215.23
882.36	215.21
882.67	215.22
882.97	214.99
883.28	215.00
883.59	214.99
883.90	215.00
884.21	215.03
884.51	215.02
884.82	214.98
885.13	214.97
885.44	214.97
885.74	215.01
886.05	215.01
886.36	215.02
886.67	214.95
886.98	215.04
887.28	215.03
887.59	214.98
887.90	214.97
888.20	214.96
888.51	214.99
888.82	214.98
889.13	214.98
889.43	215.14
889.74	215.13
890.05	215.14
890.35	215.10
890.66	215.09
890.97	215.04
891.28	215.02
891.58	215.02
891.89	215.00
892.20	214.94
892.50	214.91
892.81	214.89
893.12	214.86
893.42	214.77
893.73	214.77
894.04	214.81
894.34	214.84
894.65	214.85
894.95	214.82
895.26	214.82
895.57	214.90
895.87	214.70
896.18	214.74
896.48	214.73
896.79	214.74
897.10	214.73
897.40	214.78
897.71	214.81
898.01	214.80
898.32	214.81
898.63	214.82
898.93	214.80
899.24	214.80
899.54	214.81
899.85	214.79
900.15	214.80
900.46	214.79
900.76	214.83
901.07	214.80
901.38	214.80
901.68	214.80
901.99	214.70
902.29	214.74
902.60	214.74
902.90	214.73
903.21	214.72
903.51	214.72
903.82	214.77
904.12	214.80
904.43	214.82
904.73	214.84
905.03	214.88
905.34	215.09
905.64	215.09
905.95	215.08
906.25	215.09
906.56	215.09
906.86	215.08
907.17	215.04
907.47	215.04
907.77	215.03
908.08	215.01
908.38	215.04
908.69	215.04
908.99	215.07
909.30	215.10
909.60	215.12
909.90	215.10
910.21	215.02
910.51	214.97
910.81	214.98
911.12	214.96
911.42	214.92
911.73	214.72
912.03	214.75
912.33	214.76
912.64	214.76
912.94	214.72
913.24	214.72
913.55	214.68
913.85	214.69
914.15	214.74
914.46	214.75
914.76	214.72
915.06	214.71
915.37	214.66
915.67	214.65
915.97	214.63
916.27	214.58
916.58	214.62
916.88	214.60
917.18	214.58
917.49	214.73
917.79	214.74
918.09	214.74
918.39	214.79
918.70	214.80
919.00	214.78
919.30	214.89
919.60	214.87
919.91	214.87
920.21	214.86
920.51	214.81
920.81	214.79
921.12	214.83
921.42	214.83
921.72	214.82
922.02	214.82
922.32	214.85
922.63	214.87
922.93	214.93
923.23	214.95
923.53	214.96
923.83	214.82
924.13	214.84
924.44	214.87
924.74	214.88
925.04	214.94
925.34	214.96
925.64	214.84
925.94	214.82
926.24	214.92
926.55	214.90
926.85	214.94
927.15	214.95
927.45	214.95
927.75	214.95
928.05	214.98
928.35	214.93
928.65	214.97
928.95	214.99
929.26	214.94
929.56	214.95
929.86	214.96
930.16	214.93
930.46	214.92
930.76	214.92
931.06	214.84
931.36	214.78
931.66	214.80
931.96	214.84
932.26	214.87
932.56	214.79
932.86	214.80
933.16	214.80
933.46	214.76
933.76	214.72
934.06	214.76
934.36	214.83
934.66	214.85
934.96	214.80
935.26	214.80
935.56	214.84
935.86	214.80
936.16	214.76
936.46	214.74
936.76	214.72
937.06	214.70
937.36	214.69
937.66	214.69
937.96	214.69
938.26	214.64
938.56	214.63
938.86	214.63
939.16	214.69
939.46	214.69
939.76	214.71
940.06	214.71
940.35	214.63
940.65	214.52
940.95	214.53
941.25	214.49
941.55	214.45
941.85	214.43
942.15	214.50
942.45	214.56
942.75	214.55
943.04	214.58
943.34	214.61
943.64	214.61
943.94	214.61
944.24	214.62
944.54	214.61
944.84	214.58
945.13	214.59
945.43	214.56
945.73	214.58
946.03	214.58
946.33	214.58
946.62	214.61
946.92	214.65
947.22	214.66
947.52	214.66
947.82	214.70
948.11	214.68
948.41	214.62
948.71	214.57
949.01	214.62
949.31	214.62
949.60	214.61
949.90	214.63
950.20	214.60
950.50	214.59
950.79	214.62
951.09	214.66
951.39	214.63
951.69	214.59
951.98	214.59
952.28	214.61
952.58	214.60
952.87	214.61
953.17	214.59
953.47	214.58
953.76	214.59
954.06	214.59
954.36	214.54
954.66	214.56
954.95	214.59
955.25	214.59
955.55	214.63
955.84	214.58
956.14	214.63
956.44	214.67
956.73	214.63
957.03	214.63
957.32	214.65
957.62	214.64
957.92	214.70
958.21	214.69
958.51	214.93
958.81	214.96
959.10	214.97
959.40	215.06
959.69	215.06
959.99	215.10
960.29	215.07
960.58	215.08
960.88	215.16
961.17	215.14
961.47	215.15
961.76	215.09
962.06	215.13
962.36	215.07
962.65	215.06
962.95	215.10
963.24	215.10
963.54	215.09
963.83	215.11
964.13	215.08
964.42	215.02
964.72	214.84
965.01	214.83
965.31	214.79
965.60	214.73
965.90	214.90
966.19	214.83
966.49	214.85
966.78	214.86
967.08	214.80
967.37	214.80
967.67	214.74
967.96	214.77
968.26	214.74
968.55	214.77
968.85	214.77
969.14	214.75
969.43	214.71
969.73	214.70
970.02	214.70
970.32	214.67
970.61	214.69
970.91	214.63
971.20	214.60
971.49	214.61
971.79	214.63
972.08	214.45
972.38	214.49
972.67	214.50
972.96	214.50
973.26	214.48
973.55	214.57
973.85	214.60
974.14	214.60
974.43	214.61
974.73	214.57
975.02	214.53
975.31	214.52
975.61	214.54
975.90	214.54
976.19	214.51
976.49	214.56
976.78	214.56
977.07	214.57
977.37	214.56
977.66	214.57
977.95	214.51
978.24	214.50
978.54	214.52
978.83	214.47
979.12	214.48
979.42	214.48
979.71	214.40
980.00	214.37
980.29	214.39
980.59	214.38
980.88	214.44
981.17	214.44
981.46	214.44
981.76	214.41
982.05	214.44
982.34	214.46
982.63	214.45
982.93	214.46
983.22	214.48
983.51	214.48
983.80	214.51
984.09	214.55
984.39	214.55
984.68	214.53
984.97	214.54
985.26	214.52
985.55	214.55
985.85	214.55
986.14	214.56
986.43	214.54
986.72	214.55
987.01	214.48
987.30	214.48
987.59	214.45
987.89	214.49
988.18	214.42
988.47	214.41
988.76	214.42
989.05	214.42
989.34	214.39
989.63	214.45
989.92	214.41
990.22	214.34
990.51	214.35
990.80	214.33
991.09	214.36
991.38	214.35
991.67	214.31
991.96	214.26
992.25	214.32
992.54	214.30
992.83	214.29
993.12	214.28
993.41	214.30
993.70	214.40
993.99	214.43
994.28	214.48
994.58	214.52
994.87	214.49
995.16	214.47
995.45	214.47
995.74	214.41
996.03	214.45
996.32	214.54
996.61	214.58
996.90	214.57
997.19	214.55
997.48	214.57
997.77	214.57
998.06	214.59
998.34	214.55
998.63	214.53
998.92	214.54
999.21	214.58
999.50	214.59
999.79	214.53
1000.08	214.53
1000.37	214.50
1000.66	214.46
1000.95	214.49
1001.24	214.49
1001.53	214.52
1001.82	214.48
1002.11	214.41
1002.40	214.40
1002.68	214.44
1002.97	214.59
1003.26	214.57
1003.55	214.57
1003.84	214.57
1004.13	214.64
1004.42	214.63
1004.71	214.62
1004.99	214.58
1005.28	214.62
1005.57	214.61
1005.86	214.59
1006.15	214.54
1006.44	214.55
1006.72	214.58
1007.01	214.57
1007.30	214.56
1007.59	214.53
1007.88	214.58
1008.17	214.60
1008.45	214.58
1008.74	214.50
1009.03	214.42
1009.32	214.43
1009.60	214.43
1009.89	214.42
1010.18	214.35
1010.47	214.35
1010.76	214.37
1011.04	214.40
1011.33	214.39
1011.62	214.41
1011.91	214.43
1012.19	214.43
1012.48	214.43
1012.77	214.42
1013.05	214.53
1013.34	214.53
1013.63	214.52
1013.92	214.53
1014.20	214.55
1014.49	214.52
1014.78	214.54
1015.06	214.46
1015.35	214.43
1015.64	214.43
1015.92	214.48
1016.21	214.49
1016.50	214.48
1016.78	214.52
1017.07	214.53
1017.36	214.49
1017.64	214.46
1017.93	214.51
1018.22	214.49
1018.50	214.49
1018.79	214.49
1019.08	214.38
1019.36	214.42
1019.65	214.40
1019.93	214.46
1020.22	214.46
1020.51	214.58
1020.79	214.58
1021.08	213.69
1021.36	214.08
1021.65	214.80
1021.94	214.33
1022.22	214.85
1022.51	213.85
1022.79	215.70
1023.08	214.50
1023.36	216.92
1023.65	214.55
>>>>>End Processed Spectral Data<<<<<
