SpectraSuite Data File
++++++++++++++++++++++++++++++++++++
Date: Tue Jan 29 16:49:13 EST 2013
User: group
Dark Spectrum Present: No
Reference Spectrum Present: No
Number of Sampled Component Spectra: 1
Spectrometers: USB2E7196
Integration Time (usec): 65000 (USB2E7196)
Spectra Averaged: 100 (USB2E7196)
Boxcar Smoothing: 10 (USB2E7196)
Correct for Electrical Dark: No (USB2E7196)
Strobe/Lamp Enabled: No (USB2E7196)
Correct for Detector Non-linearity: No (USB2E7196)
Correct for Stray Light: No (USB2E7196)
Number of Pixels in Processed Spectrum: 2048
>>>>>Begin Processed Spectral Data<<<<<
339.09	0.00
339.48	201.61
339.86	203.34
340.24	204.67
340.63	206.11
341.01	210.68
341.39	208.56
341.78	210.13
342.16	212.07
342.54	211.57
342.93	201.01
343.31	211.18
343.69	211.75
344.07	212.22
344.46	212.68
344.84	213.08
345.22	213.24
345.60	213.49
345.99	213.70
346.37	213.81
346.75	213.93
347.13	214.03
347.52	214.10
347.90	214.28
348.28	214.32
348.66	214.40
349.05	214.39
349.43	214.45
349.81	214.54
350.19	214.58
350.57	214.61
350.96	214.70
351.34	214.77
351.72	214.87
352.10	214.95
352.48	214.99
352.87	215.04
353.25	215.09
353.63	215.14
354.01	215.22
354.39	215.25
354.77	215.32
355.15	215.45
355.54	215.46
355.92	215.39
356.30	215.43
356.68	215.64
357.06	215.72
357.44	215.75
357.82	215.77
358.20	215.83
358.58	215.85
358.97	215.92
359.35	215.99
359.73	216.05
360.11	216.11
360.49	216.15
360.87	216.17
361.25	216.22
361.63	216.33
362.01	216.35
362.39	216.39
362.77	216.42
363.15	216.38
363.53	216.37
363.91	216.40
364.29	216.45
364.67	216.23
365.05	216.27
365.43	216.30
365.81	216.35
366.19	216.46
366.57	216.58
366.95	216.55
367.33	216.52
367.71	216.50
368.09	216.54
368.47	216.52
368.85	216.52
369.23	216.59
369.61	216.51
369.99	216.56
370.37	216.59
370.75	216.66
371.13	216.65
371.51	216.63
371.89	216.64
372.27	216.64
372.65	216.66
373.03	216.64
373.41	216.60
373.78	216.50
374.16	216.35
374.54	216.24
374.92	216.19
375.30	216.17
375.68	216.12
376.06	216.08
376.44	216.06
376.82	216.03
377.19	215.96
377.57	215.93
377.95	215.82
378.33	215.76
378.71	215.58
379.09	215.55
379.47	215.58
379.84	215.51
380.22	215.44
380.60	215.40
380.98	215.32
381.36	215.25
381.73	215.24
382.11	215.24
382.49	215.22
382.87	215.15
383.25	215.09
383.62	215.27
384.00	215.19
384.38	215.16
384.76	215.16
385.13	215.20
385.51	215.16
385.89	215.13
386.27	215.11
386.64	215.12
387.02	215.09
387.40	215.00
387.78	215.01
388.15	214.99
388.53	214.95
388.91	214.92
389.29	214.89
389.66	214.87
390.04	214.86
390.42	214.89
390.79	214.92
391.17	214.90
391.55	214.68
391.92	214.67
392.30	214.69
392.68	214.64
393.05	214.64
393.43	214.63
393.81	214.65
394.18	214.63
394.56	214.64
394.94	214.69
395.31	214.71
395.69	214.79
396.06	214.83
396.44	214.87
396.82	214.91
397.19	215.07
397.57	215.08
397.95	215.12
398.32	215.07
398.70	215.16
399.07	215.25
399.45	215.30
399.82	215.37
400.20	215.38
400.58	215.46
400.95	215.42
401.33	215.54
401.70	215.75
402.08	215.85
402.45	215.95
402.83	216.08
403.20	216.19
403.58	216.27
403.95	216.43
404.33	216.56
404.71	216.72
405.08	216.94
405.46	217.17
405.83	217.37
406.21	217.58
406.58	217.81
406.96	218.06
407.33	218.32
407.70	218.62
408.08	219.12
408.45	219.50
408.83	219.90
409.20	220.23
409.58	220.51
409.95	220.97
410.33	221.44
410.70	221.87
411.08	222.40
411.45	222.96
411.82	223.55
412.20	224.22
412.57	225.06
412.95	225.63
413.32	226.43
413.69	227.28
414.07	228.19
414.44	229.16
414.82	230.14
415.19	231.35
415.56	232.55
415.94	233.73
416.31	235.12
416.68	236.50
417.06	238.10
417.43	239.65
417.81	241.42
418.18	243.22
418.55	245.17
418.93	247.23
419.30	249.35
419.67	251.58
420.04	253.93
420.42	256.33
420.79	259.19
421.16	261.99
421.54	264.89
421.91	267.90
422.28	270.99
422.66	274.35
423.03	277.62
423.40	281.01
423.77	284.62
424.15	288.31
424.52	292.23
424.89	296.47
425.26	300.58
425.64	304.52
426.01	308.86
426.38	313.43
426.75	318.00
427.13	322.76
427.50	327.77
427.87	332.96
428.24	338.23
428.61	343.21
428.99	348.76
429.36	354.85
429.73	360.74
430.10	366.67
430.47	372.79
430.85	379.10
431.22	385.82
431.59	393.01
431.96	399.86
432.33	407.41
432.70	414.73
433.08	423.30
433.45	431.38
433.82	439.38
434.19	448.27
434.56	457.03
434.93	465.41
435.30	473.72
435.68	482.92
436.05	491.95
436.42	500.92
436.79	509.09
437.16	517.96
437.53	527.34
437.90	536.49
438.27	545.47
438.64	554.71
439.01	563.36
439.38	570.94
439.75	578.34
440.13	586.77
440.50	594.73
440.87	601.20
441.24	607.88
441.61	615.27
441.98	620.67
442.35	627.13
442.72	633.46
443.09	639.56
443.46	643.36
443.83	645.91
444.20	648.08
444.57	651.35
444.94	652.73
445.31	654.24
445.68	655.79
446.05	656.46
446.42	655.79
446.79	654.81
447.16	653.82
447.53	653.09
447.90	649.85
448.27	646.62
448.64	641.99
449.01	638.69
449.37	632.84
449.74	627.18
450.11	620.22
450.48	612.88
450.85	605.42
451.22	598.92
451.59	592.73
451.96	586.97
452.33	579.02
452.70	571.93
453.07	563.37
453.43	554.70
453.80	546.36
454.17	538.29
454.54	530.68
454.91	522.42
455.28	514.35
455.65	506.82
456.02	499.21
456.38	492.79
456.75	484.82
457.12	478.17
457.49	471.59
457.86	465.31
458.23	459.83
458.59	453.83
458.96	447.77
459.33	442.43
459.70	436.97
460.07	432.67
460.43	427.76
460.80	423.16
461.17	419.13
461.54	414.91
461.91	410.90
462.27	406.78
462.64	403.31
463.01	399.50
463.38	395.79
463.74	392.11
464.11	388.87
464.48	386.00
464.85	382.87
465.21	380.45
465.58	377.74
465.95	374.60
466.32	371.97
466.68	369.35
467.05	366.76
467.42	364.20
467.78	361.49
468.15	358.88
468.52	356.90
468.88	354.35
469.25	352.09
469.62	350.21
469.98	348.19
470.35	346.36
470.72	344.63
471.08	342.78
471.45	341.19
471.82	339.64
472.18	337.95
472.55	336.70
472.92	335.27
473.28	334.07
473.65	332.90
474.02	331.81
474.38	330.86
474.75	330.08
475.11	329.25
475.48	328.62
475.85	328.13
476.21	327.65
476.58	327.24
476.94	326.98
477.31	326.67
477.67	326.42
478.04	326.26
478.41	326.22
478.77	326.38
479.14	326.35
479.50	326.47
479.87	326.81
480.23	327.15
480.60	327.33
480.96	327.60
481.33	328.17
481.69	328.68
482.06	329.19
482.42	329.63
482.79	330.24
483.15	331.06
483.52	332.03
483.88	332.89
484.25	333.88
484.61	334.90
484.98	335.96
485.34	337.28
485.71	338.61
486.07	340.01
486.44	341.30
486.80	342.94
487.17	344.60
487.53	346.40
487.90	348.30
488.26	350.36
488.62	352.53
488.99	354.63
489.35	356.80
489.72	359.21
490.08	361.74
490.44	364.29
490.81	367.01
491.17	369.72
491.54	372.69
491.90	375.70
492.26	378.94
492.63	382.31
492.99	385.72
493.36	389.40
493.72	393.30
494.08	397.36
494.45	401.55
494.81	405.93
495.17	410.40
495.54	415.07
495.90	419.90
496.26	424.85
496.63	430.05
496.99	435.46
497.35	440.99
497.72	446.86
498.08	452.77
498.44	458.85
498.80	465.23
499.17	471.72
499.53	478.47
499.89	485.40
500.26	492.43
500.62	499.63
500.98	506.99
501.34	514.45
501.71	522.14
502.07	529.95
502.43	537.96
502.79	546.01
503.16	554.40
503.52	562.98
503.88	571.68
504.24	580.56
504.60	589.58
504.97	598.85
505.33	608.09
505.69	617.94
506.05	627.75
506.41	637.62
506.78	647.66
507.14	657.89
507.50	668.25
507.86	678.91
508.22	689.66
508.59	700.28
508.95	711.38
509.31	722.56
509.67	734.05
510.03	745.35
510.39	757.10
510.75	768.86
511.12	780.76
511.48	792.74
511.84	805.00
512.20	817.37
512.56	830.00
512.92	842.78
513.28	855.38
513.64	868.25
514.00	881.04
514.37	894.08
514.73	907.12
515.09	920.14
515.45	933.01
515.81	946.01
516.17	959.51
516.53	972.79
516.89	986.04
517.25	999.15
517.61	1012.84
517.97	1026.23
518.33	1039.51
518.69	1053.07
519.05	1066.93
519.41	1080.65
519.77	1094.54
520.13	1107.70
520.49	1120.83
520.85	1134.24
521.21	1147.60
521.57	1161.40
521.93	1174.51
522.29	1188.26
522.65	1201.97
523.01	1215.69
523.37	1229.00
523.73	1242.23
524.09	1255.42
524.45	1268.80
524.81	1282.35
525.17	1295.75
525.53	1309.15
525.89	1322.40
526.25	1335.51
526.61	1348.37
526.97	1361.53
527.33	1374.51
527.68	1388.09
528.04	1401.75
528.40	1414.97
528.76	1428.32
529.12	1441.21
529.48	1454.51
529.84	1466.89
530.20	1479.69
530.56	1492.31
530.91	1505.53
531.27	1518.43
531.63	1531.15
531.99	1543.98
532.35	1556.32
532.71	1568.66
533.07	1581.53
533.42	1593.94
533.78	1606.29
534.14	1618.38
534.50	1629.75
534.86	1641.41
535.21	1652.43
535.57	1664.02
535.93	1675.33
536.29	1686.55
536.65	1698.14
537.00	1709.28
537.36	1720.82
537.72	1731.81
538.08	1743.31
538.44	1754.44
538.79	1765.66
539.15	1776.73
539.51	1787.69
539.87	1799.06
540.22	1809.97
540.58	1821.03
540.94	1832.01
541.29	1842.35
541.65	1852.30
542.01	1862.80
542.37	1873.08
542.72	1883.38
543.08	1893.09
543.44	1903.65
543.79	1913.00
544.15	1922.55
544.51	1932.50
544.87	1942.41
545.22	1951.78
545.58	1960.71
545.94	1969.53
546.29	1978.20
546.65	1986.70
547.01	1994.98
547.36	2002.74
547.72	2010.58
548.07	2018.17
548.43	2025.87
548.79	2033.87
549.14	2041.97
549.50	2050.51
549.86	2058.40
550.21	2065.74
550.57	2073.63
550.92	2080.55
551.28	2088.02
551.64	2095.27
551.99	2102.89
552.35	2110.13
552.70	2116.99
553.06	2123.60
553.41	2129.98
553.77	2136.51
554.13	2142.74
554.48	2149.79
554.84	2156.89
555.19	2163.39
555.55	2169.85
555.90	2176.21
556.26	2182.91
556.61	2189.08
556.97	2193.96
557.32	2199.63
557.68	2206.12
558.03	2211.80
558.39	2217.15
558.74	2223.26
559.10	2228.89
559.45	2234.38
559.81	2239.80
560.16	2245.28
560.52	2251.15
560.87	2257.59
561.23	2263.36
561.58	2270.11
561.94	2275.34
562.29	2279.93
562.64	2285.82
563.00	2291.32
563.35	2296.81
563.71	2302.47
564.06	2308.07
564.42	2314.01
564.77	2319.04
565.12	2324.30
565.48	2329.35
565.83	2334.81
566.19	2339.88
566.54	2344.98
566.89	2349.48
567.25	2354.03
567.60	2359.77
567.96	2364.89
568.31	2369.19
568.66	2373.37
569.02	2377.14
569.37	2380.69
569.72	2385.06
570.08	2388.54
570.43	2391.64
570.78	2394.56
571.14	2396.93
571.49	2399.97
571.84	2403.21
572.20	2406.07
572.55	2408.80
572.90	2410.94
573.26	2413.53
573.61	2416.18
573.96	2418.26
574.31	2420.10
574.67	2421.87
575.02	2422.45
575.37	2423.66
575.72	2424.27
576.08	2425.64
576.43	2425.70
576.78	2425.94
577.13	2427.36
577.49	2428.47
577.84	2429.32
578.19	2430.47
578.54	2430.87
578.90	2431.42
579.25	2431.27
579.60	2431.03
579.95	2430.01
580.30	2429.91
580.66	2429.07
581.01	2427.19
581.36	2424.49
581.71	2422.85
582.06	2421.53
582.42	2420.37
582.77	2417.86
583.12	2416.06
583.47	2414.58
583.82	2413.73
584.17	2412.35
584.53	2409.99
584.88	2407.77
585.23	2405.68
585.58	2403.24
585.93	2401.12
586.28	2398.61
586.63	2395.88
586.98	2393.61
587.34	2391.50
587.69	2388.85
588.04	2386.49
588.39	2384.88
588.74	2382.47
589.09	2379.61
589.44	2376.28
589.79	2373.66
590.14	2371.80
590.49	2368.88
590.84	2364.72
591.19	2361.38
591.54	2358.09
591.89	2353.93
592.25	2350.40
592.60	2346.28
592.95	2342.16
593.30	2337.84
593.65	2333.37
594.00	2328.81
594.35	2325.48
594.70	2320.77
595.05	2316.31
595.40	2310.84
595.75	2304.93
596.10	2301.06
596.45	2296.22
596.80	2291.39
597.15	2286.32
597.50	2280.30
597.85	2275.27
598.19	2270.16
598.54	2264.24
598.89	2258.91
599.24	2254.32
599.59	2248.14
599.94	2241.95
600.29	2235.89
600.64	2229.89
600.99	2223.02
601.34	2217.68
601.69	2210.66
602.04	2204.25
602.39	2197.45
602.74	2191.21
603.08	2185.59
603.43	2179.13
603.78	2172.21
604.13	2165.22
604.48	2157.74
604.83	2151.51
605.18	2145.30
605.53	2138.34
605.87	2131.34
606.22	2124.59
606.57	2116.68
606.92	2108.86
607.27	2102.10
607.62	2095.49
607.96	2088.55
608.31	2082.21
608.66	2074.26
609.01	2066.74
609.36	2059.74
609.70	2052.15
610.05	2044.35
610.40	2036.11
610.75	2027.69
611.10	2020.02
611.44	2011.13
611.79	2002.47
612.14	1992.44
612.49	1981.72
612.83	1972.33
613.18	1963.11
613.53	1953.67
613.88	1944.18
614.22	1935.55
614.57	1925.62
614.92	1915.09
615.27	1904.74
615.61	1894.54
615.96	1884.88
616.31	1875.35
616.65	1865.78
617.00	1856.06
617.35	1846.54
617.70	1836.79
618.04	1826.90
618.39	1816.88
618.74	1807.35
619.08	1797.73
619.43	1789.15
619.78	1781.01
620.12	1772.53
620.47	1763.05
620.82	1752.83
621.16	1743.03
621.51	1733.20
621.85	1723.55
622.20	1713.24
622.55	1702.92
622.89	1693.06
623.24	1683.50
623.59	1673.68
623.93	1663.71
624.28	1653.99
624.62	1644.16
624.97	1634.05
625.32	1624.27
625.66	1615.32
626.01	1606.55
626.35	1597.36
626.70	1587.40
627.04	1577.35
627.39	1567.23
627.73	1557.96
628.08	1549.01
628.43	1539.61
628.77	1530.43
629.12	1521.51
629.46	1513.76
629.81	1505.49
630.15	1496.17
630.50	1486.43
630.84	1476.03
631.19	1466.24
631.53	1457.07
631.88	1446.86
632.22	1436.92
632.57	1427.68
632.91	1417.66
633.26	1407.84
633.60	1398.33
633.95	1389.16
634.29	1379.70
634.64	1370.56
634.98	1360.72
635.32	1351.58
635.67	1343.23
636.01	1333.96
636.36	1324.37
636.70	1314.94
637.05	1305.59
637.39	1296.75
637.73	1288.18
638.08	1280.71
638.42	1272.65
638.77	1263.92
639.11	1255.80
639.45	1248.12
639.80	1239.71
640.14	1231.09
640.49	1222.44
640.83	1213.69
641.17	1205.61
641.52	1197.79
641.86	1189.25
642.20	1181.51
642.55	1172.99
642.89	1164.11
643.23	1155.60
643.58	1147.63
643.92	1138.72
644.26	1130.16
644.61	1121.74
644.95	1113.09
645.29	1103.97
645.64	1094.81
645.98	1086.29
646.32	1078.36
646.66	1069.83
647.01	1061.64
647.35	1053.61
647.69	1045.35
648.04	1037.16
648.38	1028.28
648.72	1019.53
649.06	1011.18
649.41	1003.04
649.75	995.17
650.09	987.40
650.43	979.45
650.78	971.08
651.12	963.39
651.46	956.03
651.80	948.89
652.14	941.68
652.49	934.20
652.83	926.98
653.17	919.32
653.51	911.74
653.85	904.57
654.20	897.29
654.54	889.93
654.88	882.71
655.22	875.44
655.56	868.59
655.90	861.71
656.25	855.00
656.59	848.12
656.93	841.15
657.27	833.99
657.61	826.99
657.95	820.97
658.29	815.06
658.64	808.91
658.98	802.43
659.32	795.87
659.66	789.64
660.00	783.33
660.34	777.31
660.68	771.21
661.02	764.90
661.36	758.94
661.70	753.09
662.05	747.45
662.39	742.02
662.73	736.54
663.07	731.21
663.41	725.61
663.75	719.87
664.09	714.17
664.43	708.74
664.77	703.45
665.11	697.61
665.45	691.67
665.79	685.90
666.13	680.22
666.47	674.71
666.81	669.26
667.15	663.83
667.49	658.59
667.83	653.36
668.17	648.06
668.51	642.93
668.85	637.97
669.19	633.04
669.53	628.01
669.87	622.94
670.21	618.13
670.55	613.42
670.89	609.01
671.23	604.72
671.57	600.26
671.91	596.00
672.25	591.85
672.58	587.76
672.92	583.68
673.26	579.73
673.60	575.87
673.94	572.09
674.28	568.45
674.62	564.79
674.96	560.99
675.30	557.49
675.64	553.82
675.97	550.19
676.31	546.59
676.65	542.99
676.99	539.56
677.33	535.72
677.67	532.08
678.01	528.21
678.34	524.53
678.68	521.06
679.02	517.37
679.36	513.63
679.70	509.89
680.04	506.27
680.37	502.79
680.71	499.40
681.05	496.17
681.39	492.92
681.73	489.70
682.06	486.67
682.40	483.58
682.74	480.41
683.08	477.18
683.42	473.96
683.75	470.92
684.09	467.79
684.43	464.98
684.77	462.04
685.10	459.20
685.44	456.25
685.78	453.29
686.12	450.49
686.45	447.76
686.79	445.14
687.13	442.60
687.46	439.98
687.80	437.29
688.14	434.39
688.48	431.69
688.81	428.98
689.15	426.36
689.49	423.71
689.82	421.11
690.16	418.50
690.50	416.06
690.83	413.53
691.17	411.01
691.51	408.47
691.84	406.14
692.18	403.88
692.52	401.66
692.85	399.49
693.19	397.34
693.52	395.11
693.86	392.85
694.20	390.61
694.53	388.42
694.87	386.19
695.21	384.07
695.54	381.91
695.88	379.73
696.21	377.50
696.55	375.34
696.88	373.28
697.22	371.29
697.56	369.33
697.89	367.44
698.23	365.66
698.56	363.83
698.90	362.03
699.23	360.12
699.57	358.23
699.90	356.34
700.24	354.50
700.58	352.76
700.91	351.10
701.25	349.50
701.58	347.85
701.92	346.27
702.25	344.64
702.59	342.98
702.92	341.42
703.26	339.86
703.59	338.33
703.93	337.03
704.26	335.54
704.60	333.98
704.93	332.44
705.26	330.92
705.60	329.46
705.93	327.89
706.27	326.52
706.60	325.20
706.94	323.95
707.27	322.58
707.61	321.23
707.94	319.84
708.27	318.36
708.61	316.89
708.94	315.49
709.28	314.20
709.61	312.93
709.94	311.69
710.28	310.45
710.61	309.29
710.95	307.87
711.28	306.80
711.61	305.63
711.95	304.51
712.28	303.33
712.61	302.10
712.95	301.05
713.28	299.98
713.61	298.81
713.95	297.65
714.28	296.60
714.61	295.50
714.95	294.45
715.28	293.42
715.61	292.41
715.95	291.47
716.28	290.43
716.61	289.46
716.95	288.42
717.28	287.49
717.61	286.48
717.94	285.54
718.28	284.51
718.61	283.59
718.94	282.65
719.27	281.78
719.61	280.95
719.94	280.08
720.27	279.10
720.60	278.27
720.94	277.43
721.27	276.60
721.60	275.92
721.93	275.22
722.27	274.51
722.60	273.84
722.93	273.04
723.26	272.39
723.59	271.68
723.93	271.05
724.26	270.40
724.59	269.77
724.92	269.15
725.25	268.64
725.59	268.07
725.92	267.53
726.25	266.92
726.58	266.36
726.91	265.75
727.24	265.18
727.57	264.62
727.91	263.99
728.24	263.49
728.57	262.85
728.90	262.25
729.23	261.62
729.56	261.16
729.89	260.65
730.22	260.08
730.55	259.54
730.89	258.97
731.22	258.40
731.55	257.87
731.88	257.34
732.21	256.74
732.54	256.17
732.87	255.65
733.20	255.16
733.53	254.68
733.86	254.22
734.19	253.73
734.52	253.28
734.85	252.98
735.18	252.43
735.51	252.11
735.84	251.72
736.17	251.32
736.50	250.75
736.83	250.56
737.16	250.17
737.49	249.75
737.82	249.35
738.15	248.97
738.48	248.58
738.81	248.20
739.14	247.80
739.47	247.42
739.80	247.02
740.13	246.67
740.46	246.26
740.79	245.89
741.12	245.53
741.45	245.15
741.78	244.71
742.11	244.46
742.44	244.01
742.77	243.66
743.10	243.33
743.43	243.00
743.75	242.46
744.08	242.38
744.41	242.01
744.74	241.64
745.07	241.28
745.40	240.98
745.73	240.68
746.06	240.34
746.39	240.04
746.71	239.69
747.04	239.31
747.37	238.97
747.70	238.65
748.03	238.37
748.36	238.06
748.68	237.74
749.01	237.40
749.34	237.12
749.67	236.85
750.00	236.57
750.33	236.40
750.65	236.09
750.98	235.57
751.31	235.36
751.64	235.18
751.97	235.04
752.29	234.77
752.62	234.43
752.95	234.19
753.28	233.91
753.60	233.64
753.93	233.51
754.26	233.29
754.59	233.02
754.91	232.75
755.24	232.50
755.57	232.26
755.90	231.99
756.22	231.75
756.55	231.46
756.88	231.21
757.20	230.87
757.53	230.65
757.86	230.45
758.19	230.25
758.51	230.01
758.84	229.72
759.17	229.50
759.49	229.35
759.82	229.25
760.15	229.13
760.47	228.99
760.80	228.69
761.13	228.53
761.45	228.33
761.78	228.18
762.11	228.01
762.43	227.83
762.76	227.69
763.08	227.51
763.41	227.35
763.74	227.23
764.06	227.07
764.39	226.90
764.71	226.69
765.04	226.50
765.37	226.35
765.69	226.18
766.02	226.05
766.34	225.90
766.67	225.66
767.00	225.53
767.32	225.51
767.65	225.55
767.97	225.41
768.30	225.33
768.62	225.18
768.95	225.01
769.27	224.87
769.60	224.74
769.92	224.63
770.25	224.49
770.57	224.31
770.90	224.19
771.22	224.05
771.55	223.96
771.87	223.87
772.20	223.72
772.52	223.76
772.85	223.88
773.17	223.75
773.50	223.60
773.82	223.47
774.15	223.24
774.47	223.00
774.80	222.87
775.12	222.73
775.45	222.61
775.77	222.54
776.09	222.45
776.42	222.38
776.74	222.32
777.07	222.23
777.39	222.17
777.72	222.07
778.04	222.02
778.36	221.91
778.69	221.81
779.01	221.76
779.33	221.49
779.66	221.17
779.98	221.10
780.31	221.07
780.63	221.07
780.95	221.03
781.28	220.94
781.60	220.82
781.92	220.77
782.25	220.75
782.57	220.68
782.89	220.62
783.22	220.50
783.54	220.41
783.86	220.38
784.19	220.29
784.51	220.31
784.83	220.23
785.16	220.17
785.48	220.11
785.80	220.06
786.12	220.03
786.45	219.99
786.77	219.92
787.09	219.87
787.42	219.73
787.74	219.70
788.06	219.65
788.38	219.59
788.71	219.50
789.03	219.45
789.35	219.43
789.67	219.37
789.99	219.34
790.32	219.24
790.64	219.23
790.96	219.38
791.28	219.24
791.61	219.13
791.93	219.10
792.25	219.05
792.57	219.16
792.89	219.10
793.21	219.05
793.54	219.00
793.86	218.90
794.18	218.87
794.50	218.78
794.82	218.74
795.14	218.74
795.47	218.73
795.79	218.67
796.11	218.59
796.43	218.54
796.75	218.51
797.07	218.50
797.39	218.39
797.71	218.19
798.04	218.15
798.36	218.18
798.68	218.14
799.00	218.12
799.32	217.94
799.64	217.96
799.96	217.93
800.28	217.94
800.60	217.90
800.92	217.87
801.24	217.83
801.56	217.82
801.89	217.78
802.21	217.78
802.53	217.69
802.85	217.69
803.17	217.77
803.49	217.70
803.81	217.64
804.13	217.60
804.45	217.52
804.77	217.51
805.09	217.45
805.41	217.40
805.73	217.33
806.05	217.26
806.37	217.16
806.69	217.12
807.01	217.07
807.33	217.08
807.65	216.99
807.97	217.04
808.28	216.98
808.60	216.97
808.92	216.89
809.24	217.00
809.56	216.97
809.88	216.84
810.20	216.82
810.52	216.84
810.84	216.78
811.16	216.76
811.48	216.73
811.80	216.79
812.12	216.75
812.43	216.78
812.75	216.76
813.07	216.75
813.39	216.73
813.71	216.71
814.03	216.67
814.35	216.66
814.67	216.55
814.98	216.48
815.30	216.42
815.62	216.36
815.94	216.24
816.26	216.19
816.58	216.14
816.89	216.15
817.21	216.05
817.53	216.05
817.85	216.02
818.17	215.98
818.48	215.88
818.80	215.91
819.12	215.85
819.44	215.77
819.76	215.72
820.07	215.66
820.39	215.62
820.71	215.61
821.03	215.55
821.34	215.55
821.66	215.56
821.98	215.56
822.30	215.54
822.61	215.63
822.93	215.61
823.25	215.61
823.57	215.54
823.88	215.62
824.20	215.63
824.52	215.64
824.83	215.62
825.15	215.60
825.47	215.60
825.79	215.60
826.10	215.62
826.42	215.55
826.74	215.57
827.05	215.55
827.37	215.54
827.69	215.53
828.00	215.49
828.32	215.50
828.64	215.49
828.95	215.57
829.27	215.50
829.58	215.50
829.90	215.53
830.22	215.54
830.53	215.45
830.85	215.40
831.17	215.35
831.48	215.34
831.80	215.32
832.11	215.27
832.43	215.22
832.75	215.19
833.06	215.37
833.38	215.28
833.69	215.28
834.01	215.28
834.32	215.27
834.64	215.24
834.96	215.21
835.27	215.18
835.59	215.11
835.90	215.07
836.22	215.03
836.53	214.96
836.85	214.93
837.16	215.13
837.48	215.14
837.79	215.19
838.11	215.18
838.42	215.15
838.74	215.18
839.05	215.15
839.37	215.16
839.68	215.00
840.00	215.01
840.31	215.03
840.63	215.01
840.94	214.97
841.26	214.94
841.57	214.97
841.88	214.98
842.20	214.96
842.51	214.93
842.83	214.95
843.14	215.12
843.46	215.10
843.77	214.95
844.08	214.91
844.40	214.84
844.71	214.81
845.03	214.80
845.34	214.76
845.65	214.74
845.97	214.73
846.28	214.73
846.60	214.75
846.91	214.71
847.22	214.71
847.54	214.76
847.85	214.79
848.16	214.73
848.48	214.70
848.79	214.77
849.10	214.78
849.42	214.77
849.73	214.58
850.04	214.59
850.36	214.55
850.67	214.60
850.98	214.61
851.30	214.64
851.61	214.65
851.92	214.65
852.23	214.72
852.55	214.74
852.86	214.77
853.17	214.79
853.49	214.81
853.80	214.82
854.11	214.83
854.42	214.86
854.74	214.85
855.05	214.82
855.36	214.69
855.67	214.69
855.99	214.70
856.30	214.93
856.61	214.94
856.92	214.96
857.23	214.96
857.55	214.92
857.86	214.84
858.17	214.88
858.48	214.86
858.79	214.83
859.11	214.82
859.42	214.77
859.73	214.72
860.04	214.70
860.35	214.62
860.66	214.53
860.98	214.51
861.29	214.52
861.60	214.54
861.91	214.60
862.22	214.57
862.53	214.52
862.84	214.32
863.16	214.36
863.47	214.30
863.78	214.29
864.09	214.32
864.40	214.35
864.71	214.34
865.02	214.35
865.33	214.29
865.64	214.27
865.95	214.29
866.27	214.46
866.58	214.46
866.89	214.53
867.20	214.56
867.51	214.55
867.82	214.52
868.13	214.56
868.44	214.52
868.75	214.55
869.06	214.58
869.37	214.58
869.68	214.47
869.99	214.55
870.30	214.54
870.61	214.54
870.92	214.51
871.23	214.48
871.54	214.49
871.85	214.57
872.16	214.58
872.47	214.55
872.78	214.38
873.09	214.38
873.40	214.32
873.71	214.34
874.02	214.31
874.33	214.33
874.64	214.26
874.95	214.27
875.26	214.23
875.56	214.24
875.87	214.22
876.18	214.22
876.49	214.40
876.80	214.39
877.11	214.34
877.42	214.38
877.73	214.39
878.04	214.40
878.35	214.37
878.66	214.42
878.96	214.42
879.27	214.40
879.58	214.38
879.89	214.38
880.20	214.40
880.51	214.42
880.82	214.38
881.12	214.42
881.43	214.40
881.74	214.38
882.05	214.35
882.36	214.36
882.67	214.36
882.97	214.13
883.28	214.08
883.59	214.09
883.90	214.08
884.21	214.10
884.51	214.03
884.82	213.99
885.13	213.95
885.44	213.95
885.74	213.97
886.05	213.96
886.36	213.98
886.67	213.94
886.98	214.06
887.28	214.08
887.59	214.05
887.90	214.08
888.20	214.06
888.51	214.09
888.82	214.05
889.13	214.09
889.43	214.25
889.74	214.24
890.05	214.24
890.35	214.23
890.66	214.19
890.97	214.21
891.28	214.21
891.58	214.18
891.89	214.19
892.20	214.16
892.50	214.13
892.81	214.10
893.12	214.08
893.42	213.98
893.73	213.99
894.04	213.99
894.34	214.00
894.65	214.03
894.95	214.02
895.26	214.01
895.57	214.09
895.87	213.88
896.18	213.94
896.48	213.94
896.79	213.92
897.10	213.98
897.40	213.97
897.71	214.01
898.01	214.02
898.32	214.02
898.63	214.04
898.93	214.08
899.24	214.08
899.54	214.08
899.85	214.05
900.15	214.04
900.46	214.05
900.76	214.05
901.07	214.05
901.38	214.02
901.68	214.04
901.99	213.95
902.29	213.97
902.60	213.94
902.90	213.94
903.21	213.97
903.51	213.96
903.82	214.02
904.12	214.00
904.43	214.03
904.73	214.02
905.03	214.02
905.34	214.21
905.64	214.23
905.95	214.23
906.25	214.24
906.56	214.26
906.86	214.25
907.17	214.22
907.47	214.22
907.77	214.23
908.08	214.19
908.38	214.22
908.69	214.23
908.99	214.29
909.30	214.33
909.60	214.32
909.90	214.30
910.21	214.24
910.51	214.21
910.81	214.20
911.12	214.21
911.42	214.22
911.73	214.02
912.03	213.99
912.33	214.03
912.64	214.00
912.94	213.97
913.24	213.95
913.55	213.97
913.85	213.97
914.15	214.01
914.46	214.05
914.76	214.00
915.06	213.98
915.37	213.92
915.67	213.88
915.97	213.88
916.27	213.84
916.58	213.84
916.88	213.83
917.18	213.84
917.49	213.99
917.79	213.97
918.09	213.99
918.39	214.08
918.70	214.09
919.00	214.09
919.30	214.18
919.60	214.18
919.91	214.13
920.21	214.14
920.51	214.11
920.81	214.07
921.12	214.12
921.42	214.13
921.72	214.15
922.02	214.16
922.32	214.15
922.63	214.17
922.93	214.28
923.23	214.32
923.53	214.27
923.83	214.11
924.13	214.13
924.44	214.09
924.74	214.10
925.04	214.13
925.34	214.14
925.64	214.07
925.94	214.08
926.24	214.23
926.55	214.19
926.85	214.24
927.15	214.23
927.45	214.22
927.75	214.21
928.05	214.21
928.35	214.17
928.65	214.24
928.95	214.23
929.26	214.14
929.56	214.16
929.86	214.20
930.16	214.18
930.46	214.17
930.76	214.20
931.06	214.12
931.36	214.02
931.66	214.05
931.96	214.06
932.26	214.05
932.56	213.95
932.86	213.96
933.16	213.92
933.46	213.92
933.76	213.88
934.06	213.95
934.36	214.03
934.66	214.07
934.96	214.04
935.26	214.05
935.56	214.07
935.86	214.00
936.16	213.97
936.46	213.98
936.76	213.97
937.06	213.95
937.36	213.96
937.66	214.03
937.96	214.00
938.26	213.97
938.56	213.95
938.86	213.97
939.16	214.02
939.46	214.04
939.76	214.07
940.06	214.08
940.35	214.00
940.65	213.90
940.95	213.90
941.25	213.84
941.55	213.81
941.85	213.82
942.15	213.87
942.45	213.93
942.75	213.90
943.04	213.90
943.34	213.95
943.64	213.92
943.94	213.87
944.24	213.87
944.54	213.88
944.84	213.88
945.13	213.84
945.43	213.79
945.73	213.77
946.03	213.75
946.33	213.71
946.62	213.71
946.92	213.66
947.22	213.68
947.52	213.73
947.82	213.72
948.11	213.66
948.41	213.60
948.71	213.53
949.01	213.55
949.31	213.54
949.60	213.51
949.90	213.55
950.20	213.58
950.50	213.58
950.79	213.56
951.09	213.58
951.39	213.58
951.69	213.58
951.98	213.61
952.28	213.61
952.58	213.61
952.87	213.62
953.17	213.71
953.47	213.68
953.76	213.65
954.06	213.64
954.36	213.64
954.66	213.66
954.95	213.71
955.25	213.77
955.55	213.81
955.84	213.77
956.14	213.74
956.44	213.74
956.73	213.67
957.03	213.68
957.32	213.68
957.62	213.69
957.92	213.73
958.21	213.73
958.51	214.00
958.81	214.05
959.10	214.08
959.40	214.08
959.69	214.11
959.99	214.16
960.29	214.17
960.58	214.16
960.88	214.25
961.17	214.20
961.47	214.17
961.76	214.12
962.06	214.19
962.36	214.20
962.65	214.19
962.95	214.22
963.24	214.22
963.54	214.25
963.83	214.27
964.13	214.25
964.42	214.18
964.72	214.00
965.01	214.00
965.31	214.00
965.60	213.97
965.90	214.08
966.19	214.02
966.49	214.03
966.78	214.02
967.08	213.98
967.37	213.99
967.67	213.95
967.96	214.01
968.26	213.99
968.55	213.97
968.85	213.96
969.14	213.96
969.43	213.92
969.73	213.85
970.02	213.84
970.32	213.84
970.61	213.84
970.91	213.76
971.20	213.73
971.49	213.70
971.79	213.72
972.08	213.55
972.38	213.58
972.67	213.61
972.96	213.65
973.26	213.62
973.55	213.70
973.85	213.70
974.14	213.69
974.43	213.71
974.73	213.70
975.02	213.70
975.31	213.71
975.61	213.72
975.90	213.71
976.19	213.67
976.49	213.69
976.78	213.68
977.07	213.71
977.37	213.71
977.66	213.71
977.95	213.67
978.24	213.72
978.54	213.75
978.83	213.70
979.12	213.68
979.42	213.65
979.71	213.60
980.00	213.57
980.29	213.55
980.59	213.51
980.88	213.55
981.17	213.55
981.46	213.57
981.76	213.61
982.05	213.68
982.34	213.71
982.63	213.71
982.93	213.74
983.22	213.77
983.51	213.78
983.80	213.82
984.09	213.87
984.39	213.83
984.68	213.84
984.97	213.86
985.26	213.85
985.55	213.89
985.85	213.86
986.14	213.92
986.43	213.94
986.72	213.91
987.01	213.86
987.30	213.83
987.59	213.81
987.89	213.80
988.18	213.74
988.47	213.72
988.76	213.72
989.05	213.70
989.34	213.69
989.63	213.74
989.92	213.72
990.22	213.69
990.51	213.69
990.80	213.65
991.09	213.66
991.38	213.67
991.67	213.64
991.96	213.62
992.25	213.62
992.54	213.60
992.83	213.61
993.12	213.63
993.41	213.68
993.70	213.77
993.99	213.79
994.28	213.83
994.58	213.85
994.87	213.81
995.16	213.82
995.45	213.77
995.74	213.70
996.03	213.70
996.32	213.73
996.61	213.77
996.90	213.78
997.19	213.78
997.48	213.77
997.77	213.75
998.06	213.78
998.34	213.75
998.63	213.76
998.92	213.79
999.21	213.81
999.50	213.79
999.79	213.71
1000.08	213.73
1000.37	213.70
1000.66	213.72
1000.95	213.79
1001.24	213.79
1001.53	213.83
1001.82	213.82
1002.11	213.80
1002.40	213.80
1002.68	213.84
1002.97	213.94
1003.26	213.91
1003.55	213.93
1003.84	213.95
1004.13	214.02
1004.42	213.99
1004.71	213.97
1004.99	213.97
1005.28	214.01
1005.57	214.03
1005.86	214.01
1006.15	213.96
1006.44	213.94
1006.72	213.94
1007.01	213.91
1007.30	213.88
1007.59	213.87
1007.88	213.85
1008.17	213.86
1008.45	213.82
1008.74	213.76
1009.03	213.68
1009.32	213.68
1009.60	213.64
1009.89	213.64
1010.18	213.56
1010.47	213.57
1010.76	213.57
1011.04	213.54
1011.33	213.56
1011.62	213.57
1011.91	213.61
1012.19	213.64
1012.48	213.69
1012.77	213.68
1013.05	213.74
1013.34	213.74
1013.63	213.73
1013.92	213.75
1014.20	213.75
1014.49	213.77
1014.78	213.82
1015.06	213.76
1015.35	213.77
1015.64	213.81
1015.92	213.81
1016.21	213.82
1016.50	213.82
1016.78	213.87
1017.07	213.89
1017.36	213.84
1017.64	213.80
1017.93	213.80
1018.22	213.75
1018.50	213.70
1018.79	213.71
1019.08	213.64
1019.36	213.68
1019.65	213.67
1019.93	213.75
1020.22	213.75
1020.51	213.86
1020.79	213.80
1021.08	212.89
1021.36	213.22
1021.65	213.76
1021.94	213.75
1022.22	214.03
1022.51	213.75
1022.79	214.91
1023.08	213.75
1023.36	216.40
1023.65	212.89
>>>>>End Processed Spectral Data<<<<<
