SpectraSuite Data File
++++++++++++++++++++++++++++++++++++
Date: Tue Jan 29 16:16:17 EST 2013
User: group
Dark Spectrum Present: No
Reference Spectrum Present: No
Number of Sampled Component Spectra: 1
Spectrometers: USB2E7196
Integration Time (usec): 65000 (USB2E7196)
Spectra Averaged: 100 (USB2E7196)
Boxcar Smoothing: 10 (USB2E7196)
Correct for Electrical Dark: No (USB2E7196)
Strobe/Lamp Enabled: No (USB2E7196)
Correct for Detector Non-linearity: No (USB2E7196)
Correct for Stray Light: No (USB2E7196)
Number of Pixels in Processed Spectrum: 2048
>>>>>Begin Processed Spectral Data<<<<<
339.09	0.00
339.48	202.13
339.86	203.82
340.24	205.20
340.63	206.63
341.01	210.96
341.39	209.24
341.78	210.96
342.16	212.22
342.54	212.79
342.93	201.46
343.31	211.64
343.69	212.19
344.07	212.67
344.46	213.13
344.84	213.50
345.22	213.66
345.60	213.94
345.99	214.12
346.37	214.27
346.75	214.39
347.13	214.46
347.52	214.51
347.90	214.65
348.28	214.69
348.66	214.79
349.05	214.79
349.43	214.90
349.81	214.94
350.19	215.04
350.57	215.12
350.96	215.28
351.34	215.40
351.72	215.51
352.10	215.63
352.48	215.67
352.87	215.76
353.25	215.83
353.63	215.89
354.01	215.96
354.39	216.03
354.77	216.09
355.15	216.21
355.54	216.32
355.92	216.33
356.30	216.42
356.68	216.59
357.06	216.68
357.44	216.69
357.82	216.78
358.20	216.83
358.58	216.88
358.97	216.91
359.35	216.99
359.73	217.07
360.11	217.12
360.49	217.19
360.87	217.25
361.25	217.36
361.63	217.45
362.01	217.51
362.39	217.54
362.77	217.62
363.15	217.65
363.53	217.68
363.91	217.71
364.29	217.73
364.67	217.59
365.05	217.60
365.43	217.65
365.81	217.70
366.19	217.82
366.57	217.91
366.95	217.92
367.33	217.89
367.71	217.89
368.09	217.90
368.47	217.91
368.85	217.91
369.23	217.90
369.61	217.86
369.99	217.92
370.37	217.95
370.75	218.00
371.13	217.96
371.51	217.91
371.89	217.91
372.27	217.89
372.65	217.87
373.03	217.84
373.41	217.79
373.78	217.75
374.16	217.60
374.54	217.51
374.92	217.44
375.30	217.40
375.68	217.34
376.06	217.28
376.44	217.23
376.82	217.20
377.19	217.17
377.57	217.09
377.95	216.95
378.33	216.87
378.71	216.71
379.09	216.67
379.47	216.67
379.84	216.58
380.22	216.52
380.60	216.45
380.98	216.39
381.36	216.35
381.73	216.25
382.11	216.24
382.49	216.15
382.87	216.05
383.25	216.01
383.62	216.20
384.00	216.14
384.38	216.10
384.76	216.12
385.13	216.15
385.51	216.12
385.89	216.11
386.27	216.08
386.64	216.09
387.02	216.04
387.40	215.96
387.78	215.94
388.15	215.92
388.53	215.87
388.91	215.84
389.29	215.81
389.66	215.83
390.04	215.74
390.42	215.78
390.79	215.82
391.17	215.82
391.55	215.59
391.92	215.59
392.30	215.62
392.68	215.55
393.05	215.53
393.43	215.53
393.81	215.51
394.18	215.50
394.56	215.53
394.94	215.60
395.31	215.60
395.69	215.71
396.06	215.76
396.44	215.78
396.82	215.78
397.19	215.90
397.57	215.92
397.95	216.02
398.32	215.97
398.70	216.00
399.07	216.07
399.45	216.11
399.82	216.19
400.20	216.21
400.58	216.25
400.95	216.23
401.33	216.38
401.70	216.59
402.08	216.69
402.45	216.75
402.83	216.87
403.20	216.99
403.58	217.05
403.95	217.20
404.33	217.38
404.71	217.55
405.08	217.81
405.46	217.98
405.83	218.15
406.21	218.38
406.58	218.62
406.96	218.81
407.33	219.07
407.70	219.30
408.08	219.77
408.45	220.11
408.83	220.49
409.20	220.76
409.58	221.02
409.95	221.50
410.33	221.97
410.70	222.37
411.08	222.93
411.45	223.48
411.82	224.07
412.20	224.73
412.57	225.52
412.95	226.08
413.32	226.87
413.69	227.71
414.07	228.58
414.44	229.50
414.82	230.51
415.19	231.62
415.56	232.80
415.94	233.93
416.31	235.33
416.68	236.63
417.06	238.18
417.43	239.70
417.81	241.34
418.18	243.05
418.55	244.91
418.93	246.84
419.30	248.86
419.67	250.97
420.04	253.16
420.42	255.45
420.79	258.16
421.16	260.85
421.54	263.64
421.91	266.56
422.28	269.59
422.66	272.76
423.03	275.96
423.40	279.19
423.77	282.69
424.15	286.17
424.52	289.88
424.89	293.96
425.26	297.90
425.64	301.64
426.01	305.77
426.38	310.08
426.75	314.42
427.13	319.00
427.50	323.81
427.87	328.90
428.24	333.93
428.61	338.71
428.99	344.08
429.36	349.88
429.73	355.53
430.10	361.18
430.47	367.05
430.85	373.13
431.22	379.63
431.59	386.47
431.96	393.07
432.33	400.39
432.70	407.38
433.08	415.58
433.45	423.40
433.82	431.15
434.19	439.75
434.56	448.17
434.93	456.22
435.30	464.23
435.68	472.95
436.05	481.64
436.42	490.29
436.79	498.08
437.16	506.48
437.53	515.48
437.90	524.29
438.27	532.94
438.64	541.83
439.01	550.06
439.38	557.35
439.75	564.48
440.13	572.54
440.50	580.18
440.87	586.44
441.24	592.85
441.61	600.01
441.98	605.16
442.35	611.33
442.72	617.40
443.09	623.19
443.46	626.87
443.83	629.22
444.20	631.31
444.57	634.38
444.94	635.84
445.31	637.14
445.68	638.48
446.05	639.06
446.42	638.31
446.79	637.33
447.16	636.27
447.53	635.49
447.90	632.25
448.27	629.07
448.64	624.53
449.01	621.34
449.37	615.57
449.74	610.17
450.11	603.49
450.48	596.37
450.85	589.22
451.22	582.91
451.59	577.01
451.96	571.43
452.33	563.81
452.70	556.98
453.07	548.83
453.43	540.52
453.80	532.52
454.17	524.79
454.54	517.51
454.91	509.66
455.28	501.97
455.65	494.89
456.02	487.69
456.38	481.58
456.75	473.96
457.12	467.60
457.49	461.29
457.86	455.29
458.23	450.16
458.59	444.45
458.96	438.72
459.33	433.66
459.70	428.44
460.07	424.43
460.43	419.72
460.80	415.35
461.17	411.54
461.54	407.54
461.91	403.68
462.27	399.74
462.64	396.45
463.01	392.75
463.38	389.20
463.74	385.63
464.11	382.52
464.48	379.81
464.85	376.87
465.21	374.52
465.58	372.04
465.95	368.93
466.32	366.38
466.68	363.79
467.05	361.28
467.42	358.82
467.78	356.21
468.15	353.77
468.52	351.92
468.88	349.53
469.25	347.38
469.62	345.61
469.98	343.77
470.35	342.08
470.72	340.50
471.08	338.74
471.45	337.30
471.82	335.83
472.18	334.22
472.55	333.08
472.92	331.74
473.28	330.54
473.65	329.47
474.02	328.41
474.38	327.67
474.75	326.93
475.11	326.16
475.48	325.64
475.85	325.17
476.21	324.69
476.58	324.37
476.94	324.21
477.31	324.00
477.67	323.78
478.04	323.62
478.41	323.65
478.77	323.83
479.14	323.83
479.50	324.01
479.87	324.27
480.23	324.62
480.60	324.89
480.96	325.23
481.33	325.87
481.69	326.42
482.06	326.93
482.42	327.42
482.79	328.05
483.15	328.82
483.52	329.76
483.88	330.65
484.25	331.57
484.61	332.56
484.98	333.58
485.34	334.87
485.71	336.19
486.07	337.56
486.44	338.88
486.80	340.51
487.17	342.15
487.53	344.05
487.90	345.89
488.26	347.95
488.62	350.09
488.99	352.08
489.35	354.29
489.72	356.64
490.08	359.20
490.44	361.76
490.81	364.47
491.17	367.15
491.54	370.11
491.90	373.18
492.26	376.43
492.63	379.85
492.99	383.34
493.36	387.04
493.72	390.92
494.08	394.88
494.45	399.04
494.81	403.37
495.17	407.79
495.54	412.49
495.90	417.24
496.26	422.13
496.63	427.31
496.99	432.63
497.35	438.22
497.72	444.01
498.08	449.94
498.44	456.01
498.80	462.47
499.17	468.98
499.53	475.61
499.89	482.44
500.26	489.34
500.62	496.38
500.98	503.71
501.34	511.11
501.71	518.88
502.07	526.64
502.43	534.65
502.79	542.68
503.16	550.98
503.52	559.51
503.88	568.10
504.24	577.05
504.60	586.09
504.97	595.19
505.33	604.36
505.69	614.16
506.05	623.94
506.41	633.66
506.78	643.59
507.14	653.77
507.50	664.14
507.86	674.80
508.22	685.53
508.59	696.18
508.95	707.21
509.31	718.35
509.67	729.77
510.03	740.95
510.39	752.55
510.75	764.22
511.12	776.03
511.48	788.08
511.84	800.14
512.20	812.29
512.56	824.79
512.92	837.46
513.28	849.91
513.64	862.49
514.00	875.24
514.37	888.17
514.73	901.11
515.09	913.89
515.45	926.59
515.81	939.41
516.17	952.44
516.53	965.40
516.89	978.31
517.25	991.26
517.61	1004.76
517.97	1018.00
518.33	1030.99
518.69	1044.31
519.05	1057.74
519.41	1071.17
519.77	1084.91
520.13	1097.99
520.49	1110.90
520.85	1124.04
521.21	1137.19
521.57	1150.55
521.93	1163.28
522.29	1176.71
522.65	1190.11
523.01	1203.46
523.37	1216.40
523.73	1229.44
524.09	1242.37
524.45	1255.56
524.81	1268.78
525.17	1281.80
525.53	1294.68
525.89	1307.71
526.25	1320.57
526.61	1333.16
526.97	1345.97
527.33	1358.45
527.68	1371.58
528.04	1384.81
528.40	1397.65
528.76	1410.64
529.12	1423.27
529.48	1436.30
529.84	1448.38
530.20	1460.89
530.56	1473.07
530.91	1486.05
531.27	1498.69
531.63	1511.15
531.99	1523.52
532.35	1535.38
532.71	1547.53
533.07	1560.02
533.42	1571.95
533.78	1583.83
534.14	1595.53
534.50	1606.53
534.86	1617.88
535.21	1628.51
535.57	1639.57
535.93	1650.59
536.29	1661.41
536.65	1672.56
537.00	1683.27
537.36	1694.26
537.72	1704.89
538.08	1716.02
538.44	1726.54
538.79	1737.17
539.15	1747.67
539.51	1757.91
539.87	1768.89
540.22	1779.26
540.58	1789.89
540.94	1800.46
541.29	1810.24
541.65	1819.78
542.01	1829.91
542.37	1839.69
542.72	1849.50
543.08	1859.09
543.44	1869.15
543.79	1878.20
544.15	1887.25
544.51	1896.90
544.87	1906.43
545.22	1915.25
545.58	1923.89
545.94	1932.49
546.29	1940.77
546.65	1948.92
547.01	1956.94
547.36	1964.29
547.72	1971.79
548.07	1979.14
548.43	1986.63
548.79	1994.30
549.14	2002.15
549.50	2010.40
549.86	2017.88
550.21	2025.17
550.57	2032.47
550.92	2038.99
551.28	2046.27
551.64	2053.34
551.99	2060.67
552.35	2067.70
552.70	2074.42
553.06	2080.91
553.41	2087.02
553.77	2093.37
554.13	2099.49
554.48	2106.40
554.84	2113.31
555.19	2119.71
555.55	2126.06
555.90	2132.17
556.26	2138.86
556.61	2144.69
556.97	2149.35
557.32	2155.08
557.68	2161.22
558.03	2166.99
558.39	2172.23
558.74	2178.02
559.10	2183.66
559.45	2189.05
559.81	2194.37
560.16	2199.91
560.52	2205.67
560.87	2212.02
561.23	2217.95
561.58	2224.64
561.94	2229.83
562.29	2234.74
562.64	2240.84
563.00	2246.44
563.35	2252.00
563.71	2257.76
564.06	2263.48
564.42	2269.54
564.77	2274.77
565.12	2280.01
565.48	2285.26
565.83	2290.80
566.19	2296.23
566.54	2301.46
566.89	2305.96
567.25	2310.61
567.60	2316.37
567.96	2321.61
568.31	2326.01
568.66	2330.29
569.02	2334.12
569.37	2338.12
569.72	2342.46
570.08	2346.05
570.43	2349.20
570.78	2352.34
571.14	2355.00
571.49	2358.26
571.84	2361.75
572.20	2364.54
572.55	2367.70
572.90	2369.85
573.26	2372.85
573.61	2375.43
573.96	2377.69
574.31	2379.95
574.67	2381.90
575.02	2382.68
575.37	2384.09
575.72	2385.10
576.08	2386.72
576.43	2387.08
576.78	2387.64
577.13	2389.52
577.49	2390.56
577.84	2391.86
578.19	2393.44
578.54	2394.09
578.90	2395.05
579.25	2394.99
579.60	2395.30
579.95	2394.80
580.30	2395.19
580.66	2394.48
581.01	2392.99
581.36	2390.86
581.71	2389.71
582.06	2388.89
582.42	2388.31
582.77	2386.39
583.12	2384.98
583.47	2383.73
583.82	2383.31
584.17	2382.19
584.53	2380.00
584.88	2378.19
585.23	2376.31
585.58	2374.06
585.93	2372.22
586.28	2370.25
586.63	2368.16
586.98	2366.21
587.34	2364.38
587.69	2362.22
588.04	2360.45
588.39	2359.11
588.74	2356.72
589.09	2354.22
589.44	2351.36
589.79	2349.06
590.14	2347.34
590.49	2344.66
590.84	2341.11
591.19	2338.27
591.54	2335.09
591.89	2331.19
592.25	2328.09
592.60	2324.11
592.95	2320.27
593.30	2316.22
593.65	2311.71
594.00	2307.44
594.35	2304.27
594.70	2299.79
595.05	2295.14
595.40	2289.82
595.75	2284.24
596.10	2280.79
596.45	2275.90
596.80	2271.41
597.15	2266.24
597.50	2260.37
597.85	2255.61
598.19	2250.56
598.54	2244.85
598.89	2239.79
599.24	2235.36
599.59	2229.33
599.94	2223.80
600.29	2217.94
600.64	2212.14
600.99	2205.66
601.34	2200.31
601.69	2193.55
602.04	2187.23
602.39	2180.82
602.74	2174.91
603.08	2169.53
603.43	2163.05
603.78	2156.37
604.13	2149.34
604.48	2142.24
604.83	2136.23
605.18	2129.92
605.53	2122.91
605.87	2116.07
606.22	2109.43
606.57	2101.67
606.92	2094.01
607.27	2087.05
607.62	2080.46
607.96	2073.48
608.31	2067.02
608.66	2059.18
609.01	2051.67
609.36	2044.62
609.70	2037.09
610.05	2029.33
610.40	2021.09
610.75	2012.94
611.10	2005.38
611.44	1996.74
611.79	1988.05
612.14	1978.14
612.49	1967.75
612.83	1958.69
613.18	1949.56
613.53	1940.30
613.88	1930.93
614.22	1922.24
614.57	1912.35
614.92	1901.83
615.27	1891.81
615.61	1881.80
615.96	1872.27
616.31	1862.63
616.65	1853.34
617.00	1843.46
617.35	1833.97
617.70	1824.34
618.04	1814.24
618.39	1803.99
618.74	1794.29
619.08	1784.82
619.43	1776.23
619.78	1768.05
620.12	1759.29
620.47	1749.49
620.82	1739.27
621.16	1729.38
621.51	1719.50
621.85	1709.67
622.20	1699.39
622.55	1688.71
622.89	1679.03
623.24	1669.50
623.59	1659.94
623.93	1649.83
624.28	1640.22
624.62	1630.17
624.97	1619.95
625.32	1610.36
625.66	1601.71
626.01	1592.85
626.35	1583.38
626.70	1573.25
627.04	1563.14
627.39	1553.11
627.73	1543.94
628.08	1534.95
628.43	1525.38
628.77	1516.18
629.12	1507.33
629.46	1499.57
629.81	1491.31
630.15	1481.63
630.50	1471.67
630.84	1461.19
631.19	1451.32
631.53	1441.91
631.88	1431.67
632.22	1421.62
632.57	1412.29
632.91	1402.10
633.26	1392.29
633.60	1382.80
633.95	1373.52
634.29	1364.19
634.64	1354.91
634.98	1345.06
635.32	1335.79
635.67	1327.33
636.01	1318.18
636.36	1308.48
636.70	1298.94
637.05	1289.64
637.39	1280.76
637.73	1272.25
638.08	1264.80
638.42	1256.68
638.77	1248.05
639.11	1239.91
639.45	1232.22
639.80	1223.65
640.14	1215.00
640.49	1206.24
640.83	1197.53
641.17	1189.44
641.52	1181.27
641.86	1172.81
642.20	1164.94
642.55	1156.45
642.89	1147.66
643.23	1139.01
643.58	1130.96
643.92	1121.87
644.26	1113.34
644.61	1104.96
644.95	1096.24
645.29	1086.97
645.64	1077.85
645.98	1069.47
646.32	1061.60
646.66	1053.01
647.01	1044.78
647.35	1036.65
647.69	1028.25
648.04	1019.91
648.38	1011.14
648.72	1002.36
649.06	993.99
649.41	985.85
649.75	977.83
650.09	970.07
650.43	962.14
650.78	954.00
651.12	946.47
651.46	939.11
651.80	931.89
652.14	924.64
652.49	917.19
652.83	909.90
653.17	902.19
653.51	894.67
653.85	887.56
654.20	880.31
654.54	872.91
654.88	865.90
655.22	858.81
655.56	851.93
655.90	845.29
656.25	838.67
656.59	831.74
656.93	824.81
657.27	817.64
657.61	810.75
657.95	804.73
658.29	798.96
658.64	792.80
658.98	786.49
659.32	780.00
659.66	773.79
660.00	767.48
660.34	761.49
660.68	755.46
661.02	749.28
661.36	743.41
661.70	737.71
662.05	732.03
662.39	726.64
662.73	721.35
663.07	716.08
663.41	710.53
663.75	705.02
664.09	699.59
664.43	694.33
664.77	689.11
665.11	683.34
665.45	677.46
665.79	671.75
666.13	666.10
666.47	660.71
666.81	655.41
667.15	650.17
667.49	645.12
667.83	639.85
668.17	634.71
668.51	629.69
668.85	624.83
669.19	620.04
669.53	615.16
669.87	610.09
670.21	605.39
670.55	600.75
670.89	596.42
671.23	592.17
671.57	587.87
671.91	583.61
672.25	579.57
672.58	575.53
672.92	571.55
673.26	567.72
673.60	563.90
673.94	560.17
674.28	556.55
674.62	552.87
674.96	549.19
675.30	545.73
675.64	542.20
675.97	538.66
676.31	535.10
676.65	531.49
676.99	528.14
677.33	524.29
677.67	520.71
678.01	516.88
678.34	513.25
678.68	509.83
679.02	506.29
679.36	502.66
679.70	499.09
680.04	495.63
680.37	492.19
680.71	488.99
681.05	485.81
681.39	482.70
681.73	479.59
682.06	476.66
682.40	473.60
682.74	470.45
683.08	467.32
683.42	464.21
683.75	461.31
684.09	458.32
684.43	455.55
684.77	452.65
685.10	449.87
685.44	446.99
685.78	444.12
686.12	441.44
686.45	438.76
686.79	436.15
687.13	433.66
687.46	431.15
687.80	428.50
688.14	425.71
688.48	423.05
688.81	420.39
689.15	417.86
689.49	415.33
689.82	412.85
690.16	410.33
690.50	407.95
690.83	405.52
691.17	403.04
691.51	400.71
691.84	398.54
692.18	396.40
692.52	394.28
692.85	392.13
693.19	390.05
693.52	387.97
693.86	385.78
694.20	383.66
694.53	381.55
694.87	379.42
695.21	377.41
695.54	375.34
695.88	373.26
696.21	371.13
696.55	369.04
696.88	366.99
697.22	365.04
697.56	363.16
697.89	361.30
698.23	359.60
698.56	357.77
698.90	356.01
699.23	354.12
699.57	352.23
699.90	350.49
700.24	348.69
700.58	346.93
700.91	345.32
701.25	343.80
701.58	342.25
701.92	340.68
702.25	339.11
702.59	337.53
702.92	336.02
703.26	334.52
703.59	333.13
703.93	331.94
704.26	330.58
704.60	329.12
704.93	327.68
705.26	326.19
705.60	324.80
705.93	323.33
706.27	322.10
706.60	320.92
706.94	319.70
707.27	318.29
707.61	317.00
707.94	315.71
708.27	314.22
708.61	312.79
708.94	311.45
709.28	310.21
709.61	309.00
709.94	307.86
710.28	306.63
710.61	305.43
710.95	304.00
711.28	302.95
711.61	301.75
711.95	300.65
712.28	299.48
712.61	298.35
712.95	297.36
713.28	296.32
713.61	295.19
713.95	294.11
714.28	293.20
714.61	292.18
714.95	291.18
715.28	290.19
715.61	289.23
715.95	288.30
716.28	287.32
716.61	286.40
716.95	285.44
717.28	284.59
717.61	283.63
717.94	282.82
718.28	281.82
718.61	281.00
718.94	280.11
719.27	279.33
719.61	278.53
719.94	277.66
720.27	276.67
720.60	275.86
720.94	275.06
721.27	274.32
721.60	273.65
721.93	272.95
722.27	272.34
722.60	271.69
722.93	271.02
723.26	270.38
723.59	269.74
723.93	269.11
724.26	268.45
724.59	267.83
724.92	267.25
725.25	266.74
725.59	266.20
725.92	265.69
726.25	265.13
726.58	264.57
726.91	264.01
727.24	263.49
727.57	262.93
727.91	262.32
728.24	261.76
728.57	261.18
728.90	260.63
729.23	260.03
729.56	259.61
729.89	259.07
730.22	258.52
730.55	257.97
730.89	257.45
731.22	256.89
731.55	256.37
731.88	255.86
732.21	255.27
732.54	254.74
732.87	254.28
733.20	253.78
733.53	253.31
733.86	252.88
734.19	252.45
734.52	252.04
734.85	251.76
735.18	251.26
735.51	250.86
735.84	250.44
736.17	250.09
736.50	249.57
736.83	249.44
737.16	249.06
737.49	248.67
737.82	248.26
738.15	247.98
738.48	247.66
738.81	247.25
739.14	246.88
739.47	246.53
739.80	246.12
740.13	245.80
740.46	245.40
740.79	245.04
741.12	244.66
741.45	244.32
741.78	243.88
742.11	243.68
742.44	243.34
742.77	243.09
743.10	242.68
743.43	242.33
743.75	241.76
744.08	241.70
744.41	241.36
744.74	241.05
745.07	240.62
745.40	240.33
745.73	240.09
746.06	239.81
746.39	239.50
746.71	239.18
747.04	238.85
747.37	238.54
747.70	238.23
748.03	237.96
748.36	237.71
748.68	237.41
749.01	237.06
749.34	236.77
749.67	236.48
750.00	236.29
750.33	236.18
750.65	235.95
750.98	235.44
751.31	235.24
751.64	235.00
751.97	234.94
752.29	234.68
752.62	234.35
752.95	234.03
753.28	233.77
753.60	233.53
753.93	233.37
754.26	233.19
754.59	232.94
754.91	232.72
755.24	232.46
755.57	232.25
755.90	232.03
756.22	231.80
756.55	231.55
756.88	231.31
757.20	230.97
757.53	230.71
757.86	230.53
758.19	230.32
758.51	230.14
758.84	229.81
759.17	229.62
759.49	229.45
759.82	229.38
760.15	229.22
760.47	229.06
760.80	228.80
761.13	228.67
761.45	228.48
761.78	228.28
762.11	228.12
762.43	227.95
762.76	227.79
763.08	227.63
763.41	227.49
763.74	227.33
764.06	227.16
764.39	227.03
764.71	226.85
765.04	226.69
765.37	226.54
765.69	226.38
766.02	226.20
766.34	226.05
766.67	225.89
767.00	225.78
767.32	225.73
767.65	225.73
767.97	225.55
768.30	225.47
768.62	225.34
768.95	225.17
769.27	225.02
769.60	224.91
769.92	224.78
770.25	224.60
770.57	224.43
770.90	224.32
771.22	224.17
771.55	224.07
771.87	223.95
772.20	223.82
772.52	223.89
772.85	224.04
773.17	223.97
773.50	223.82
773.82	223.73
774.15	223.54
774.47	223.32
774.80	223.22
775.12	223.11
775.45	223.01
775.77	222.96
776.09	222.90
776.42	222.82
776.74	222.77
777.07	222.70
777.39	222.65
777.72	222.54
778.04	222.52
778.36	222.41
778.69	222.35
779.01	222.33
779.33	222.09
779.66	221.78
779.98	221.63
780.31	221.59
780.63	221.56
780.95	221.54
781.28	221.47
781.60	221.38
781.92	221.28
782.25	221.23
782.57	221.16
782.89	221.08
783.22	220.97
783.54	220.88
783.86	220.83
784.19	220.76
784.51	220.73
784.83	220.64
785.16	220.60
785.48	220.52
785.80	220.39
786.12	220.33
786.45	220.29
786.77	220.30
787.09	220.22
787.42	220.10
787.74	220.03
788.06	219.97
788.38	219.92
788.71	219.87
789.03	219.81
789.35	219.78
789.67	219.74
789.99	219.70
790.32	219.65
790.64	219.64
790.96	219.76
791.28	219.67
791.61	219.55
791.93	219.52
792.25	219.47
792.57	219.58
792.89	219.53
793.21	219.46
793.54	219.41
793.86	219.38
794.18	219.34
794.50	219.27
794.82	219.25
795.14	219.24
795.47	219.24
795.79	219.21
796.11	219.15
796.43	219.09
796.75	219.05
797.07	219.01
797.39	218.94
797.71	218.76
798.04	218.76
798.36	218.79
798.68	218.73
799.00	218.69
799.32	218.59
799.64	218.59
799.96	218.57
800.28	218.57
800.60	218.53
800.92	218.50
801.24	218.45
801.56	218.40
801.89	218.28
802.21	218.28
802.53	218.19
802.85	218.19
803.17	218.24
803.49	218.18
803.81	218.12
804.13	218.09
804.45	218.03
804.77	217.98
805.09	217.96
805.41	217.91
805.73	217.85
806.05	217.75
806.37	217.74
806.69	217.67
807.01	217.64
807.33	217.61
807.65	217.53
807.97	217.61
808.28	217.58
808.60	217.58
808.92	217.51
809.24	217.60
809.56	217.52
809.88	217.40
810.20	217.39
810.52	217.44
810.84	217.39
811.16	217.34
811.48	217.30
811.80	217.33
812.12	217.33
812.43	217.35
812.75	217.35
813.07	217.29
813.39	217.31
813.71	217.23
814.03	217.20
814.35	217.18
814.67	217.06
814.98	217.02
815.30	217.02
815.62	216.97
815.94	216.83
816.26	216.86
816.58	216.82
816.89	216.85
817.21	216.71
817.53	216.70
817.85	216.73
818.17	216.72
818.48	216.63
818.80	216.61
819.12	216.55
819.44	216.49
819.76	216.44
820.07	216.36
820.39	216.37
820.71	216.36
821.03	216.35
821.34	216.33
821.66	216.36
821.98	216.37
822.30	216.36
822.61	216.47
822.93	216.39
823.25	216.41
823.57	216.34
823.88	216.41
824.20	216.40
824.52	216.41
824.83	216.38
825.15	216.35
825.47	216.33
825.79	216.32
826.10	216.30
826.42	216.29
826.74	216.32
827.05	216.29
827.37	216.29
827.69	216.28
828.00	216.28
828.32	216.25
828.64	216.20
828.95	216.30
829.27	216.23
829.58	216.22
829.90	216.21
830.22	216.21
830.53	216.15
830.85	216.13
831.17	216.06
831.48	216.05
831.80	216.05
832.11	216.03
832.43	216.02
832.75	216.03
833.06	216.15
833.38	216.10
833.69	216.09
834.01	216.09
834.32	216.07
834.64	216.05
834.96	216.05
835.27	216.03
835.59	215.94
835.90	215.92
836.22	215.93
836.53	215.87
836.85	215.85
837.16	216.01
837.48	215.99
837.79	216.05
838.11	216.07
838.42	216.09
838.74	216.11
839.05	216.08
839.37	216.04
839.68	215.89
840.00	215.89
840.31	215.88
840.63	215.86
840.94	215.83
841.26	215.79
841.57	215.79
841.88	215.82
842.20	215.80
842.51	215.77
842.83	215.74
843.14	215.93
843.46	215.90
843.77	215.82
844.08	215.80
844.40	215.74
844.71	215.69
845.03	215.65
845.34	215.63
845.65	215.64
845.97	215.64
846.28	215.66
846.60	215.66
846.91	215.62
847.22	215.60
847.54	215.63
847.85	215.60
848.16	215.54
848.48	215.47
848.79	215.53
849.10	215.53
849.42	215.56
849.73	215.36
850.04	215.39
850.36	215.29
850.67	215.31
850.98	215.30
851.30	215.32
851.61	215.30
851.92	215.31
852.23	215.36
852.55	215.37
852.86	215.37
853.17	215.38
853.49	215.44
853.80	215.46
854.11	215.47
854.42	215.54
854.74	215.52
855.05	215.55
855.36	215.45
855.67	215.46
855.99	215.47
856.30	215.72
856.61	215.69
856.92	215.71
857.23	215.73
857.55	215.72
857.86	215.70
858.17	215.72
858.48	215.69
858.79	215.64
859.11	215.64
859.42	215.62
859.73	215.59
860.04	215.56
860.35	215.52
860.66	215.46
860.98	215.49
861.29	215.52
861.60	215.49
861.91	215.54
862.22	215.54
862.53	215.47
862.84	215.23
863.16	215.26
863.47	215.23
863.78	215.20
864.09	215.23
864.40	215.26
864.71	215.26
865.02	215.30
865.33	215.27
865.64	215.24
865.95	215.25
866.27	215.39
866.58	215.41
866.89	215.44
867.20	215.46
867.51	215.37
867.82	215.37
868.13	215.48
868.44	215.42
868.75	215.48
869.06	215.50
869.37	215.52
869.68	215.49
869.99	215.50
870.30	215.52
870.61	215.52
870.92	215.46
871.23	215.44
871.54	215.47
871.85	215.54
872.16	215.59
872.47	215.58
872.78	215.43
873.09	215.43
873.40	215.39
873.71	215.40
874.02	215.43
874.33	215.39
874.64	215.31
874.95	215.35
875.26	215.26
875.56	215.25
875.87	215.26
876.18	215.26
876.49	215.47
876.80	215.43
877.11	215.39
877.42	215.42
877.73	215.42
878.04	215.37
878.35	215.35
878.66	215.33
878.96	215.34
879.27	215.33
879.58	215.32
879.89	215.27
880.20	215.31
880.51	215.32
880.82	215.33
881.12	215.36
881.43	215.32
881.74	215.32
882.05	215.29
882.36	215.26
882.67	215.26
882.97	215.04
883.28	215.03
883.59	215.04
883.90	215.02
884.21	215.07
884.51	215.07
884.82	215.03
885.13	215.04
885.44	214.99
885.74	214.98
886.05	214.98
886.36	215.04
886.67	214.97
886.98	215.07
887.28	215.09
887.59	215.05
887.90	215.06
888.20	215.03
888.51	215.07
888.82	215.02
889.13	215.02
889.43	215.17
889.74	215.16
890.05	215.15
890.35	215.14
890.66	215.07
890.97	215.05
891.28	215.01
891.58	214.99
891.89	215.00
892.20	214.99
892.50	214.93
892.81	214.93
893.12	214.94
893.42	214.82
893.73	214.83
894.04	214.82
894.34	214.86
894.65	214.86
894.95	214.85
895.26	214.87
895.57	214.98
895.87	214.77
896.18	214.82
896.48	214.84
896.79	214.84
897.10	214.89
897.40	214.90
897.71	214.97
898.01	214.96
898.32	214.99
898.63	215.01
898.93	215.05
899.24	215.04
899.54	215.02
899.85	215.03
900.15	214.99
900.46	215.01
900.76	215.00
901.07	215.01
901.38	214.97
901.68	215.00
901.99	214.90
902.29	214.94
902.60	214.90
902.90	214.88
903.21	214.85
903.51	214.83
903.82	214.87
904.12	214.84
904.43	214.83
904.73	214.84
905.03	214.86
905.34	215.02
905.64	215.02
905.95	215.02
906.25	214.98
906.56	214.97
906.86	214.98
907.17	214.99
907.47	214.99
907.77	215.00
908.08	214.96
908.38	214.99
908.69	214.99
908.99	215.04
909.30	215.07
909.60	215.11
909.90	215.10
910.21	215.04
910.51	215.06
910.81	215.08
911.12	215.08
911.42	215.05
911.73	214.85
912.03	214.84
912.33	214.89
912.64	214.91
912.94	214.91
913.24	214.89
913.55	214.84
913.85	214.81
914.15	214.85
914.46	214.90
914.76	214.87
915.06	214.86
915.37	214.80
915.67	214.78
915.97	214.77
916.27	214.73
916.58	214.74
916.88	214.70
917.18	214.69
917.49	214.84
917.79	214.85
918.09	214.91
918.39	214.98
918.70	214.96
919.00	214.96
919.30	215.06
919.60	215.02
919.91	215.01
920.21	215.04
920.51	215.01
920.81	214.98
921.12	215.00
921.42	214.95
921.72	214.98
922.02	214.96
922.32	215.01
922.63	215.02
922.93	215.10
923.23	215.09
923.53	215.07
923.83	214.89
924.13	214.90
924.44	214.88
924.74	214.89
925.04	214.93
925.34	214.91
925.64	214.80
925.94	214.81
926.24	214.92
926.55	214.91
926.85	214.93
927.15	214.91
927.45	214.90
927.75	214.95
928.05	214.95
928.35	214.96
928.65	214.96
928.95	214.97
929.26	214.89
929.56	214.96
929.86	214.98
930.16	214.99
930.46	214.95
930.76	214.95
931.06	214.87
931.36	214.81
931.66	214.84
931.96	214.86
932.26	214.86
932.56	214.77
932.86	214.78
933.16	214.78
933.46	214.76
933.76	214.75
934.06	214.77
934.36	214.84
934.66	214.81
934.96	214.79
935.26	214.82
935.56	214.85
935.86	214.78
936.16	214.75
936.46	214.77
936.76	214.77
937.06	214.74
937.36	214.75
937.66	214.74
937.96	214.78
938.26	214.75
938.56	214.74
938.86	214.78
939.16	214.82
939.46	214.82
939.76	214.82
940.06	214.82
940.35	214.82
940.65	214.71
940.95	214.75
941.25	214.71
941.55	214.66
941.85	214.63
942.15	214.68
942.45	214.71
942.75	214.68
943.04	214.66
943.34	214.69
943.64	214.68
943.94	214.67
944.24	214.66
944.54	214.67
944.84	214.66
945.13	214.60
945.43	214.56
945.73	214.55
946.03	214.53
946.33	214.51
946.62	214.47
946.92	214.44
947.22	214.44
947.52	214.43
947.82	214.45
948.11	214.43
948.41	214.37
948.71	214.35
949.01	214.36
949.31	214.37
949.60	214.35
949.90	214.37
950.20	214.34
950.50	214.34
950.79	214.32
951.09	214.36
951.39	214.35
951.69	214.35
951.98	214.40
952.28	214.43
952.58	214.43
952.87	214.44
953.17	214.52
953.47	214.51
953.76	214.54
954.06	214.51
954.36	214.49
954.66	214.52
954.95	214.55
955.25	214.57
955.55	214.58
955.84	214.56
956.14	214.58
956.44	214.62
956.73	214.56
957.03	214.57
957.32	214.57
957.62	214.58
957.92	214.61
958.21	214.57
958.51	214.82
958.81	214.86
959.10	214.84
959.40	214.89
959.69	214.88
959.99	214.91
960.29	214.92
960.58	214.90
960.88	214.98
961.17	214.95
961.47	214.97
961.76	214.95
962.06	214.98
962.36	214.94
962.65	214.96
962.95	215.01
963.24	215.00
963.54	215.01
963.83	215.01
964.13	214.98
964.42	214.94
964.72	214.74
965.01	214.74
965.31	214.74
965.60	214.65
965.90	214.79
966.19	214.72
966.49	214.74
966.78	214.75
967.08	214.72
967.37	214.73
967.67	214.68
967.96	214.72
968.26	214.72
968.55	214.75
968.85	214.73
969.14	214.71
969.43	214.72
969.73	214.74
970.02	214.76
970.32	214.78
970.61	214.78
970.91	214.75
971.20	214.71
971.49	214.71
971.79	214.77
972.08	214.64
972.38	214.67
972.67	214.63
972.96	214.66
973.26	214.58
973.55	214.64
973.85	214.64
974.14	214.59
974.43	214.60
974.73	214.55
975.02	214.51
975.31	214.51
975.61	214.51
975.90	214.47
976.19	214.40
976.49	214.39
976.78	214.41
977.07	214.41
977.37	214.44
977.66	214.48
977.95	214.41
978.24	214.44
978.54	214.47
978.83	214.46
979.12	214.46
979.42	214.47
979.71	214.43
980.00	214.45
980.29	214.47
980.59	214.43
980.88	214.48
981.17	214.48
981.46	214.50
981.76	214.51
982.05	214.54
982.34	214.56
982.63	214.58
982.93	214.59
983.22	214.62
983.51	214.60
983.80	214.61
984.09	214.64
984.39	214.62
984.68	214.61
984.97	214.62
985.26	214.63
985.55	214.66
985.85	214.63
986.14	214.66
986.43	214.69
986.72	214.67
987.01	214.62
987.30	214.62
987.59	214.57
987.89	214.53
988.18	214.48
988.47	214.48
988.76	214.44
989.05	214.46
989.34	214.43
989.63	214.49
989.92	214.46
990.22	214.42
990.51	214.40
990.80	214.36
991.09	214.40
991.38	214.44
991.67	214.42
991.96	214.41
992.25	214.38
992.54	214.35
992.83	214.37
993.12	214.39
993.41	214.42
993.70	214.52
993.99	214.58
994.28	214.64
994.58	214.65
994.87	214.68
995.16	214.66
995.45	214.65
995.74	214.61
996.03	214.62
996.32	214.68
996.61	214.75
996.90	214.72
997.19	214.72
997.48	214.72
997.77	214.68
998.06	214.70
998.34	214.71
998.63	214.71
998.92	214.71
999.21	214.74
999.50	214.74
999.79	214.67
1000.08	214.65
1000.37	214.62
1000.66	214.63
1000.95	214.64
1001.24	214.64
1001.53	214.67
1001.82	214.64
1002.11	214.61
1002.40	214.61
1002.68	214.63
1002.97	214.80
1003.26	214.75
1003.55	214.70
1003.84	214.73
1004.13	214.82
1004.42	214.79
1004.71	214.80
1004.99	214.79
1005.28	214.80
1005.57	214.81
1005.86	214.78
1006.15	214.78
1006.44	214.74
1006.72	214.76
1007.01	214.75
1007.30	214.74
1007.59	214.71
1007.88	214.70
1008.17	214.70
1008.45	214.66
1008.74	214.60
1009.03	214.51
1009.32	214.51
1009.60	214.52
1009.89	214.49
1010.18	214.39
1010.47	214.39
1010.76	214.42
1011.04	214.44
1011.33	214.45
1011.62	214.47
1011.91	214.47
1012.19	214.47
1012.48	214.51
1012.77	214.52
1013.05	214.60
1013.34	214.59
1013.63	214.57
1013.92	214.61
1014.20	214.60
1014.49	214.61
1014.78	214.60
1015.06	214.53
1015.35	214.55
1015.64	214.58
1015.92	214.64
1016.21	214.62
1016.50	214.64
1016.78	214.63
1017.07	214.62
1017.36	214.56
1017.64	214.52
1017.93	214.55
1018.22	214.51
1018.50	214.49
1018.79	214.47
1019.08	214.36
1019.36	214.38
1019.65	214.37
1019.93	214.41
1020.22	214.45
1020.51	214.57
1020.79	214.54
1021.08	213.71
1021.36	214.23
1021.65	214.35
1021.94	214.20
1022.22	214.80
1022.51	213.77
1022.79	215.39
1023.08	215.00
1023.36	217.13
1023.65	213.72
>>>>>End Processed Spectral Data<<<<<
