SpectraSuite Data File
++++++++++++++++++++++++++++++++++++
Date: Tue Jan 29 16:57:28 EST 2013
User: group
Dark Spectrum Present: No
Reference Spectrum Present: No
Number of Sampled Component Spectra: 1
Spectrometers: USB2E7196
Integration Time (usec): 65000 (USB2E7196)
Spectra Averaged: 100 (USB2E7196)
Boxcar Smoothing: 10 (USB2E7196)
Correct for Electrical Dark: No (USB2E7196)
Strobe/Lamp Enabled: No (USB2E7196)
Correct for Detector Non-linearity: No (USB2E7196)
Correct for Stray Light: No (USB2E7196)
Number of Pixels in Processed Spectrum: 2048
>>>>>Begin Processed Spectral Data<<<<<
339.09	0.00
339.48	201.32
339.86	202.46
340.24	204.07
340.63	205.47
341.01	209.87
341.39	208.28
341.78	209.75
342.16	211.22
342.54	210.75
342.93	200.60
343.31	210.77
343.69	211.33
344.07	211.77
344.46	212.24
344.84	212.67
345.22	212.86
345.60	213.14
345.99	213.36
346.37	213.50
346.75	213.66
347.13	213.73
347.52	213.80
347.90	213.93
348.28	214.01
348.66	214.11
349.05	214.08
349.43	214.14
349.81	214.21
350.19	214.28
350.57	214.37
350.96	214.49
351.34	214.58
351.72	214.68
352.10	214.81
352.48	214.86
352.87	214.93
353.25	215.00
353.63	215.07
354.01	215.10
354.39	215.19
354.77	215.28
355.15	215.42
355.54	215.46
355.92	215.45
356.30	215.52
356.68	215.71
357.06	215.80
357.44	215.82
357.82	215.88
358.20	215.94
358.58	215.96
358.97	216.03
359.35	216.13
359.73	216.20
360.11	216.28
360.49	216.35
360.87	216.37
361.25	216.44
361.63	216.55
362.01	216.65
362.39	216.65
362.77	216.69
363.15	216.70
363.53	216.76
363.91	216.79
364.29	216.81
364.67	216.62
365.05	216.58
365.43	216.63
365.81	216.66
366.19	216.76
366.57	216.83
366.95	216.82
367.33	216.77
367.71	216.75
368.09	216.78
368.47	216.77
368.85	216.76
369.23	216.77
369.61	216.69
369.99	216.69
370.37	216.72
370.75	216.80
371.13	216.72
371.51	216.68
371.89	216.68
372.27	216.64
372.65	216.64
373.03	216.65
373.41	216.62
373.78	216.55
374.16	216.41
374.54	216.33
374.92	216.25
375.30	216.22
375.68	216.17
376.06	216.14
376.44	216.05
376.82	216.04
377.19	216.01
377.57	215.96
377.95	215.87
378.33	215.77
378.71	215.58
379.09	215.57
379.47	215.51
379.84	215.42
380.22	215.38
380.60	215.27
380.98	215.26
381.36	215.19
381.73	215.13
382.11	215.13
382.49	215.12
382.87	215.07
383.25	215.02
383.62	215.20
384.00	215.12
384.38	215.13
384.76	215.14
385.13	215.17
385.51	215.12
385.89	215.05
386.27	215.01
386.64	215.03
387.02	214.97
387.40	214.96
387.78	214.97
388.15	214.94
388.53	214.93
388.91	214.88
389.29	214.82
389.66	214.87
390.04	214.79
390.42	214.77
390.79	214.79
391.17	214.78
391.55	214.56
391.92	214.56
392.30	214.54
392.68	214.46
393.05	214.43
393.43	214.45
393.81	214.48
394.18	214.47
394.56	214.48
394.94	214.55
395.31	214.53
395.69	214.60
396.06	214.64
396.44	214.69
396.82	214.69
397.19	214.85
397.57	214.85
397.95	214.95
398.32	214.93
398.70	214.96
399.07	215.01
399.45	215.06
399.82	215.13
400.20	215.17
400.58	215.24
400.95	215.23
401.33	215.37
401.70	215.57
402.08	215.68
402.45	215.77
402.83	215.89
403.20	216.05
403.58	216.15
403.95	216.28
404.33	216.43
404.71	216.57
405.08	216.83
405.46	216.98
405.83	217.19
406.21	217.39
406.58	217.63
406.96	217.88
407.33	218.14
407.70	218.46
408.08	218.94
408.45	219.30
408.83	219.69
409.20	220.00
409.58	220.28
409.95	220.75
410.33	221.23
410.70	221.69
411.08	222.24
411.45	222.83
411.82	223.42
412.20	224.08
412.57	224.95
412.95	225.53
413.32	226.38
413.69	227.22
414.07	228.12
414.44	229.12
414.82	230.14
415.19	231.33
415.56	232.52
415.94	233.68
416.31	235.11
416.68	236.55
417.06	238.15
417.43	239.73
417.81	241.47
418.18	243.28
418.55	245.21
418.93	247.26
419.30	249.36
419.67	251.58
420.04	253.91
420.42	256.29
420.79	259.15
421.16	261.93
421.54	264.86
421.91	267.85
422.28	270.98
422.66	274.31
423.03	277.53
423.40	280.89
423.77	284.52
424.15	288.19
424.52	292.01
424.89	296.20
425.26	300.31
425.64	304.21
426.01	308.51
426.38	313.01
426.75	317.57
427.13	322.32
427.50	327.37
427.87	332.60
428.24	337.77
428.61	342.72
428.99	348.27
429.36	354.32
429.73	360.30
430.10	366.21
430.47	372.30
430.85	378.69
431.22	385.38
431.59	392.49
431.96	399.37
432.33	406.91
432.70	414.21
433.08	422.80
433.45	430.94
433.82	438.99
434.19	447.93
434.56	456.62
434.93	465.01
435.30	473.33
435.68	482.54
436.05	491.67
436.42	500.66
436.79	508.88
437.16	517.68
437.53	527.03
437.90	536.21
438.27	545.28
438.64	554.52
439.01	563.19
439.38	570.85
439.75	578.20
440.13	586.64
440.50	594.60
440.87	601.02
441.24	607.67
441.61	615.09
441.98	620.56
442.35	626.98
442.72	633.33
443.09	639.37
443.46	643.15
443.83	645.68
444.20	647.88
444.57	651.09
444.94	652.59
445.31	654.08
445.68	655.50
446.05	656.12
446.42	655.45
446.79	654.54
447.16	653.47
447.53	652.73
447.90	649.51
448.27	646.26
448.64	641.68
449.01	638.39
449.37	632.52
449.74	626.80
450.11	619.86
450.48	612.46
450.85	604.98
451.22	598.48
451.59	592.28
451.96	586.43
452.33	578.49
452.70	571.34
453.07	562.76
453.43	554.12
453.80	545.73
454.17	537.61
454.54	529.98
454.91	521.76
455.28	513.70
455.65	506.16
456.02	498.57
456.38	492.11
456.75	484.10
457.12	477.38
457.49	470.83
457.86	464.62
458.23	459.19
458.59	453.18
458.96	447.08
459.33	441.67
459.70	436.24
460.07	431.92
460.43	426.95
460.80	422.33
461.17	418.21
461.54	413.96
461.91	409.92
462.27	405.69
462.64	402.22
463.01	398.45
463.38	394.74
463.74	391.09
464.11	387.83
464.48	385.02
464.85	381.93
465.21	379.46
465.58	376.76
465.95	373.61
466.32	371.04
466.68	368.40
467.05	365.82
467.42	363.25
467.78	360.58
468.15	358.04
468.52	356.14
468.88	353.70
469.25	351.50
469.62	349.69
469.98	347.74
470.35	345.89
470.72	344.17
471.08	342.33
471.45	340.74
471.82	339.24
472.18	337.52
472.55	336.30
472.92	334.88
473.28	333.66
473.65	332.44
474.02	331.28
474.38	330.37
474.75	329.61
475.11	328.80
475.48	328.18
475.85	327.67
476.21	327.16
476.58	326.78
476.94	326.51
477.31	326.18
477.67	325.96
478.04	325.81
478.41	325.74
478.77	325.89
479.14	325.83
479.50	325.96
479.87	326.22
480.23	326.50
480.60	326.77
480.96	327.02
481.33	327.65
481.69	328.21
482.06	328.74
482.42	329.21
482.79	329.80
483.15	330.59
483.52	331.52
483.88	332.38
484.25	333.32
484.61	334.32
484.98	335.36
485.34	336.64
485.71	337.99
486.07	339.43
486.44	340.75
486.80	342.34
487.17	344.02
487.53	345.91
487.90	347.80
488.26	349.80
488.62	351.98
488.99	354.07
489.35	356.29
489.72	358.71
490.08	361.25
490.44	363.79
490.81	366.48
491.17	369.15
491.54	372.16
491.90	375.19
492.26	378.46
492.63	381.83
492.99	385.29
493.36	388.96
493.72	392.84
494.08	396.83
494.45	401.11
494.81	405.44
495.17	409.81
495.54	414.51
495.90	419.29
496.26	424.19
496.63	429.31
496.99	434.71
497.35	440.27
497.72	446.06
498.08	451.99
498.44	458.08
498.80	464.52
499.17	470.90
499.53	477.57
499.89	484.47
500.26	491.42
500.62	498.46
500.98	505.81
501.34	513.22
501.71	520.89
502.07	528.65
502.43	536.60
502.79	544.72
503.16	553.02
503.52	561.57
503.88	570.26
504.24	579.17
504.60	588.19
504.97	597.34
505.33	606.52
505.69	616.30
506.05	626.14
506.41	635.97
506.78	646.07
507.14	656.31
507.50	666.71
507.86	677.39
508.22	688.14
508.59	698.73
508.95	709.75
509.31	721.00
509.67	732.41
510.03	743.73
510.39	755.43
510.75	767.19
511.12	779.03
511.48	791.02
511.84	803.26
512.20	815.42
512.56	827.99
512.92	840.79
513.28	853.42
513.64	866.15
514.00	878.96
514.37	891.85
514.73	904.91
515.09	917.91
515.45	930.83
515.81	943.85
516.17	957.30
516.53	970.53
516.89	983.57
517.25	996.76
517.61	1010.28
517.97	1023.65
518.33	1036.81
518.69	1050.37
519.05	1064.13
519.41	1077.71
519.77	1091.63
520.13	1104.88
520.49	1118.03
520.85	1131.48
521.21	1144.72
521.57	1158.33
521.93	1171.31
522.29	1184.99
522.65	1198.53
523.01	1212.17
523.37	1225.38
523.73	1238.71
524.09	1251.92
524.45	1265.51
524.81	1278.99
525.17	1292.48
525.53	1305.61
525.89	1318.99
526.25	1332.11
526.61	1345.02
526.97	1358.13
527.33	1371.21
527.68	1384.78
528.04	1398.25
528.40	1411.28
528.76	1424.72
529.12	1437.65
529.48	1451.01
529.84	1463.40
530.20	1476.27
530.56	1488.74
530.91	1502.03
531.27	1514.83
531.63	1527.45
531.99	1540.16
532.35	1552.31
532.71	1564.63
533.07	1577.70
533.42	1590.17
533.78	1602.37
534.14	1614.35
534.50	1625.66
534.86	1637.18
535.21	1648.07
535.57	1659.74
535.93	1670.92
536.29	1681.94
536.65	1693.42
537.00	1704.58
537.36	1715.99
537.72	1726.85
538.08	1738.39
538.44	1749.36
538.79	1760.57
539.15	1771.68
539.51	1782.68
539.87	1794.22
540.22	1805.11
540.58	1816.05
540.94	1826.83
541.29	1837.30
541.65	1847.30
542.01	1857.90
542.37	1868.06
542.72	1878.24
543.08	1888.09
543.44	1898.81
543.79	1908.15
544.15	1917.70
544.51	1927.70
544.87	1937.55
545.22	1946.91
545.58	1955.86
545.94	1964.76
546.29	1973.31
546.65	1981.66
547.01	1989.79
547.36	1997.40
547.72	2005.19
548.07	2012.70
548.43	2020.41
548.79	2028.11
549.14	2036.13
549.50	2044.61
549.86	2052.51
550.21	2059.94
550.57	2067.78
550.92	2074.54
551.28	2082.25
551.64	2089.48
551.99	2096.86
552.35	2104.16
552.70	2111.04
553.06	2117.64
553.41	2123.99
553.77	2130.51
554.13	2137.05
554.48	2143.92
554.84	2150.99
555.19	2157.58
555.55	2164.00
555.90	2170.26
556.26	2177.17
556.61	2183.36
556.97	2188.21
557.32	2193.95
557.68	2200.54
558.03	2206.08
558.39	2211.60
558.74	2217.52
559.10	2223.00
559.45	2228.58
559.81	2234.13
560.16	2239.59
560.52	2245.48
560.87	2251.79
561.23	2257.51
561.58	2263.94
561.94	2269.19
562.29	2273.78
562.64	2279.64
563.00	2285.43
563.35	2290.83
563.71	2296.42
564.06	2302.00
564.42	2307.84
564.77	2312.84
565.12	2317.97
565.48	2322.87
565.83	2327.96
566.19	2333.03
566.54	2338.26
566.89	2342.78
567.25	2347.06
567.60	2352.73
567.96	2357.60
568.31	2362.02
568.66	2366.21
569.02	2370.08
569.37	2373.78
569.72	2378.17
570.08	2381.42
570.43	2384.33
570.78	2387.43
571.14	2389.69
571.49	2392.81
571.84	2396.17
572.20	2399.01
572.55	2401.69
572.90	2403.97
573.26	2406.72
573.61	2409.29
573.96	2411.39
574.31	2413.31
574.67	2415.02
575.02	2415.61
575.37	2417.07
575.72	2417.58
576.08	2418.85
576.43	2418.75
576.78	2418.97
577.13	2420.24
577.49	2421.48
577.84	2422.33
578.19	2423.33
578.54	2423.72
578.90	2423.84
579.25	2423.52
579.60	2423.04
579.95	2422.05
580.30	2421.88
580.66	2420.97
581.01	2419.12
581.36	2416.36
581.71	2414.61
582.06	2413.39
582.42	2412.26
582.77	2409.70
583.12	2407.84
583.47	2406.15
583.82	2405.42
584.17	2403.94
584.53	2401.74
584.88	2399.34
585.23	2397.18
585.58	2394.75
585.93	2392.76
586.28	2390.61
586.63	2388.02
586.98	2385.74
587.34	2383.69
587.69	2380.86
588.04	2378.62
588.39	2377.07
588.74	2374.57
589.09	2371.62
589.44	2368.02
589.79	2365.33
590.14	2363.19
590.49	2360.26
590.84	2356.27
591.19	2352.86
591.54	2349.63
591.89	2345.36
592.25	2342.06
592.60	2337.74
592.95	2333.54
593.30	2329.29
593.65	2324.69
594.00	2320.18
594.35	2317.12
594.70	2312.42
595.05	2308.10
595.40	2302.55
595.75	2296.49
596.10	2292.76
596.45	2288.01
596.80	2283.52
597.15	2278.40
597.50	2272.46
597.85	2267.53
598.19	2262.45
598.54	2256.53
598.89	2251.12
599.24	2246.44
599.59	2240.31
599.94	2234.28
600.29	2228.10
600.64	2222.02
600.99	2215.18
601.34	2209.52
601.69	2202.47
602.04	2195.94
602.39	2189.06
602.74	2182.90
603.08	2177.32
603.43	2170.85
603.78	2164.01
604.13	2156.83
604.48	2149.49
604.83	2143.30
605.18	2137.07
605.53	2130.23
605.87	2123.35
606.22	2116.67
606.57	2108.84
606.92	2100.81
607.27	2093.98
607.62	2087.50
607.96	2080.77
608.31	2074.40
608.66	2066.81
609.01	2059.19
609.36	2052.07
609.70	2044.58
610.05	2036.81
610.40	2028.47
610.75	2020.03
611.10	2012.24
611.44	2003.39
611.79	1994.66
612.14	1984.88
612.49	1974.06
612.83	1964.58
613.18	1955.25
613.53	1945.77
613.88	1936.18
614.22	1927.49
614.57	1917.69
614.92	1907.18
615.27	1896.52
615.61	1886.34
615.96	1876.69
616.31	1867.15
616.65	1857.68
617.00	1848.04
617.35	1838.51
617.70	1828.97
618.04	1819.20
618.39	1809.11
618.74	1799.70
619.08	1789.97
619.43	1781.37
619.78	1773.37
620.12	1764.93
620.47	1755.65
620.82	1745.44
621.16	1735.74
621.51	1726.00
621.85	1716.41
622.20	1706.22
622.55	1696.13
622.89	1686.28
623.24	1676.61
623.59	1666.90
623.93	1657.04
624.28	1647.31
624.62	1637.35
624.97	1627.19
625.32	1617.39
625.66	1608.62
626.01	1599.92
626.35	1590.87
626.70	1580.85
627.04	1570.96
627.39	1560.85
627.73	1551.70
628.08	1543.01
628.43	1533.73
628.77	1524.68
629.12	1515.84
629.46	1508.13
629.81	1499.85
630.15	1490.69
630.50	1481.00
630.84	1470.69
631.19	1460.98
631.53	1451.90
631.88	1441.87
632.22	1432.06
632.57	1422.78
632.91	1412.85
633.26	1403.14
633.60	1393.69
633.95	1384.63
634.29	1375.14
634.64	1366.04
634.98	1356.09
635.32	1347.00
635.67	1338.59
636.01	1329.37
636.36	1319.85
636.70	1310.51
637.05	1301.23
637.39	1292.55
637.73	1284.19
638.08	1276.73
638.42	1268.58
638.77	1259.84
639.11	1251.85
639.45	1244.25
639.80	1236.03
640.14	1227.43
640.49	1218.76
640.83	1210.05
641.17	1201.85
641.52	1193.94
641.86	1185.53
642.20	1177.80
642.55	1169.17
642.89	1160.39
643.23	1151.91
643.58	1143.81
643.92	1134.92
644.26	1126.37
644.61	1117.89
644.95	1109.15
645.29	1100.10
645.64	1091.12
645.98	1082.73
646.32	1074.84
646.66	1066.38
647.01	1058.12
647.35	1050.09
647.69	1041.97
648.04	1033.93
648.38	1025.32
648.72	1016.66
649.06	1008.26
649.41	1000.17
649.75	992.42
650.09	984.79
650.43	976.90
650.78	968.72
651.12	960.99
651.46	953.61
651.80	946.45
652.14	939.21
652.49	931.76
652.83	924.58
653.17	916.91
653.51	909.35
653.85	902.26
654.20	895.10
654.54	887.83
654.88	880.57
655.22	873.35
655.56	866.33
655.90	859.61
656.25	852.96
656.59	846.22
656.93	839.26
657.27	832.15
657.61	825.10
657.95	818.99
658.29	813.08
658.64	807.00
658.98	800.60
659.32	794.11
659.66	787.97
660.00	781.64
660.34	775.58
660.68	769.57
661.02	763.16
661.36	757.12
661.70	751.26
662.05	745.66
662.39	740.12
662.73	734.73
663.07	729.38
663.41	723.88
663.75	718.04
664.09	712.33
664.43	706.87
664.77	701.70
665.11	695.96
665.45	690.17
665.79	684.36
666.13	678.75
666.47	673.36
666.81	667.83
667.15	662.42
667.49	657.35
667.83	652.12
668.17	646.98
668.51	641.95
668.85	637.06
669.19	632.22
669.53	627.28
669.87	622.21
670.21	617.36
670.55	612.68
670.89	608.33
671.23	603.97
671.57	599.58
671.91	595.28
672.25	591.05
672.58	586.89
672.92	582.90
673.26	578.96
673.60	574.97
673.94	571.25
674.28	567.68
674.62	563.90
674.96	560.13
675.30	556.59
675.64	552.92
675.97	549.27
676.31	545.63
676.65	542.03
676.99	538.63
677.33	534.82
677.67	531.18
678.01	527.34
678.34	523.81
678.68	520.26
679.02	516.60
679.36	512.95
679.70	509.31
680.04	505.75
680.37	502.22
680.71	498.91
681.05	495.64
681.39	492.32
681.73	489.14
682.06	486.07
682.40	482.94
682.74	479.76
683.08	476.56
683.42	473.31
683.75	470.23
684.09	467.14
684.43	464.38
684.77	461.42
685.10	458.50
685.44	455.48
685.78	452.60
686.12	449.84
686.45	447.13
686.79	444.44
687.13	441.88
687.46	439.29
687.80	436.59
688.14	433.79
688.48	431.10
688.81	428.42
689.15	425.82
689.49	423.19
689.82	420.60
690.16	417.99
690.50	415.53
690.83	413.09
691.17	410.55
691.51	408.02
691.84	405.68
692.18	403.44
692.52	401.21
692.85	399.06
693.19	396.91
693.52	394.69
693.86	392.49
694.20	390.28
694.53	388.06
694.87	385.84
695.21	383.68
695.54	381.53
695.88	379.33
696.21	377.09
696.55	374.96
696.88	372.88
697.22	370.88
697.56	368.99
697.89	367.05
698.23	365.29
698.56	363.51
698.90	361.77
699.23	359.91
699.57	358.05
699.90	356.13
700.24	354.22
700.58	352.39
700.91	350.66
701.25	349.05
701.58	347.45
701.92	345.88
702.25	344.23
702.59	342.56
702.92	340.97
703.26	339.43
703.59	337.91
703.93	336.62
704.26	335.19
704.60	333.64
704.93	332.11
705.26	330.54
705.60	329.04
705.93	327.48
706.27	326.09
706.60	324.82
706.94	323.61
707.27	322.25
707.61	320.94
707.94	319.61
708.27	318.13
708.61	316.64
708.94	315.23
709.28	313.94
709.61	312.73
709.94	311.56
710.28	310.29
710.61	309.11
710.95	307.74
711.28	306.65
711.61	305.46
711.95	304.34
712.28	303.14
712.61	301.92
712.95	300.83
713.28	299.82
713.61	298.62
713.95	297.47
714.28	296.42
714.61	295.38
714.95	294.35
715.28	293.25
715.61	292.23
715.95	291.22
716.28	290.23
716.61	289.23
716.95	288.19
717.28	287.28
717.61	286.31
717.94	285.38
718.28	284.30
718.61	283.41
718.94	282.49
719.27	281.64
719.61	280.81
719.94	279.96
720.27	278.92
720.60	278.07
720.94	277.20
721.27	276.46
721.60	275.72
721.93	274.93
722.27	274.31
722.60	273.64
722.93	272.93
723.26	272.24
723.59	271.51
723.93	270.88
724.26	270.21
724.59	269.49
724.92	268.86
725.25	268.33
725.59	267.71
725.92	267.19
726.25	266.57
726.58	266.00
726.91	265.36
727.24	264.85
727.57	264.27
727.91	263.64
728.24	263.06
728.57	262.43
728.90	261.88
729.23	261.26
729.56	260.81
729.89	260.29
730.22	259.73
730.55	259.20
730.89	258.67
731.22	258.11
731.55	257.63
731.88	257.08
732.21	256.51
732.54	256.04
732.87	255.48
733.20	255.03
733.53	254.53
733.86	254.08
734.19	253.55
734.52	253.14
734.85	252.84
735.18	252.36
735.51	252.02
735.84	251.62
736.17	251.21
736.50	250.64
736.83	250.46
737.16	250.05
737.49	249.69
737.82	249.21
738.15	248.82
738.48	248.44
738.81	248.01
739.14	247.58
739.47	247.16
739.80	246.76
740.13	246.37
740.46	245.95
740.79	245.52
741.12	245.14
741.45	244.75
741.78	244.29
742.11	243.99
742.44	243.58
742.77	243.24
743.10	242.87
743.43	242.55
743.75	241.94
744.08	241.90
744.41	241.51
744.74	241.17
745.07	240.83
745.40	240.52
745.73	240.30
746.06	239.98
746.39	239.64
746.71	239.31
747.04	238.99
747.37	238.68
747.70	238.42
748.03	238.14
748.36	237.86
748.68	237.56
749.01	237.24
749.34	236.96
749.67	236.67
750.00	236.44
750.33	236.30
750.65	236.06
750.98	235.52
751.31	235.27
751.64	235.06
751.97	234.91
752.29	234.63
752.62	234.31
752.95	234.08
753.28	233.84
753.60	233.61
753.93	233.44
754.26	233.21
754.59	232.95
754.91	232.72
755.24	232.46
755.57	232.23
755.90	231.97
756.22	231.72
756.55	231.47
756.88	231.20
757.20	230.87
757.53	230.64
757.86	230.42
758.19	230.22
758.51	230.01
758.84	229.69
759.17	229.49
759.49	229.31
759.82	229.19
760.15	229.00
760.47	228.80
760.80	228.54
761.13	228.42
761.45	228.22
761.78	228.03
762.11	227.89
762.43	227.67
762.76	227.51
763.08	227.36
763.41	227.17
763.74	227.02
764.06	226.87
764.39	226.65
764.71	226.52
765.04	226.37
765.37	226.22
765.69	226.09
766.02	225.94
766.34	225.78
766.67	225.59
767.00	225.53
767.32	225.51
767.65	225.51
767.97	225.33
768.30	225.25
768.62	225.10
768.95	224.97
769.27	224.88
769.60	224.78
769.92	224.62
770.25	224.46
770.57	224.33
770.90	224.24
771.22	224.11
771.55	223.99
771.87	223.89
772.20	223.75
772.52	223.80
772.85	223.92
773.17	223.79
773.50	223.66
773.82	223.49
774.15	223.31
774.47	223.08
774.80	222.93
775.12	222.81
775.45	222.73
775.77	222.61
776.09	222.51
776.42	222.45
776.74	222.45
777.07	222.39
777.39	222.28
777.72	222.16
778.04	222.12
778.36	222.03
778.69	221.93
779.01	221.86
779.33	221.60
779.66	221.26
779.98	221.17
780.31	221.09
780.63	221.08
780.95	221.00
781.28	220.88
781.60	220.82
781.92	220.72
782.25	220.64
782.57	220.58
782.89	220.47
783.22	220.37
783.54	220.23
783.86	220.14
784.19	220.07
784.51	220.04
784.83	219.89
785.16	219.77
785.48	219.70
785.80	219.66
786.12	219.59
786.45	219.57
786.77	219.53
787.09	219.50
787.42	219.38
787.74	219.31
788.06	219.32
788.38	219.24
788.71	219.17
789.03	219.11
789.35	219.08
789.67	219.02
789.99	218.96
790.32	218.90
790.64	218.87
790.96	219.00
791.28	218.91
791.61	218.87
791.93	218.85
792.25	218.79
792.57	218.89
792.89	218.82
793.21	218.77
793.54	218.72
793.86	218.63
794.18	218.60
794.50	218.55
794.82	218.47
795.14	218.46
795.47	218.47
795.79	218.42
796.11	218.31
796.43	218.27
796.75	218.24
797.07	218.19
797.39	218.15
797.71	217.95
798.04	217.89
798.36	217.89
798.68	217.84
799.00	217.81
799.32	217.64
799.64	217.62
799.96	217.57
800.28	217.55
800.60	217.49
800.92	217.43
801.24	217.37
801.56	217.35
801.89	217.28
802.21	217.26
802.53	217.22
802.85	217.25
803.17	217.34
803.49	217.25
803.81	217.21
804.13	217.21
804.45	217.16
804.77	217.16
805.09	217.14
805.41	217.13
805.73	217.04
806.05	216.99
806.37	216.93
806.69	216.89
807.01	216.85
807.33	216.85
807.65	216.79
807.97	216.90
808.28	216.86
808.60	216.83
808.92	216.80
809.24	216.88
809.56	216.79
809.88	216.69
810.20	216.70
810.52	216.70
810.84	216.62
811.16	216.56
811.48	216.53
811.80	216.55
812.12	216.47
812.43	216.51
812.75	216.49
813.07	216.50
813.39	216.48
813.71	216.42
814.03	216.37
814.35	216.34
814.67	216.18
814.98	216.13
815.30	216.10
815.62	216.03
815.94	215.87
816.26	215.87
816.58	215.77
816.89	215.73
817.21	215.67
817.53	215.67
817.85	215.63
818.17	215.60
818.48	215.52
818.80	215.56
819.12	215.50
819.44	215.45
819.76	215.35
820.07	215.35
820.39	215.32
820.71	215.33
821.03	215.28
821.34	215.27
821.66	215.28
821.98	215.30
822.30	215.24
822.61	215.36
822.93	215.31
823.25	215.32
823.57	215.30
823.88	215.29
824.20	215.28
824.52	215.34
824.83	215.36
825.15	215.31
825.47	215.28
825.79	215.29
826.10	215.27
826.42	215.26
826.74	215.24
827.05	215.25
827.37	215.24
827.69	215.25
828.00	215.26
828.32	215.23
828.64	215.17
828.95	215.31
829.27	215.25
829.58	215.26
829.90	215.29
830.22	215.31
830.53	215.28
830.85	215.24
831.17	215.15
831.48	215.12
831.80	215.13
832.11	215.13
832.43	215.08
832.75	215.05
833.06	215.19
833.38	215.14
833.69	215.11
834.01	215.11
834.32	215.10
834.64	215.07
834.96	215.08
835.27	215.06
835.59	214.98
835.90	214.92
836.22	214.86
836.53	214.83
836.85	214.79
837.16	214.99
837.48	215.00
837.79	215.06
838.11	215.05
838.42	215.02
838.74	215.03
839.05	214.99
839.37	214.98
839.68	214.86
840.00	214.83
840.31	214.84
840.63	214.82
840.94	214.77
841.26	214.72
841.57	214.69
841.88	214.71
842.20	214.68
842.51	214.64
842.83	214.65
843.14	214.80
843.46	214.80
843.77	214.66
844.08	214.61
844.40	214.54
844.71	214.52
845.03	214.48
845.34	214.41
845.65	214.42
845.97	214.45
846.28	214.45
846.60	214.47
846.91	214.42
847.22	214.44
847.54	214.49
847.85	214.49
848.16	214.49
848.48	214.46
848.79	214.51
849.10	214.54
849.42	214.55
849.73	214.35
850.04	214.32
850.36	214.26
850.67	214.31
850.98	214.31
851.30	214.33
851.61	214.40
851.92	214.40
852.23	214.47
852.55	214.46
852.86	214.44
853.17	214.44
853.49	214.51
853.80	214.52
854.11	214.50
854.42	214.55
854.74	214.53
855.05	214.54
855.36	214.48
855.67	214.47
855.99	214.50
856.30	214.79
856.61	214.83
856.92	214.80
857.23	214.78
857.55	214.75
857.86	214.73
858.17	214.71
858.48	214.68
858.79	214.62
859.11	214.63
859.42	214.62
859.73	214.58
860.04	214.57
860.35	214.49
860.66	214.44
860.98	214.40
861.29	214.42
861.60	214.39
861.91	214.44
862.22	214.38
862.53	214.31
862.84	214.01
863.16	214.03
863.47	214.04
863.78	214.04
864.09	214.04
864.40	214.05
864.71	214.06
865.02	214.08
865.33	214.09
865.64	214.06
865.95	214.09
866.27	214.25
866.58	214.22
866.89	214.25
867.20	214.27
867.51	214.25
867.82	214.20
868.13	214.27
868.44	214.22
868.75	214.30
869.06	214.31
869.37	214.33
869.68	214.27
869.99	214.29
870.30	214.29
870.61	214.33
870.92	214.27
871.23	214.23
871.54	214.25
871.85	214.28
872.16	214.31
872.47	214.27
872.78	214.15
873.09	214.18
873.40	214.17
873.71	214.18
874.02	214.17
874.33	214.19
874.64	214.15
874.95	214.20
875.26	214.10
875.56	214.11
875.87	214.11
876.18	214.09
876.49	214.27
876.80	214.26
877.11	214.23
877.42	214.24
877.73	214.25
878.04	214.22
878.35	214.20
878.66	214.17
878.96	214.15
879.27	214.12
879.58	214.06
879.89	214.02
880.20	214.06
880.51	214.07
880.82	214.04
881.12	214.06
881.43	213.98
881.74	214.00
882.05	213.96
882.36	214.01
882.67	214.01
882.97	213.75
883.28	213.73
883.59	213.69
883.90	213.71
884.21	213.74
884.51	213.70
884.82	213.69
885.13	213.72
885.44	213.72
885.74	213.74
886.05	213.74
886.36	213.75
886.67	213.69
886.98	213.78
887.28	213.80
887.59	213.77
887.90	213.74
888.20	213.76
888.51	213.82
888.82	213.76
889.13	213.79
889.43	214.03
889.74	213.99
890.05	214.02
890.35	214.00
890.66	213.98
890.97	213.99
891.28	213.98
891.58	213.96
891.89	213.98
892.20	213.92
892.50	213.92
892.81	213.93
893.12	213.95
893.42	213.84
893.73	213.83
894.04	213.84
894.34	213.91
894.65	213.88
894.95	213.83
895.26	213.82
895.57	213.87
895.87	213.68
896.18	213.74
896.48	213.72
896.79	213.72
897.10	213.75
897.40	213.77
897.71	213.77
898.01	213.74
898.32	213.79
898.63	213.80
898.93	213.84
899.24	213.85
899.54	213.82
899.85	213.83
900.15	213.82
900.46	213.78
900.76	213.77
901.07	213.75
901.38	213.77
901.68	213.81
901.99	213.72
902.29	213.70
902.60	213.66
902.90	213.66
903.21	213.69
903.51	213.65
903.82	213.68
904.12	213.68
904.43	213.71
904.73	213.66
905.03	213.72
905.34	213.92
905.64	213.92
905.95	213.90
906.25	213.92
906.56	213.94
906.86	213.99
907.17	213.95
907.47	213.98
907.77	213.94
908.08	213.91
908.38	213.91
908.69	213.94
908.99	213.98
909.30	214.00
909.60	213.97
909.90	213.98
910.21	213.94
910.51	213.93
910.81	213.93
911.12	213.92
911.42	213.92
911.73	213.68
912.03	213.69
912.33	213.74
912.64	213.74
912.94	213.72
913.24	213.66
913.55	213.68
913.85	213.68
914.15	213.72
914.46	213.74
914.76	213.73
915.06	213.70
915.37	213.65
915.67	213.61
915.97	213.62
916.27	213.59
916.58	213.59
916.88	213.53
917.18	213.47
917.49	213.64
917.79	213.59
918.09	213.63
918.39	213.69
918.70	213.69
919.00	213.67
919.30	213.75
919.60	213.74
919.91	213.73
920.21	213.75
920.51	213.69
920.81	213.69
921.12	213.72
921.42	213.73
921.72	213.77
922.02	213.81
922.32	213.83
922.63	213.86
922.93	213.94
923.23	214.00
923.53	214.00
923.83	213.85
924.13	213.88
924.44	213.83
924.74	213.82
925.04	213.86
925.34	213.87
925.64	213.79
925.94	213.80
926.24	213.91
926.55	213.88
926.85	213.90
927.15	213.89
927.45	213.87
927.75	213.89
928.05	213.87
928.35	213.83
928.65	213.85
928.95	213.83
929.26	213.74
929.56	213.78
929.86	213.83
930.16	213.81
930.46	213.82
930.76	213.86
931.06	213.79
931.36	213.71
931.66	213.71
931.96	213.73
932.26	213.73
932.56	213.61
932.86	213.59
933.16	213.61
933.46	213.57
933.76	213.53
934.06	213.57
934.36	213.68
934.66	213.70
934.96	213.67
935.26	213.71
935.56	213.74
935.86	213.67
936.16	213.64
936.46	213.66
936.76	213.64
937.06	213.58
937.36	213.61
937.66	213.63
937.96	213.62
938.26	213.59
938.56	213.59
938.86	213.63
939.16	213.70
939.46	213.71
939.76	213.75
940.06	213.74
940.35	213.70
940.65	213.58
940.95	213.60
941.25	213.56
941.55	213.50
941.85	213.53
942.15	213.60
942.45	213.65
942.75	213.65
943.04	213.65
943.34	213.71
943.64	213.67
943.94	213.64
944.24	213.60
944.54	213.61
944.84	213.62
945.13	213.60
945.43	213.54
945.73	213.55
946.03	213.54
946.33	213.54
946.62	213.50
946.92	213.50
947.22	213.53
947.52	213.56
947.82	213.61
948.11	213.57
948.41	213.52
948.71	213.45
949.01	213.45
949.31	213.47
949.60	213.45
949.90	213.50
950.20	213.50
950.50	213.55
950.79	213.52
951.09	213.51
951.39	213.51
951.69	213.52
951.98	213.55
952.28	213.57
952.58	213.59
952.87	213.58
953.17	213.58
953.47	213.56
953.76	213.55
954.06	213.51
954.36	213.48
954.66	213.49
954.95	213.55
955.25	213.58
955.55	213.57
955.84	213.54
956.14	213.55
956.44	213.58
956.73	213.54
957.03	213.57
957.32	213.60
957.62	213.58
957.92	213.61
958.21	213.59
958.51	213.81
958.81	213.86
959.10	213.90
959.40	213.98
959.69	213.96
959.99	213.98
960.29	213.98
960.58	213.97
960.88	214.04
961.17	213.99
961.47	213.98
961.76	213.95
962.06	214.00
962.36	213.93
962.65	213.93
962.95	213.92
963.24	213.88
963.54	213.91
963.83	213.94
964.13	213.91
964.42	213.85
964.72	213.67
965.01	213.64
965.31	213.63
965.60	213.56
965.90	213.70
966.19	213.67
966.49	213.69
966.78	213.69
967.08	213.67
967.37	213.71
967.67	213.67
967.96	213.73
968.26	213.72
968.55	213.77
968.85	213.76
969.14	213.75
969.43	213.81
969.73	213.76
970.02	213.71
970.32	213.72
970.61	213.71
970.91	213.66
971.20	213.66
971.49	213.64
971.79	213.69
972.08	213.54
972.38	213.55
972.67	213.52
972.96	213.54
973.26	213.50
973.55	213.59
973.85	213.56
974.14	213.52
974.43	213.53
974.73	213.52
975.02	213.52
975.31	213.56
975.61	213.53
975.90	213.54
976.19	213.58
976.49	213.62
976.78	213.63
977.07	213.63
977.37	213.63
977.66	213.68
977.95	213.63
978.24	213.65
978.54	213.69
978.83	213.69
979.12	213.68
979.42	213.67
979.71	213.60
980.00	213.62
980.29	213.60
980.59	213.54
980.88	213.62
981.17	213.60
981.46	213.60
981.76	213.59
982.05	213.67
982.34	213.68
982.63	213.65
982.93	213.69
983.22	213.76
983.51	213.76
983.80	213.75
984.09	213.80
984.39	213.75
984.68	213.74
984.97	213.73
985.26	213.74
985.55	213.75
985.85	213.71
986.14	213.75
986.43	213.81
986.72	213.80
987.01	213.73
987.30	213.73
987.59	213.70
987.89	213.74
988.18	213.61
988.47	213.57
988.76	213.58
989.05	213.55
989.34	213.49
989.63	213.51
989.92	213.51
990.22	213.44
990.51	213.46
990.80	213.41
991.09	213.43
991.38	213.44
991.67	213.43
991.96	213.41
992.25	213.40
992.54	213.35
992.83	213.35
993.12	213.34
993.41	213.38
993.70	213.49
993.99	213.46
994.28	213.53
994.58	213.57
994.87	213.54
995.16	213.52
995.45	213.50
995.74	213.48
996.03	213.50
996.32	213.54
996.61	213.62
996.90	213.63
997.19	213.63
997.48	213.61
997.77	213.63
998.06	213.64
998.34	213.62
998.63	213.63
998.92	213.65
999.21	213.68
999.50	213.68
999.79	213.58
1000.08	213.61
1000.37	213.59
1000.66	213.55
1000.95	213.61
1001.24	213.60
1001.53	213.67
1001.82	213.64
1002.11	213.62
1002.40	213.64
1002.68	213.68
1002.97	213.84
1003.26	213.81
1003.55	213.82
1003.84	213.80
1004.13	213.87
1004.42	213.84
1004.71	213.86
1004.99	213.83
1005.28	213.88
1005.57	213.83
1005.86	213.85
1006.15	213.84
1006.44	213.82
1006.72	213.88
1007.01	213.84
1007.30	213.86
1007.59	213.82
1007.88	213.83
1008.17	213.82
1008.45	213.78
1008.74	213.68
1009.03	213.58
1009.32	213.58
1009.60	213.56
1009.89	213.57
1010.18	213.47
1010.47	213.50
1010.76	213.48
1011.04	213.52
1011.33	213.51
1011.62	213.57
1011.91	213.56
1012.19	213.61
1012.48	213.62
1012.77	213.60
1013.05	213.68
1013.34	213.69
1013.63	213.65
1013.92	213.66
1014.20	213.65
1014.49	213.65
1014.78	213.68
1015.06	213.62
1015.35	213.61
1015.64	213.63
1015.92	213.65
1016.21	213.68
1016.50	213.69
1016.78	213.69
1017.07	213.70
1017.36	213.65
1017.64	213.60
1017.93	213.64
1018.22	213.57
1018.50	213.57
1018.79	213.56
1019.08	213.47
1019.36	213.47
1019.65	213.48
1019.93	213.56
1020.22	213.58
1020.51	213.67
1020.79	213.64
1021.08	213.08
1021.36	213.34
1021.65	213.67
1021.94	213.32
1022.22	213.46
1022.51	213.26
1022.79	215.08
1023.08	213.78
1023.36	215.47
1023.65	213.13
>>>>>End Processed Spectral Data<<<<<
