SpectraSuite Data File
++++++++++++++++++++++++++++++++++++
Date: Tue Jan 29 16:14:31 EST 2013
User: group
Dark Spectrum Present: No
Reference Spectrum Present: No
Number of Sampled Component Spectra: 1
Spectrometers: USB2E7196
Integration Time (usec): 65000 (USB2E7196)
Spectra Averaged: 100 (USB2E7196)
Boxcar Smoothing: 10 (USB2E7196)
Correct for Electrical Dark: No (USB2E7196)
Strobe/Lamp Enabled: No (USB2E7196)
Correct for Detector Non-linearity: No (USB2E7196)
Correct for Stray Light: No (USB2E7196)
Number of Pixels in Processed Spectrum: 2048
>>>>>Begin Processed Spectral Data<<<<<
339.09	0.00
339.48	202.51
339.86	204.17
340.24	205.25
340.63	206.84
341.01	211.60
341.39	209.23
341.78	210.84
342.16	212.88
342.54	212.51
342.93	201.78
343.31	211.97
343.69	212.52
344.07	212.96
344.46	213.41
344.84	213.82
345.22	213.99
345.60	214.23
345.99	214.45
346.37	214.58
346.75	214.70
347.13	214.82
347.52	214.92
347.90	215.06
348.28	215.08
348.66	215.17
349.05	215.15
349.43	215.27
349.81	215.37
350.19	215.40
350.57	215.51
350.96	215.57
351.34	215.69
351.72	215.79
352.10	215.92
352.48	216.01
352.87	216.06
353.25	216.11
353.63	216.21
354.01	216.29
354.39	216.36
354.77	216.45
355.15	216.57
355.54	216.61
355.92	216.61
356.30	216.73
356.68	216.93
357.06	216.99
357.44	217.03
357.82	217.07
358.20	217.19
358.58	217.24
358.97	217.32
359.35	217.41
359.73	217.50
360.11	217.57
360.49	217.65
360.87	217.67
361.25	217.73
361.63	217.84
362.01	217.89
362.39	217.92
362.77	217.97
363.15	217.98
363.53	218.00
363.91	218.04
364.29	218.07
364.67	217.89
365.05	217.92
365.43	217.93
365.81	217.94
366.19	218.00
366.57	218.07
366.95	218.08
367.33	218.01
367.71	218.02
368.09	218.02
368.47	218.00
368.85	218.00
369.23	218.05
369.61	217.97
369.99	218.00
370.37	218.00
370.75	218.05
371.13	217.99
371.51	217.96
371.89	217.92
372.27	217.80
372.65	217.78
373.03	217.73
373.41	217.70
373.78	217.67
374.16	217.55
374.54	217.45
374.92	217.37
375.30	217.33
375.68	217.23
376.06	217.20
376.44	217.16
376.82	217.13
377.19	217.07
377.57	217.00
377.95	216.86
378.33	216.77
378.71	216.62
379.09	216.59
379.47	216.55
379.84	216.51
380.22	216.50
380.60	216.43
380.98	216.39
381.36	216.32
381.73	216.22
382.11	216.21
382.49	216.16
382.87	216.11
383.25	216.09
383.62	216.30
384.00	216.24
384.38	216.22
384.76	216.24
385.13	216.28
385.51	216.25
385.89	216.22
386.27	216.22
386.64	216.23
387.02	216.20
387.40	216.18
387.78	216.14
388.15	216.15
388.53	216.12
388.91	216.08
389.29	216.08
389.66	216.13
390.04	216.08
390.42	216.10
390.79	216.07
391.17	216.06
391.55	215.81
391.92	215.78
392.30	215.75
392.68	215.69
393.05	215.64
393.43	215.66
393.81	215.67
394.18	215.66
394.56	215.66
394.94	215.69
395.31	215.67
395.69	215.76
396.06	215.79
396.44	215.83
396.82	215.85
397.19	215.99
397.57	216.00
397.95	216.09
398.32	216.07
398.70	216.08
399.07	216.14
399.45	216.20
399.82	216.28
400.20	216.34
400.58	216.40
400.95	216.38
401.33	216.51
401.70	216.73
402.08	216.82
402.45	216.88
402.83	217.03
403.20	217.14
403.58	217.18
403.95	217.32
404.33	217.48
404.71	217.63
405.08	217.87
405.46	218.02
405.83	218.16
406.21	218.36
406.58	218.61
406.96	218.82
407.33	219.04
407.70	219.33
408.08	219.74
408.45	220.06
408.83	220.46
409.20	220.75
409.58	221.01
409.95	221.42
410.33	221.88
410.70	222.27
411.08	222.80
411.45	223.37
411.82	223.91
412.20	224.57
412.57	225.35
412.95	225.86
413.32	226.67
413.69	227.48
414.07	228.33
414.44	229.26
414.82	230.29
415.19	231.43
415.56	232.58
415.94	233.72
416.31	235.10
416.68	236.48
417.06	238.04
417.43	239.50
417.81	241.21
418.18	242.95
418.55	244.84
418.93	246.81
419.30	248.85
419.67	251.03
420.04	253.21
420.42	255.52
420.79	258.25
421.16	260.93
421.54	263.72
421.91	266.65
422.28	269.68
422.66	272.83
423.03	275.98
423.40	279.18
423.77	282.65
424.15	286.17
424.52	289.85
424.89	293.88
425.26	297.85
425.64	301.61
426.01	305.73
426.38	310.06
426.75	314.43
427.13	318.96
427.50	323.75
427.87	328.78
428.24	333.79
428.61	338.61
428.99	343.97
429.36	349.80
429.73	355.51
430.10	361.19
430.47	367.07
430.85	373.16
431.22	379.69
431.59	386.57
431.96	393.19
432.33	400.43
432.70	407.45
433.08	415.70
433.45	423.48
433.82	431.26
434.19	439.83
434.56	448.31
434.93	456.41
435.30	464.40
435.68	473.19
436.05	481.86
436.42	490.49
436.79	498.33
437.16	506.78
437.53	515.78
437.90	524.54
438.27	533.15
438.64	542.04
439.01	550.26
439.38	557.58
439.75	564.64
440.13	572.74
440.50	580.43
440.87	586.64
441.24	593.05
441.61	600.15
441.98	605.35
442.35	611.43
442.72	617.52
443.09	623.38
443.46	627.02
443.83	629.42
444.20	631.47
444.57	634.48
444.94	635.90
445.31	637.21
445.68	638.61
446.05	639.25
446.42	638.53
446.79	637.62
447.16	636.57
447.53	635.82
447.90	632.63
448.27	629.32
448.64	624.83
449.01	621.63
449.37	615.85
449.74	610.38
450.11	603.67
450.48	596.53
450.85	589.25
451.22	583.00
451.59	577.07
451.96	571.51
452.33	563.97
452.70	557.08
453.07	548.90
453.43	540.57
453.80	532.53
454.17	524.81
454.54	517.46
454.91	509.59
455.28	501.89
455.65	494.74
456.02	487.56
456.38	481.46
456.75	473.89
457.12	467.58
457.49	461.30
457.86	455.34
458.23	450.16
458.59	444.50
458.96	438.73
459.33	433.67
459.70	428.48
460.07	424.41
460.43	419.76
460.80	415.35
461.17	411.55
461.54	407.56
461.91	403.71
462.27	399.78
462.64	396.44
463.01	392.85
463.38	389.33
463.74	385.79
464.11	382.65
464.48	379.93
464.85	376.96
465.21	374.63
465.58	372.11
465.95	369.07
466.32	366.54
466.68	364.03
467.05	361.55
467.42	359.09
467.78	356.49
468.15	354.01
468.52	352.22
468.88	349.80
469.25	347.67
469.62	345.91
469.98	344.08
470.35	342.37
470.72	340.76
471.08	338.99
471.45	337.60
471.82	336.18
472.18	334.52
472.55	333.35
472.92	332.03
473.28	330.91
473.65	329.81
474.02	328.76
474.38	327.93
474.75	327.20
475.11	326.45
475.48	325.87
475.85	325.37
476.21	324.94
476.58	324.61
476.94	324.40
477.31	324.13
477.67	323.91
478.04	323.77
478.41	323.69
478.77	323.89
479.14	323.81
479.50	323.97
479.87	324.32
480.23	324.72
480.60	324.94
480.96	325.23
481.33	325.89
481.69	326.47
482.06	327.02
482.42	327.51
482.79	328.10
483.15	328.92
483.52	329.95
483.88	330.80
484.25	331.75
484.61	332.74
484.98	333.78
485.34	335.08
485.71	336.46
486.07	337.92
486.44	339.27
486.80	340.90
487.17	342.51
487.53	344.33
487.90	346.15
488.26	348.18
488.62	350.28
488.99	352.30
489.35	354.49
489.72	356.82
490.08	359.38
490.44	361.92
490.81	364.63
491.17	367.30
491.54	370.24
491.90	373.25
492.26	376.50
492.63	379.94
492.99	383.43
493.36	387.11
493.72	390.98
494.08	394.93
494.45	399.10
494.81	403.49
495.17	407.94
495.54	412.60
495.90	417.43
496.26	422.37
496.63	427.51
496.99	432.88
497.35	438.47
497.72	444.16
498.08	450.11
498.44	456.15
498.80	462.55
499.17	469.04
499.53	475.74
499.89	482.57
500.26	489.51
500.62	496.55
500.98	503.95
501.34	511.36
501.71	519.08
502.07	526.85
502.43	534.79
502.79	542.80
503.16	551.18
503.52	559.70
503.88	568.35
504.24	577.25
504.60	586.26
504.97	595.38
505.33	604.67
505.69	614.43
506.05	624.29
506.41	634.07
506.78	644.11
507.14	654.31
507.50	664.69
507.86	675.29
508.22	685.99
508.59	696.50
508.95	707.47
509.31	718.64
509.67	730.01
510.03	741.38
510.39	753.06
510.75	764.82
511.12	776.65
511.48	788.66
511.84	800.82
512.20	813.03
512.56	825.58
512.92	838.29
513.28	850.76
513.64	863.27
514.00	875.97
514.37	888.68
514.73	901.66
515.09	914.50
515.45	927.26
515.81	940.09
516.17	953.36
516.53	966.47
516.89	979.47
517.25	992.47
517.61	1005.74
517.97	1018.93
518.33	1031.76
518.69	1045.09
519.05	1058.61
519.41	1072.07
519.77	1085.73
520.13	1098.80
520.49	1111.65
520.85	1124.89
521.21	1137.97
521.57	1151.46
521.93	1164.41
522.29	1177.84
522.65	1191.23
523.01	1204.51
523.37	1217.59
523.73	1230.47
524.09	1243.28
524.45	1256.39
524.81	1269.60
525.17	1282.73
525.53	1295.62
525.89	1308.68
526.25	1321.49
526.61	1334.00
526.97	1346.64
527.33	1359.30
527.68	1372.35
528.04	1385.60
528.40	1398.39
528.76	1411.49
529.12	1423.91
529.48	1436.81
529.84	1448.82
530.20	1461.32
530.56	1473.64
530.91	1486.48
531.27	1499.14
531.63	1511.66
531.99	1524.08
532.35	1536.04
532.71	1548.19
533.07	1560.76
533.42	1572.72
533.78	1584.52
534.14	1596.31
534.50	1607.30
534.86	1618.57
535.21	1629.21
535.57	1640.24
535.93	1651.28
536.29	1662.16
536.65	1673.38
537.00	1684.09
537.36	1695.08
537.72	1705.62
538.08	1716.62
538.44	1727.26
538.79	1737.94
539.15	1748.46
539.51	1758.76
539.87	1769.68
540.22	1780.14
540.58	1790.68
540.94	1801.21
541.29	1811.21
541.65	1820.66
542.01	1830.97
542.37	1840.72
542.72	1850.60
543.08	1860.17
543.44	1870.24
543.79	1879.10
544.15	1888.20
544.51	1897.97
544.87	1907.56
545.22	1916.61
545.58	1925.22
545.94	1933.77
546.29	1941.96
546.65	1950.10
547.01	1958.12
547.36	1965.60
547.72	1972.88
548.07	1980.27
548.43	1987.76
548.79	1995.40
549.14	2003.25
549.50	2011.44
549.86	2019.06
550.21	2026.23
550.57	2033.57
550.92	2040.05
551.28	2047.36
551.64	2054.37
551.99	2061.56
552.35	2068.55
552.70	2075.09
553.06	2081.54
553.41	2087.73
553.77	2094.06
554.13	2100.20
554.48	2107.13
554.84	2113.92
555.19	2120.33
555.55	2126.64
555.90	2132.79
556.26	2139.47
556.61	2145.31
556.97	2149.86
557.32	2155.47
557.68	2161.74
558.03	2167.45
558.39	2172.69
558.74	2178.42
559.10	2183.85
559.45	2189.21
559.81	2194.61
560.16	2200.24
560.52	2206.20
560.87	2212.46
561.23	2218.52
561.58	2225.14
561.94	2230.23
562.29	2235.12
562.64	2241.29
563.00	2246.85
563.35	2252.46
563.71	2258.17
564.06	2263.89
564.42	2270.01
564.77	2275.23
565.12	2280.35
565.48	2285.65
565.83	2291.35
566.19	2297.07
566.54	2302.60
566.89	2307.30
567.25	2311.86
567.60	2317.56
567.96	2322.59
568.31	2327.16
568.66	2331.32
569.02	2335.23
569.37	2338.95
569.72	2343.38
570.08	2346.99
570.43	2350.10
570.78	2353.23
571.14	2355.95
571.49	2359.04
571.84	2362.55
572.20	2365.32
572.55	2368.56
572.90	2370.76
573.26	2373.58
573.61	2376.00
573.96	2378.36
574.31	2380.38
574.67	2382.53
575.02	2383.43
575.37	2385.03
575.72	2385.97
576.08	2387.74
576.43	2388.06
576.78	2388.87
577.13	2390.61
577.49	2391.78
577.84	2393.12
578.19	2394.69
578.54	2395.41
578.90	2396.48
579.25	2396.69
579.60	2396.89
579.95	2396.31
580.30	2396.74
580.66	2396.21
581.01	2394.63
581.36	2392.42
581.71	2391.32
582.06	2390.25
582.42	2389.47
582.77	2387.43
583.12	2386.06
583.47	2384.91
583.82	2384.58
584.17	2383.66
584.53	2381.65
584.88	2379.82
585.23	2378.06
585.58	2375.87
585.93	2373.76
586.28	2371.69
586.63	2369.44
586.98	2367.46
587.34	2365.76
587.69	2363.53
588.04	2361.69
588.39	2360.38
588.74	2358.09
589.09	2355.65
589.44	2352.71
589.79	2350.47
590.14	2348.71
590.49	2345.95
590.84	2342.24
591.19	2339.29
591.54	2335.92
591.89	2331.99
592.25	2328.88
592.60	2324.76
592.95	2320.79
593.30	2316.78
593.65	2312.64
594.00	2308.39
594.35	2305.40
594.70	2300.73
595.05	2296.27
595.40	2290.82
595.75	2285.48
596.10	2281.88
596.45	2277.01
596.80	2272.69
597.15	2267.60
597.50	2261.84
597.85	2256.84
598.19	2251.73
598.54	2246.02
598.89	2241.08
599.24	2236.69
599.59	2230.66
599.94	2225.10
600.29	2219.34
600.64	2213.76
600.99	2207.15
601.34	2201.71
601.69	2194.70
602.04	2188.59
602.39	2182.14
602.74	2176.31
603.08	2170.85
603.43	2164.33
603.78	2157.72
604.13	2150.58
604.48	2143.37
604.83	2137.46
605.18	2131.39
605.53	2124.48
605.87	2117.59
606.22	2110.85
606.57	2103.05
606.92	2095.19
607.27	2088.42
607.62	2081.81
607.96	2074.72
608.31	2068.31
608.66	2060.65
609.01	2053.21
609.36	2046.12
609.70	2038.47
610.05	2030.75
610.40	2022.57
610.75	2014.58
611.10	2006.99
611.44	1998.36
611.79	1989.88
612.14	1979.80
612.49	1969.42
612.83	1960.32
613.18	1951.21
613.53	1941.93
613.88	1932.39
614.22	1923.96
614.57	1913.96
614.92	1903.45
615.27	1893.29
615.61	1883.27
615.96	1873.64
616.31	1864.13
616.65	1854.91
617.00	1845.03
617.35	1835.56
617.70	1825.93
618.04	1815.91
618.39	1805.67
618.74	1795.99
619.08	1786.36
619.43	1777.81
619.78	1769.54
620.12	1760.89
620.47	1751.07
620.82	1740.79
621.16	1731.13
621.51	1721.15
621.85	1711.50
622.20	1701.04
622.55	1690.58
622.89	1680.73
623.24	1671.01
623.59	1661.36
623.93	1651.12
624.28	1641.54
624.62	1631.19
624.97	1620.84
625.32	1611.08
625.66	1602.30
626.01	1593.53
626.35	1584.05
626.70	1573.95
627.04	1563.82
627.39	1553.62
627.73	1544.43
628.08	1535.48
628.43	1525.97
628.77	1516.77
629.12	1507.99
629.46	1500.21
629.81	1491.92
630.15	1482.36
630.50	1472.49
630.84	1462.01
631.19	1452.07
631.53	1442.69
631.88	1432.62
632.22	1422.74
632.57	1413.37
632.91	1403.22
633.26	1393.35
633.60	1383.84
633.95	1374.50
634.29	1365.12
634.64	1355.84
634.98	1346.03
635.32	1336.75
635.67	1328.23
636.01	1318.95
636.36	1309.05
636.70	1299.56
637.05	1290.27
637.39	1281.26
637.73	1272.69
638.08	1265.18
638.42	1257.07
638.77	1248.41
639.11	1240.30
639.45	1232.42
639.80	1223.90
640.14	1215.20
640.49	1206.48
640.83	1197.73
641.17	1189.70
641.52	1181.50
641.86	1172.97
642.20	1165.14
642.55	1156.59
642.89	1147.69
643.23	1139.12
643.58	1131.05
643.92	1122.12
644.26	1113.47
644.61	1105.17
644.95	1096.55
645.29	1087.33
645.64	1078.26
645.98	1069.87
646.32	1061.99
646.66	1053.50
647.01	1045.16
647.35	1037.13
647.69	1028.77
648.04	1020.51
648.38	1011.75
648.72	1003.08
649.06	994.74
649.41	986.63
649.75	978.70
650.09	970.87
650.43	962.95
650.78	954.79
651.12	947.21
651.46	939.85
651.80	932.64
652.14	925.31
652.49	917.92
652.83	910.59
653.17	902.91
653.51	895.35
653.85	888.19
654.20	881.00
654.54	873.48
654.88	866.34
655.22	859.24
655.56	852.32
655.90	845.61
656.25	838.98
656.59	832.01
656.93	825.10
657.27	818.08
657.61	811.14
657.95	805.15
658.29	799.30
658.64	793.14
658.98	786.77
659.32	780.32
659.66	774.15
660.00	767.83
660.34	761.85
660.68	755.83
661.02	749.55
661.36	743.74
661.70	738.08
662.05	732.54
662.39	727.15
662.73	721.78
663.07	716.52
663.41	710.97
663.75	705.42
664.09	699.83
664.43	694.48
664.77	689.24
665.11	683.44
665.45	677.53
665.79	671.86
666.13	666.21
666.47	660.80
666.81	655.45
667.15	650.24
667.49	645.11
667.83	639.88
668.17	634.73
668.51	629.68
668.85	624.86
669.19	620.00
669.53	614.97
669.87	609.95
670.21	605.23
670.55	600.64
670.89	596.30
671.23	592.02
671.57	587.70
671.91	583.51
672.25	579.54
672.58	575.47
672.92	571.48
673.26	567.69
673.60	563.92
673.94	560.14
674.28	556.56
674.62	552.91
674.96	549.24
675.30	545.84
675.64	542.26
675.97	538.73
676.31	535.20
676.65	531.69
676.99	528.26
677.33	524.44
677.67	520.83
678.01	517.02
678.34	513.47
678.68	510.06
679.02	506.47
679.36	502.79
679.70	499.28
680.04	495.78
680.37	492.39
680.71	489.14
681.05	486.04
681.39	482.87
681.73	479.73
682.06	476.69
682.40	473.63
682.74	470.45
683.08	467.31
683.42	464.20
683.75	461.25
684.09	458.33
684.43	455.60
684.77	452.75
685.10	449.97
685.44	447.16
685.78	444.29
686.12	441.63
686.45	438.94
686.79	436.33
687.13	433.89
687.46	431.26
687.80	428.60
688.14	425.78
688.48	423.20
688.81	420.55
689.15	418.09
689.49	415.54
689.82	413.05
690.16	410.49
690.50	408.10
690.83	405.67
691.17	403.17
691.51	400.75
691.84	398.57
692.18	396.44
692.52	394.29
692.85	392.18
693.19	390.01
693.52	387.89
693.86	385.70
694.20	383.58
694.53	381.51
694.87	379.35
695.21	377.32
695.54	375.22
695.88	373.14
696.21	370.96
696.55	368.89
696.88	366.88
697.22	364.96
697.56	363.10
697.89	361.32
698.23	359.62
698.56	357.89
698.90	356.13
699.23	354.22
699.57	352.40
699.90	350.62
700.24	348.90
700.58	347.22
700.91	345.62
701.25	344.09
701.58	342.53
701.92	340.98
702.25	339.41
702.59	337.85
702.92	336.36
703.26	334.90
703.59	333.48
703.93	332.30
704.26	330.89
704.60	329.41
704.93	327.92
705.26	326.46
705.60	325.07
705.93	323.59
706.27	322.33
706.60	321.10
706.94	319.85
707.27	318.50
707.61	317.15
707.94	315.82
708.27	314.31
708.61	312.94
708.94	311.61
709.28	310.37
709.61	309.15
709.94	307.96
710.28	306.77
710.61	305.60
710.95	304.21
711.28	303.17
711.61	302.03
711.95	300.93
712.28	299.76
712.61	298.60
712.95	297.59
713.28	296.59
713.61	295.44
713.95	294.33
714.28	293.33
714.61	292.31
714.95	291.35
715.28	290.38
715.61	289.33
715.95	288.39
716.28	287.48
716.61	286.54
716.95	285.58
717.28	284.65
717.61	283.73
717.94	282.83
718.28	281.82
718.61	280.93
718.94	280.07
719.27	279.25
719.61	278.45
719.94	277.61
720.27	276.62
720.60	275.82
720.94	275.06
721.27	274.33
721.60	273.67
721.93	272.92
722.27	272.30
722.60	271.68
722.93	270.99
723.26	270.34
723.59	269.65
723.93	269.08
724.26	268.46
724.59	267.81
724.92	267.23
725.25	266.73
725.59	266.20
725.92	265.70
726.25	265.16
726.58	264.57
726.91	263.98
727.24	263.50
727.57	262.96
727.91	262.33
728.24	261.80
728.57	261.22
728.90	260.69
729.23	260.10
729.56	259.67
729.89	259.14
730.22	258.57
730.55	258.05
730.89	257.47
731.22	256.99
731.55	256.51
731.88	256.01
732.21	255.48
732.54	254.94
732.87	254.42
733.20	253.94
733.53	253.49
733.86	253.06
734.19	252.55
734.52	252.14
734.85	251.89
735.18	251.40
735.51	251.04
735.84	250.65
736.17	250.26
736.50	249.75
736.83	249.63
737.16	249.28
737.49	248.92
737.82	248.55
738.15	248.19
738.48	247.84
738.81	247.46
739.14	247.09
739.47	246.73
739.80	246.37
740.13	246.04
740.46	245.67
740.79	245.30
741.12	244.95
741.45	244.56
741.78	244.13
742.11	243.90
742.44	243.52
742.77	243.21
743.10	242.88
743.43	242.56
743.75	241.98
744.08	241.92
744.41	241.56
744.74	241.23
745.07	240.83
745.40	240.51
745.73	240.28
746.06	239.95
746.39	239.66
746.71	239.33
747.04	238.96
747.37	238.62
747.70	238.34
748.03	238.09
748.36	237.85
748.68	237.57
749.01	237.20
749.34	236.92
749.67	236.64
750.00	236.37
750.33	236.24
750.65	236.01
750.98	235.46
751.31	235.23
751.64	235.01
751.97	234.88
752.29	234.64
752.62	234.29
752.95	234.03
753.28	233.75
753.60	233.50
753.93	233.34
754.26	233.19
754.59	232.93
754.91	232.70
755.24	232.46
755.57	232.23
755.90	232.01
756.22	231.79
756.55	231.56
756.88	231.29
757.20	230.96
757.53	230.71
757.86	230.52
758.19	230.34
758.51	230.14
758.84	229.84
759.17	229.64
759.49	229.51
759.82	229.46
760.15	229.29
760.47	229.14
760.80	228.89
761.13	228.72
761.45	228.54
761.78	228.37
762.11	228.20
762.43	228.01
762.76	227.83
763.08	227.69
763.41	227.54
763.74	227.44
764.06	227.27
764.39	227.10
764.71	226.94
765.04	226.80
765.37	226.63
765.69	226.51
766.02	226.38
766.34	226.20
766.67	226.00
767.00	225.92
767.32	225.88
767.65	225.90
767.97	225.76
768.30	225.63
768.62	225.51
768.95	225.38
769.27	225.25
769.60	225.15
769.92	225.01
770.25	224.84
770.57	224.70
770.90	224.60
771.22	224.50
771.55	224.41
771.87	224.31
772.20	224.19
772.52	224.27
772.85	224.39
773.17	224.32
773.50	224.20
773.82	224.05
774.15	223.86
774.47	223.68
774.80	223.56
775.12	223.45
775.45	223.34
775.77	223.27
776.09	223.21
776.42	223.11
776.74	223.09
777.07	223.01
777.39	222.91
777.72	222.82
778.04	222.77
778.36	222.68
778.69	222.59
779.01	222.55
779.33	222.30
779.66	221.99
779.98	221.83
780.31	221.75
780.63	221.77
780.95	221.73
781.28	221.61
781.60	221.54
781.92	221.47
782.25	221.40
782.57	221.34
782.89	221.26
783.22	221.19
783.54	221.07
783.86	221.03
784.19	220.97
784.51	220.95
784.83	220.88
785.16	220.81
785.48	220.72
785.80	220.67
786.12	220.63
786.45	220.58
786.77	220.57
787.09	220.50
787.42	220.38
787.74	220.34
788.06	220.31
788.38	220.24
788.71	220.20
789.03	220.14
789.35	220.11
789.67	220.03
789.99	219.97
790.32	219.89
790.64	219.85
790.96	220.00
791.28	219.88
791.61	219.79
791.93	219.76
792.25	219.69
792.57	219.76
792.89	219.66
793.21	219.60
793.54	219.57
793.86	219.51
794.18	219.46
794.50	219.33
794.82	219.29
795.14	219.30
795.47	219.31
795.79	219.27
796.11	219.18
796.43	219.16
796.75	219.13
797.07	219.11
797.39	219.08
797.71	218.85
798.04	218.84
798.36	218.82
798.68	218.76
799.00	218.79
799.32	218.67
799.64	218.68
799.96	218.66
800.28	218.64
800.60	218.58
800.92	218.54
801.24	218.53
801.56	218.49
801.89	218.41
802.21	218.37
802.53	218.27
802.85	218.26
803.17	218.33
803.49	218.28
803.81	218.26
804.13	218.24
804.45	218.22
804.77	218.17
805.09	218.15
805.41	218.10
805.73	218.01
806.05	217.94
806.37	217.89
806.69	217.86
807.01	217.81
807.33	217.84
807.65	217.76
807.97	217.83
808.28	217.80
808.60	217.80
808.92	217.74
809.24	217.89
809.56	217.84
809.88	217.72
810.20	217.66
810.52	217.66
810.84	217.59
811.16	217.51
811.48	217.48
811.80	217.51
812.12	217.49
812.43	217.50
812.75	217.47
813.07	217.43
813.39	217.41
813.71	217.38
814.03	217.31
814.35	217.33
814.67	217.25
814.98	217.20
815.30	217.15
815.62	217.11
815.94	216.93
816.26	216.94
816.58	216.91
816.89	216.95
817.21	216.90
817.53	216.87
817.85	216.88
818.17	216.89
818.48	216.83
818.80	216.87
819.12	216.82
819.44	216.77
819.76	216.74
820.07	216.72
820.39	216.67
820.71	216.68
821.03	216.65
821.34	216.58
821.66	216.60
821.98	216.62
822.30	216.61
822.61	216.73
822.93	216.70
823.25	216.67
823.57	216.64
823.88	216.65
824.20	216.63
824.52	216.69
824.83	216.63
825.15	216.59
825.47	216.54
825.79	216.56
826.10	216.56
826.42	216.57
826.74	216.60
827.05	216.58
827.37	216.57
827.69	216.55
828.00	216.54
828.32	216.50
828.64	216.46
828.95	216.56
829.27	216.51
829.58	216.46
829.90	216.48
830.22	216.49
830.53	216.44
830.85	216.41
831.17	216.34
831.48	216.35
831.80	216.29
832.11	216.28
832.43	216.22
832.75	216.21
833.06	216.27
833.38	216.16
833.69	216.17
834.01	216.16
834.32	216.13
834.64	216.13
834.96	216.15
835.27	216.12
835.59	216.03
835.90	215.93
836.22	215.94
836.53	215.89
836.85	215.83
837.16	216.01
837.48	216.04
837.79	216.10
838.11	216.09
838.42	216.13
838.74	216.14
839.05	216.14
839.37	216.11
839.68	215.99
840.00	216.02
840.31	216.03
840.63	216.02
840.94	215.99
841.26	215.95
841.57	215.93
841.88	215.98
842.20	215.94
842.51	215.94
842.83	215.91
843.14	216.09
843.46	216.09
843.77	215.92
844.08	215.88
844.40	215.80
844.71	215.78
845.03	215.76
845.34	215.73
845.65	215.71
845.97	215.71
846.28	215.70
846.60	215.69
846.91	215.64
847.22	215.61
847.54	215.67
847.85	215.68
848.16	215.66
848.48	215.59
848.79	215.66
849.10	215.70
849.42	215.71
849.73	215.52
850.04	215.52
850.36	215.47
850.67	215.48
850.98	215.48
851.30	215.50
851.61	215.47
851.92	215.46
852.23	215.52
852.55	215.56
852.86	215.57
853.17	215.57
853.49	215.63
853.80	215.67
854.11	215.65
854.42	215.68
854.74	215.65
855.05	215.67
855.36	215.57
855.67	215.56
855.99	215.55
856.30	215.77
856.61	215.75
856.92	215.79
857.23	215.81
857.55	215.76
857.86	215.72
858.17	215.78
858.48	215.74
858.79	215.71
859.11	215.70
859.42	215.70
859.73	215.67
860.04	215.67
860.35	215.60
860.66	215.56
860.98	215.55
861.29	215.58
861.60	215.56
861.91	215.62
862.22	215.59
862.53	215.55
862.84	215.34
863.16	215.40
863.47	215.34
863.78	215.30
864.09	215.35
864.40	215.39
864.71	215.36
865.02	215.42
865.33	215.42
865.64	215.38
865.95	215.35
866.27	215.50
866.58	215.46
866.89	215.50
867.20	215.47
867.51	215.40
867.82	215.36
868.13	215.43
868.44	215.36
868.75	215.41
869.06	215.44
869.37	215.46
869.68	215.39
869.99	215.44
870.30	215.47
870.61	215.46
870.92	215.42
871.23	215.42
871.54	215.42
871.85	215.43
872.16	215.43
872.47	215.40
872.78	215.27
873.09	215.30
873.40	215.23
873.71	215.25
874.02	215.30
874.33	215.29
874.64	215.22
874.95	215.25
875.26	215.19
875.56	215.20
875.87	215.18
876.18	215.16
876.49	215.34
876.80	215.31
877.11	215.27
877.42	215.26
877.73	215.26
878.04	215.20
878.35	215.20
878.66	215.22
878.96	215.24
879.27	215.24
879.58	215.19
879.89	215.23
880.20	215.29
880.51	215.28
880.82	215.28
881.12	215.30
881.43	215.27
881.74	215.28
882.05	215.22
882.36	215.22
882.67	215.23
882.97	214.99
883.28	214.97
883.59	214.94
883.90	214.98
884.21	215.02
884.51	215.05
884.82	215.03
885.13	215.02
885.44	215.02
885.74	215.02
886.05	215.02
886.36	214.99
886.67	214.92
886.98	214.99
887.28	215.00
887.59	214.99
887.90	214.99
888.20	214.93
888.51	214.98
888.82	214.94
889.13	214.95
889.43	215.13
889.74	215.12
890.05	215.15
890.35	215.10
890.66	215.04
890.97	214.98
891.28	214.94
891.58	214.97
891.89	214.98
892.20	214.96
892.50	214.95
892.81	214.97
893.12	214.97
893.42	214.88
893.73	214.91
894.04	214.93
894.34	214.94
894.65	214.97
894.95	214.97
895.26	214.97
895.57	215.09
895.87	214.88
896.18	214.89
896.48	214.91
896.79	214.91
897.10	214.97
897.40	215.01
897.71	215.03
898.01	215.00
898.32	214.99
898.63	215.01
898.93	214.98
899.24	215.00
899.54	215.01
899.85	215.02
900.15	214.99
900.46	214.96
900.76	215.01
901.07	215.01
901.38	214.99
901.68	215.04
901.99	214.92
902.29	214.94
902.60	214.94
902.90	214.95
903.21	214.96
903.51	214.90
903.82	214.94
904.12	214.94
904.43	214.95
904.73	214.94
905.03	214.95
905.34	215.17
905.64	215.15
905.95	215.14
906.25	215.09
906.56	215.11
906.86	215.12
907.17	215.09
907.47	215.09
907.77	215.05
908.08	215.05
908.38	215.06
908.69	215.08
908.99	215.12
909.30	215.11
909.60	215.09
909.90	215.12
910.21	215.06
910.51	215.02
910.81	215.02
911.12	215.03
911.42	215.04
911.73	214.82
912.03	214.81
912.33	214.83
912.64	214.86
912.94	214.84
913.24	214.77
913.55	214.73
913.85	214.70
914.15	214.74
914.46	214.74
914.76	214.71
915.06	214.70
915.37	214.64
915.67	214.64
915.97	214.64
916.27	214.60
916.58	214.62
916.88	214.64
917.18	214.61
917.49	214.78
917.79	214.75
918.09	214.82
918.39	214.92
918.70	214.89
919.00	214.91
919.30	215.01
919.60	215.03
919.91	215.02
920.21	215.08
920.51	215.04
920.81	215.03
921.12	215.10
921.42	215.09
921.72	215.13
922.02	215.16
922.32	215.17
922.63	215.18
922.93	215.27
923.23	215.29
923.53	215.28
923.83	215.13
924.13	215.13
924.44	215.10
924.74	215.10
925.04	215.19
925.34	215.17
925.64	215.11
925.94	215.12
926.24	215.25
926.55	215.21
926.85	215.26
927.15	215.24
927.45	215.22
927.75	215.22
928.05	215.21
928.35	215.18
928.65	215.25
928.95	215.27
929.26	215.16
929.56	215.19
929.86	215.21
930.16	215.20
930.46	215.17
930.76	215.17
931.06	215.06
931.36	215.01
931.66	215.03
931.96	215.03
932.26	215.05
932.56	214.94
932.86	214.97
933.16	214.96
933.46	214.94
933.76	214.91
934.06	215.00
934.36	215.07
934.66	215.05
934.96	215.03
935.26	215.06
935.56	215.13
935.86	215.08
936.16	215.05
936.46	215.05
936.76	215.03
937.06	214.99
937.36	215.00
937.66	214.99
937.96	214.98
938.26	214.94
938.56	214.91
938.86	214.92
939.16	214.97
939.46	214.99
939.76	215.02
940.06	215.03
940.35	214.95
940.65	214.86
940.95	214.88
941.25	214.83
941.55	214.81
941.85	214.76
942.15	214.82
942.45	214.89
942.75	214.87
943.04	214.90
943.34	214.95
943.64	214.95
943.94	214.94
944.24	214.93
944.54	214.94
944.84	214.95
945.13	214.93
945.43	214.89
945.73	214.87
946.03	214.82
946.33	214.81
946.62	214.80
946.92	214.77
947.22	214.79
947.52	214.79
947.82	214.81
948.11	214.81
948.41	214.77
948.71	214.71
949.01	214.71
949.31	214.70
949.60	214.71
949.90	214.74
950.20	214.75
950.50	214.76
950.79	214.76
951.09	214.77
951.39	214.79
951.69	214.72
951.98	214.75
952.28	214.80
952.58	214.75
952.87	214.74
953.17	214.79
953.47	214.77
953.76	214.79
954.06	214.73
954.36	214.70
954.66	214.69
954.95	214.75
955.25	214.76
955.55	214.78
955.84	214.71
956.14	214.70
956.44	214.67
956.73	214.64
957.03	214.70
957.32	214.69
957.62	214.67
957.92	214.74
958.21	214.75
958.51	214.97
958.81	215.05
959.10	215.06
959.40	215.12
959.69	215.14
959.99	215.13
960.29	215.13
960.58	215.14
960.88	215.20
961.17	215.16
961.47	215.20
961.76	215.21
962.06	215.28
962.36	215.25
962.65	215.29
962.95	215.29
963.24	215.23
963.54	215.25
963.83	215.26
964.13	215.22
964.42	215.14
964.72	214.96
965.01	214.94
965.31	214.93
965.60	214.86
965.90	214.95
966.19	214.94
966.49	214.95
966.78	214.93
967.08	214.93
967.37	214.91
967.67	214.86
967.96	214.91
968.26	214.92
968.55	214.95
968.85	214.95
969.14	214.97
969.43	214.99
969.73	214.99
970.02	214.98
970.32	214.98
970.61	214.99
970.91	214.92
971.20	214.90
971.49	214.89
971.79	214.92
972.08	214.77
972.38	214.78
972.67	214.73
972.96	214.76
973.26	214.74
973.55	214.81
973.85	214.79
974.14	214.75
974.43	214.75
974.73	214.68
975.02	214.64
975.31	214.62
975.61	214.64
975.90	214.59
976.19	214.57
976.49	214.60
976.78	214.63
977.07	214.64
977.37	214.67
977.66	214.67
977.95	214.65
978.24	214.67
978.54	214.70
978.83	214.74
979.12	214.73
979.42	214.71
979.71	214.65
980.00	214.63
980.29	214.66
980.59	214.57
980.88	214.63
981.17	214.66
981.46	214.64
981.76	214.59
982.05	214.64
982.34	214.66
982.63	214.64
982.93	214.60
983.22	214.65
983.51	214.64
983.80	214.68
984.09	214.71
984.39	214.69
984.68	214.64
984.97	214.65
985.26	214.63
985.55	214.65
985.85	214.63
986.14	214.69
986.43	214.67
986.72	214.69
987.01	214.64
987.30	214.64
987.59	214.65
987.89	214.69
988.18	214.63
988.47	214.60
988.76	214.60
989.05	214.62
989.34	214.57
989.63	214.61
989.92	214.55
990.22	214.53
990.51	214.53
990.80	214.50
991.09	214.50
991.38	214.56
991.67	214.56
991.96	214.55
992.25	214.53
992.54	214.51
992.83	214.56
993.12	214.55
993.41	214.56
993.70	214.63
993.99	214.66
994.28	214.73
994.58	214.78
994.87	214.77
995.16	214.76
995.45	214.76
995.74	214.71
996.03	214.77
996.32	214.78
996.61	214.84
996.90	214.85
997.19	214.84
997.48	214.82
997.77	214.78
998.06	214.79
998.34	214.79
998.63	214.78
998.92	214.75
999.21	214.80
999.50	214.83
999.79	214.75
1000.08	214.72
1000.37	214.70
1000.66	214.66
1000.95	214.74
1001.24	214.77
1001.53	214.79
1001.82	214.81
1002.11	214.77
1002.40	214.77
1002.68	214.82
1002.97	214.98
1003.26	214.96
1003.55	214.93
1003.84	214.94
1004.13	214.99
1004.42	214.96
1004.71	214.98
1004.99	214.95
1005.28	214.98
1005.57	214.93
1005.86	214.92
1006.15	214.91
1006.44	214.87
1006.72	214.88
1007.01	214.82
1007.30	214.78
1007.59	214.81
1007.88	214.77
1008.17	214.76
1008.45	214.72
1008.74	214.61
1009.03	214.54
1009.32	214.57
1009.60	214.61
1009.89	214.58
1010.18	214.51
1010.47	214.53
1010.76	214.53
1011.04	214.56
1011.33	214.55
1011.62	214.59
1011.91	214.62
1012.19	214.61
1012.48	214.64
1012.77	214.65
1013.05	214.78
1013.34	214.80
1013.63	214.76
1013.92	214.77
1014.20	214.78
1014.49	214.80
1014.78	214.83
1015.06	214.74
1015.35	214.73
1015.64	214.75
1015.92	214.79
1016.21	214.78
1016.50	214.78
1016.78	214.79
1017.07	214.80
1017.36	214.77
1017.64	214.72
1017.93	214.73
1018.22	214.76
1018.50	214.74
1018.79	214.73
1019.08	214.59
1019.36	214.60
1019.65	214.58
1019.93	214.67
1020.22	214.66
1020.51	214.75
1020.79	214.74
1021.08	214.66
1021.36	214.37
1021.65	214.83
1021.94	214.31
1022.22	215.06
1022.51	214.23
1022.79	215.79
1023.08	214.72
1023.36	216.59
1023.65	214.34
>>>>>End Processed Spectral Data<<<<<
