SpectraSuite Data File
++++++++++++++++++++++++++++++++++++
Date: Tue Jan 29 16:36:03 EST 2013
User: group
Dark Spectrum Present: No
Reference Spectrum Present: No
Number of Sampled Component Spectra: 1
Spectrometers: USB2E7196
Integration Time (usec): 65000 (USB2E7196)
Spectra Averaged: 100 (USB2E7196)
Boxcar Smoothing: 10 (USB2E7196)
Correct for Electrical Dark: No (USB2E7196)
Strobe/Lamp Enabled: No (USB2E7196)
Correct for Detector Non-linearity: No (USB2E7196)
Correct for Stray Light: No (USB2E7196)
Number of Pixels in Processed Spectrum: 2048
>>>>>Begin Processed Spectral Data<<<<<
339.09	0.00
339.48	202.15
339.86	203.15
340.24	204.36
340.63	206.39
341.01	210.71
341.39	208.48
341.78	210.93
342.16	211.78
342.54	212.18
342.93	201.05
343.31	211.21
343.69	211.73
344.07	212.22
344.46	212.70
344.84	213.08
345.22	213.23
345.60	213.53
345.99	213.72
346.37	213.86
346.75	213.97
347.13	214.04
347.52	214.11
347.90	214.26
348.28	214.30
348.66	214.41
349.05	214.39
349.43	214.45
349.81	214.50
350.19	214.55
350.57	214.63
350.96	214.75
351.34	214.86
351.72	214.96
352.10	215.03
352.48	215.08
352.87	215.18
353.25	215.26
353.63	215.31
354.01	215.35
354.39	215.42
354.77	215.47
355.15	215.59
355.54	215.65
355.92	215.63
356.30	215.68
356.68	215.85
357.06	215.92
357.44	215.95
357.82	216.05
358.20	216.13
358.58	216.17
358.97	216.25
359.35	216.34
359.73	216.45
360.11	216.50
360.49	216.53
360.87	216.55
361.25	216.64
361.63	216.75
362.01	216.83
362.39	216.84
362.77	216.90
363.15	216.92
363.53	216.98
363.91	217.03
364.29	217.07
364.67	216.92
365.05	216.97
365.43	217.00
365.81	217.01
366.19	217.10
366.57	217.19
366.95	217.19
367.33	217.12
367.71	217.14
368.09	217.19
368.47	217.21
368.85	217.20
369.23	217.23
369.61	217.13
369.99	217.18
370.37	217.19
370.75	217.30
371.13	217.26
371.51	217.23
371.89	217.20
372.27	217.20
372.65	217.18
373.03	217.12
373.41	217.10
373.78	217.06
374.16	216.92
374.54	216.85
374.92	216.78
375.30	216.77
375.68	216.65
376.06	216.64
376.44	216.61
376.82	216.56
377.19	216.48
377.57	216.41
377.95	216.30
378.33	216.22
378.71	216.03
379.09	216.00
379.47	215.96
379.84	215.93
380.22	215.88
380.60	215.80
380.98	215.75
381.36	215.70
381.73	215.62
382.11	215.63
382.49	215.56
382.87	215.52
383.25	215.48
383.62	215.68
384.00	215.60
384.38	215.58
384.76	215.60
385.13	215.66
385.51	215.65
385.89	215.59
386.27	215.61
386.64	215.62
387.02	215.55
387.40	215.53
387.78	215.51
388.15	215.48
388.53	215.45
388.91	215.42
389.29	215.39
389.66	215.40
390.04	215.36
390.42	215.38
390.79	215.36
391.17	215.33
391.55	215.11
391.92	215.10
392.30	215.09
392.68	215.04
393.05	214.97
393.43	215.00
393.81	214.99
394.18	214.94
394.56	214.95
394.94	215.00
395.31	214.96
395.69	215.02
396.06	215.03
396.44	215.06
396.82	215.07
397.19	215.21
397.57	215.22
397.95	215.24
398.32	215.23
398.70	215.28
399.07	215.38
399.45	215.40
399.82	215.40
400.20	215.45
400.58	215.52
400.95	215.51
401.33	215.62
401.70	215.86
402.08	215.94
402.45	216.03
402.83	216.16
403.20	216.26
403.58	216.33
403.95	216.52
404.33	216.67
404.71	216.83
405.08	217.08
405.46	217.23
405.83	217.44
406.21	217.67
406.58	217.92
406.96	218.14
407.33	218.41
407.70	218.77
408.08	219.26
408.45	219.61
408.83	220.00
409.20	220.35
409.58	220.59
409.95	221.07
410.33	221.56
410.70	221.99
411.08	222.59
411.45	223.21
411.82	223.77
412.20	224.46
412.57	225.31
412.95	225.88
413.32	226.71
413.69	227.55
414.07	228.43
414.44	229.41
414.82	230.42
415.19	231.65
415.56	232.82
415.94	233.97
416.31	235.37
416.68	236.81
417.06	238.37
417.43	239.92
417.81	241.69
418.18	243.48
418.55	245.45
418.93	247.48
419.30	249.54
419.67	251.77
420.04	254.07
420.42	256.42
420.79	259.24
421.16	262.03
421.54	264.96
421.91	267.94
422.28	271.08
422.66	274.31
423.03	277.52
423.40	280.87
423.77	284.49
424.15	288.18
424.52	292.03
424.89	296.21
425.26	300.34
425.64	304.22
426.01	308.54
426.38	313.03
426.75	317.56
427.13	322.38
427.50	327.37
427.87	332.58
428.24	337.81
428.61	342.81
428.99	348.34
429.36	354.36
429.73	360.31
430.10	366.17
430.47	372.31
430.85	378.66
431.22	385.41
431.59	392.49
431.96	399.31
432.33	406.79
432.70	414.05
433.08	422.57
433.45	430.59
433.82	438.64
434.19	447.57
434.56	456.31
434.93	464.66
435.30	472.96
435.68	482.12
436.05	491.08
436.42	499.99
436.79	508.15
437.16	516.90
437.53	526.11
437.90	535.30
438.27	544.34
438.64	553.52
439.01	562.06
439.38	569.70
439.75	577.07
440.13	585.50
440.50	593.47
440.87	599.89
441.24	606.66
441.61	614.03
441.98	619.33
442.35	625.65
442.72	631.98
443.09	637.98
443.46	641.71
443.83	644.29
444.20	646.49
444.57	649.67
444.94	651.17
445.31	652.64
445.68	654.04
446.05	654.58
446.42	653.83
446.79	652.84
447.16	651.74
447.53	650.95
447.90	647.63
448.27	644.35
448.64	639.70
449.01	636.36
449.37	630.42
449.74	624.79
450.11	617.88
450.48	610.42
450.85	603.02
451.22	596.54
451.59	590.34
451.96	584.48
452.33	576.59
452.70	569.42
453.07	560.94
453.43	552.33
453.80	544.04
454.17	535.99
454.54	528.48
454.91	520.28
455.28	512.30
455.65	504.86
456.02	497.34
456.38	491.01
456.75	483.04
457.12	476.46
457.49	469.94
457.86	463.71
458.23	458.35
458.59	452.39
458.96	446.38
459.33	441.14
459.70	435.79
460.07	431.51
460.43	426.63
460.80	422.00
461.17	417.95
461.54	413.71
461.91	409.72
462.27	405.53
462.64	402.08
463.01	398.27
463.38	394.55
463.74	390.84
464.11	387.58
464.48	384.71
464.85	381.58
465.21	379.10
465.58	376.49
465.95	373.35
466.32	370.72
466.68	368.07
467.05	365.43
467.42	362.87
467.78	360.19
468.15	357.68
468.52	355.78
468.88	353.29
469.25	351.09
469.62	349.27
469.98	347.35
470.35	345.50
470.72	343.81
471.08	342.00
471.45	340.49
471.82	338.98
472.18	337.33
472.55	336.11
472.92	334.71
473.28	333.49
473.65	332.30
474.02	331.18
474.38	330.32
474.75	329.57
475.11	328.72
475.48	328.14
475.85	327.62
476.21	327.14
476.58	326.78
476.94	326.55
477.31	326.27
477.67	325.99
478.04	325.89
478.41	325.82
478.77	326.00
479.14	325.91
479.50	326.08
479.87	326.38
480.23	326.70
480.60	327.00
480.96	327.23
481.33	327.83
481.69	328.37
482.06	328.88
482.42	329.32
482.79	329.95
483.15	330.72
483.52	331.71
483.88	332.62
484.25	333.55
484.61	334.54
484.98	335.56
485.34	336.87
485.71	338.23
486.07	339.67
486.44	340.98
486.80	342.63
487.17	344.26
487.53	346.11
487.90	348.02
488.26	350.05
488.62	352.21
488.99	354.30
489.35	356.49
489.72	358.89
490.08	361.43
490.44	363.99
490.81	366.75
491.17	369.42
491.54	372.44
491.90	375.48
492.26	378.75
492.63	382.18
492.99	385.71
493.36	389.43
493.72	393.32
494.08	397.36
494.45	401.63
494.81	405.95
495.17	410.36
495.54	415.02
495.90	419.80
496.26	424.75
496.63	429.96
496.99	435.39
497.35	440.93
497.72	446.73
498.08	452.66
498.44	458.78
498.80	465.23
499.17	471.71
499.53	478.49
499.89	485.39
500.26	492.42
500.62	499.48
500.98	506.86
501.34	514.35
501.71	522.13
502.07	529.92
502.43	537.98
502.79	546.19
503.16	554.60
503.52	563.23
503.88	571.98
504.24	580.89
504.60	589.95
504.97	599.21
505.33	608.57
505.69	618.38
506.05	628.21
506.41	638.10
506.78	648.14
507.14	658.36
507.50	668.89
507.86	679.60
508.22	690.40
508.59	701.06
508.95	712.21
509.31	723.56
509.67	735.09
510.03	746.46
510.39	758.19
510.75	770.04
511.12	782.03
511.48	794.21
511.84	806.64
512.20	819.04
512.56	831.84
512.92	844.71
513.28	857.51
513.64	870.40
514.00	883.26
514.37	896.31
514.73	909.57
515.09	922.65
515.45	935.58
515.81	948.73
516.17	962.27
516.53	975.59
516.89	988.77
517.25	1001.98
517.61	1015.65
517.97	1029.22
518.33	1042.48
518.69	1056.14
519.05	1069.96
519.41	1083.65
519.77	1097.63
520.13	1111.03
520.49	1124.22
520.85	1137.72
521.21	1151.11
521.57	1164.91
521.93	1178.09
522.29	1191.82
522.65	1205.54
523.01	1219.28
523.37	1232.53
523.73	1245.87
524.09	1259.11
524.45	1272.60
524.81	1286.21
525.17	1299.69
525.53	1312.93
525.89	1326.30
526.25	1339.55
526.61	1352.40
526.97	1365.57
527.33	1378.64
527.68	1392.13
528.04	1405.81
528.40	1419.01
528.76	1432.54
529.12	1445.61
529.48	1459.09
529.84	1471.59
530.20	1484.46
530.56	1497.09
530.91	1510.56
531.27	1523.56
531.63	1536.28
531.99	1549.05
532.35	1561.37
532.71	1573.77
533.07	1586.70
533.42	1599.08
533.78	1611.26
534.14	1623.47
534.50	1634.81
534.86	1646.56
535.21	1657.58
535.57	1669.16
535.93	1680.47
536.29	1691.63
536.65	1703.13
537.00	1714.24
537.36	1725.77
537.72	1736.79
538.08	1748.31
538.44	1759.34
538.79	1770.57
539.15	1781.64
539.51	1792.60
539.87	1804.09
540.22	1815.07
540.58	1826.18
540.94	1837.20
541.29	1847.56
541.65	1857.46
542.01	1868.04
542.37	1878.22
542.72	1888.48
543.08	1898.32
543.44	1908.87
543.79	1918.25
544.15	1927.88
544.51	1937.90
544.87	1947.77
545.22	1957.16
545.58	1966.16
545.94	1975.14
546.29	1983.75
546.65	1992.38
547.01	2000.82
547.36	2008.62
547.72	2016.53
548.07	2024.21
548.43	2032.14
548.79	2040.13
549.14	2048.42
549.50	2057.08
549.86	2065.01
550.21	2072.53
550.57	2080.29
550.92	2087.33
551.28	2094.82
551.64	2102.05
551.99	2109.62
552.35	2116.77
552.70	2123.59
553.06	2130.25
553.41	2136.56
553.77	2143.06
554.13	2149.53
554.48	2156.43
554.84	2163.62
555.19	2170.21
555.55	2176.66
555.90	2183.01
556.26	2189.95
556.61	2196.12
556.97	2200.89
557.32	2206.61
557.68	2213.03
558.03	2218.88
558.39	2224.17
558.74	2230.27
559.10	2235.88
559.45	2241.43
559.81	2247.05
560.16	2252.70
560.52	2258.77
560.87	2265.20
561.23	2271.21
561.58	2277.77
561.94	2282.90
562.29	2287.47
562.64	2293.62
563.00	2299.28
563.35	2304.78
563.71	2310.38
564.06	2316.02
564.42	2321.93
564.77	2327.13
565.12	2332.41
565.48	2337.55
565.83	2343.11
566.19	2348.50
566.54	2353.90
566.89	2358.51
567.25	2363.08
567.60	2368.72
567.96	2373.73
568.31	2378.32
568.66	2382.58
569.02	2386.45
569.37	2390.29
569.72	2394.66
570.08	2398.12
570.43	2401.24
570.78	2404.29
571.14	2406.87
571.49	2409.80
571.84	2413.42
572.20	2416.24
572.55	2419.11
572.90	2421.26
573.26	2423.95
573.61	2426.46
573.96	2428.45
574.31	2430.48
574.67	2432.29
575.02	2433.11
575.37	2434.56
575.72	2435.15
576.08	2436.50
576.43	2436.74
576.78	2437.31
577.13	2438.87
577.49	2439.89
577.84	2440.89
578.19	2442.28
578.54	2442.71
578.90	2443.43
579.25	2443.06
579.60	2442.98
579.95	2442.12
580.30	2442.15
580.66	2441.45
581.01	2439.54
581.36	2437.03
581.71	2435.54
582.06	2434.42
582.42	2433.47
582.77	2431.01
583.12	2429.35
583.47	2427.87
583.82	2427.03
584.17	2425.51
584.53	2423.29
584.88	2421.17
585.23	2419.16
585.58	2416.66
585.93	2414.58
586.28	2412.30
586.63	2409.88
586.98	2407.66
587.34	2405.60
587.69	2403.03
588.04	2400.90
588.39	2399.49
588.74	2397.05
589.09	2394.18
589.44	2390.83
589.79	2388.03
590.14	2386.12
590.49	2383.16
590.84	2379.24
591.19	2375.91
591.54	2372.58
591.89	2368.43
592.25	2365.01
592.60	2360.69
592.95	2356.55
593.30	2352.21
593.65	2347.84
594.00	2343.41
594.35	2340.13
594.70	2335.50
595.05	2330.95
595.40	2325.35
595.75	2319.51
596.10	2315.80
596.45	2310.88
596.80	2306.24
597.15	2301.11
597.50	2295.05
597.85	2290.12
598.19	2284.91
598.54	2279.22
598.89	2273.90
599.24	2269.41
599.59	2263.23
599.94	2257.29
600.29	2251.22
600.64	2245.27
600.99	2238.43
601.34	2232.79
601.69	2225.79
602.04	2219.32
602.39	2212.54
602.74	2206.45
603.08	2200.93
603.43	2194.38
603.78	2187.48
604.13	2180.38
604.48	2173.02
604.83	2166.88
605.18	2160.52
605.53	2153.50
605.87	2146.24
606.22	2139.59
606.57	2131.67
606.92	2123.51
607.27	2116.59
607.62	2109.80
607.96	2102.82
608.31	2096.30
608.66	2088.60
609.01	2080.95
609.36	2073.74
609.70	2066.02
610.05	2058.27
610.40	2049.84
610.75	2041.41
611.10	2033.67
611.44	2024.67
611.79	2016.02
612.14	2006.03
612.49	1995.41
612.83	1986.15
613.18	1976.96
613.53	1967.44
613.88	1957.73
614.22	1949.13
614.57	1939.31
614.92	1928.72
615.27	1918.46
615.61	1908.27
615.96	1898.61
616.31	1888.99
616.65	1879.64
617.00	1869.91
617.35	1860.15
617.70	1850.42
618.04	1840.44
618.39	1830.31
618.74	1820.77
619.08	1811.11
619.43	1802.42
619.78	1794.03
620.12	1785.11
620.47	1775.51
620.82	1765.15
621.16	1755.31
621.51	1745.46
621.85	1735.49
622.20	1725.28
622.55	1714.64
622.89	1704.69
623.24	1694.82
623.59	1684.96
623.93	1674.68
624.28	1664.87
624.62	1654.70
624.97	1644.31
625.32	1634.32
625.66	1625.39
626.01	1616.63
626.35	1607.19
626.70	1597.08
627.04	1587.04
627.39	1577.14
627.73	1567.94
628.08	1559.14
628.43	1549.52
628.77	1540.33
629.12	1531.48
629.46	1523.60
629.81	1515.22
630.15	1505.76
630.50	1495.96
630.84	1485.46
631.19	1475.65
631.53	1466.38
631.88	1456.25
632.22	1446.36
632.57	1437.11
632.91	1426.90
633.26	1416.93
633.60	1407.35
633.95	1398.14
634.29	1388.64
634.64	1379.19
634.98	1369.02
635.32	1359.61
635.67	1351.19
636.01	1341.87
636.36	1332.17
636.70	1322.65
637.05	1313.34
637.39	1304.34
637.73	1295.72
638.08	1288.24
638.42	1280.18
638.77	1271.35
639.11	1263.08
639.45	1255.28
639.80	1246.71
640.14	1238.09
640.49	1229.32
640.83	1220.52
641.17	1212.27
641.52	1204.12
641.86	1195.59
642.20	1187.84
642.55	1179.25
642.89	1170.34
643.23	1161.81
643.58	1153.64
643.92	1144.50
644.26	1135.80
644.61	1127.31
644.95	1118.45
645.29	1109.10
645.64	1099.73
645.98	1091.18
646.32	1083.29
646.66	1074.71
647.01	1066.42
647.35	1058.22
647.69	1049.84
648.04	1041.56
648.38	1032.62
648.72	1023.90
649.06	1015.39
649.41	1007.20
649.75	999.24
650.09	991.48
650.43	983.38
650.78	975.00
651.12	967.30
651.46	959.88
651.80	952.70
652.14	945.45
652.49	937.97
652.83	930.62
653.17	923.02
653.51	915.24
653.85	907.98
654.20	900.71
654.54	893.19
654.88	885.81
655.22	878.50
655.56	871.51
655.90	864.62
656.25	857.94
656.59	850.95
656.93	843.91
657.27	836.63
657.61	829.51
657.95	823.42
658.29	817.46
658.64	811.31
658.98	804.79
659.32	798.19
659.66	791.87
660.00	785.60
660.34	779.40
660.68	773.37
661.02	766.97
661.36	760.96
661.70	755.13
662.05	749.52
662.39	743.99
662.73	738.59
663.07	733.20
663.41	727.49
663.75	721.78
664.09	716.09
664.43	710.63
664.77	705.30
665.11	699.43
665.45	693.46
665.79	687.55
666.13	681.79
666.47	676.24
666.81	670.72
667.15	665.22
667.49	659.96
667.83	654.63
668.17	649.30
668.51	644.11
668.85	639.18
669.19	634.26
669.53	629.19
669.87	623.97
670.21	619.09
670.55	614.40
670.89	609.91
671.23	605.47
671.57	601.02
671.91	596.67
672.25	592.51
672.58	588.31
672.92	584.26
673.26	580.32
673.60	576.45
673.94	572.71
674.28	569.15
674.62	565.44
674.96	561.61
675.30	558.12
675.64	554.46
675.97	550.79
676.31	547.12
676.65	543.54
676.99	540.14
677.33	536.33
677.67	532.66
678.01	528.77
678.34	525.12
678.68	521.58
679.02	517.96
679.36	514.21
679.70	510.62
680.04	506.98
680.37	503.49
680.71	500.14
681.05	496.85
681.39	493.52
681.73	490.29
682.06	487.25
682.40	484.21
682.74	480.99
683.08	477.78
683.42	474.56
683.75	471.52
684.09	468.43
684.43	465.60
684.77	462.61
685.10	459.73
685.44	456.80
685.78	453.83
686.12	451.00
686.45	448.20
686.79	445.46
687.13	442.90
687.46	440.23
687.80	437.46
688.14	434.65
688.48	431.93
688.81	429.23
689.15	426.59
689.49	423.87
689.82	421.30
690.16	418.68
690.50	416.20
690.83	413.66
691.17	411.08
691.51	408.56
691.84	406.27
692.18	404.00
692.52	401.81
692.85	399.67
693.19	397.49
693.52	395.37
693.86	393.12
694.20	390.91
694.53	388.71
694.87	386.48
695.21	384.27
695.54	382.11
695.88	379.93
696.21	377.71
696.55	375.54
696.88	373.44
697.22	371.44
697.56	369.50
697.89	367.62
698.23	365.82
698.56	363.98
698.90	362.21
699.23	360.25
699.57	358.30
699.90	356.34
700.24	354.49
700.58	352.66
700.91	350.99
701.25	349.39
701.58	347.78
701.92	346.18
702.25	344.55
702.59	342.87
702.92	341.32
703.26	339.73
703.59	338.23
703.93	336.93
704.26	335.47
704.60	333.90
704.93	332.39
705.26	330.88
705.60	329.38
705.93	327.84
706.27	326.52
706.60	325.23
706.94	324.00
707.27	322.62
707.61	321.27
707.94	319.89
708.27	318.35
708.61	316.86
708.94	315.46
709.28	314.16
709.61	312.90
709.94	311.69
710.28	310.45
710.61	309.21
710.95	307.78
711.28	306.70
711.61	305.52
711.95	304.37
712.28	303.16
712.61	301.97
712.95	300.85
713.28	299.78
713.61	298.61
713.95	297.44
714.28	296.41
714.61	295.36
714.95	294.30
715.28	293.26
715.61	292.27
715.95	291.26
716.28	290.26
716.61	289.30
716.95	288.25
717.28	287.33
717.61	286.39
717.94	285.48
718.28	284.38
718.61	283.52
718.94	282.57
719.27	281.67
719.61	280.85
719.94	280.00
720.27	279.01
720.60	278.14
720.94	277.32
721.27	276.59
721.60	275.87
721.93	275.15
722.27	274.51
722.60	273.79
722.93	273.07
723.26	272.41
723.59	271.71
723.93	271.06
724.26	270.38
724.59	269.71
724.92	269.10
725.25	268.55
725.59	267.95
725.92	267.45
726.25	266.92
726.58	266.32
726.91	265.71
727.24	265.19
727.57	264.67
727.91	264.07
728.24	263.48
728.57	262.88
728.90	262.35
729.23	261.73
729.56	261.32
729.89	260.76
730.22	260.15
730.55	259.61
730.89	259.04
731.22	258.53
731.55	258.01
731.88	257.45
732.21	256.94
732.54	256.37
732.87	255.80
733.20	255.27
733.53	254.76
733.86	254.29
734.19	253.80
734.52	253.34
734.85	253.06
735.18	252.54
735.51	252.18
735.84	251.71
736.17	251.33
736.50	250.78
736.83	250.67
737.16	250.30
737.49	249.90
737.82	249.53
738.15	249.10
738.48	248.74
738.81	248.35
739.14	247.92
739.47	247.55
739.80	247.18
740.13	246.84
740.46	246.46
740.79	246.06
741.12	245.69
741.45	245.31
741.78	244.84
742.11	244.61
742.44	244.20
742.77	243.87
743.10	243.49
743.43	243.17
743.75	242.58
744.08	242.49
744.41	242.13
744.74	241.77
745.07	241.42
745.40	241.08
745.73	240.84
746.06	240.54
746.39	240.21
746.71	239.86
747.04	239.48
747.37	239.13
747.70	238.87
748.03	238.52
748.36	238.25
748.68	237.92
749.01	237.50
749.34	237.20
749.67	236.91
750.00	236.67
750.33	236.51
750.65	236.22
750.98	235.69
751.31	235.44
751.64	235.23
751.97	235.12
752.29	234.86
752.62	234.51
752.95	234.24
753.28	233.97
753.60	233.75
753.93	233.59
754.26	233.42
754.59	233.11
754.91	232.89
755.24	232.64
755.57	232.39
755.90	232.17
756.22	231.91
756.55	231.67
756.88	231.40
757.20	231.01
757.53	230.76
757.86	230.57
758.19	230.40
758.51	230.17
758.84	229.82
759.17	229.59
759.49	229.45
759.82	229.38
760.15	229.24
760.47	229.03
760.80	228.77
761.13	228.58
761.45	228.41
761.78	228.22
762.11	228.03
762.43	227.86
762.76	227.69
763.08	227.55
763.41	227.41
763.74	227.28
764.06	227.13
764.39	226.98
764.71	226.79
765.04	226.59
765.37	226.42
765.69	226.28
766.02	226.16
766.34	225.97
766.67	225.75
767.00	225.62
767.32	225.61
767.65	225.62
767.97	225.47
768.30	225.35
768.62	225.22
768.95	225.06
769.27	224.94
769.60	224.85
769.92	224.71
770.25	224.50
770.57	224.33
770.90	224.23
771.22	224.11
771.55	224.04
771.87	223.95
772.20	223.83
772.52	223.88
772.85	224.03
773.17	223.94
773.50	223.80
773.82	223.67
774.15	223.50
774.47	223.28
774.80	223.19
775.12	223.07
775.45	222.99
775.77	222.91
776.09	222.82
776.42	222.73
776.74	222.71
777.07	222.64
777.39	222.58
777.72	222.50
778.04	222.43
778.36	222.28
778.69	222.18
779.01	222.11
779.33	221.85
779.66	221.51
779.98	221.42
780.31	221.37
780.63	221.36
780.95	221.27
781.28	221.21
781.60	221.11
781.92	221.07
782.25	221.00
782.57	220.94
782.89	220.88
783.22	220.80
783.54	220.70
783.86	220.67
784.19	220.57
784.51	220.54
784.83	220.48
785.16	220.44
785.48	220.41
785.80	220.33
786.12	220.28
786.45	220.22
786.77	220.16
787.09	220.08
787.42	219.94
787.74	219.91
788.06	219.82
788.38	219.76
788.71	219.66
789.03	219.60
789.35	219.59
789.67	219.53
789.99	219.47
790.32	219.36
790.64	219.32
790.96	219.44
791.28	219.34
791.61	219.26
791.93	219.22
792.25	219.13
792.57	219.26
792.89	219.16
793.21	219.12
793.54	219.05
793.86	218.97
794.18	218.94
794.50	218.85
794.82	218.80
795.14	218.77
795.47	218.78
795.79	218.76
796.11	218.62
796.43	218.53
796.75	218.49
797.07	218.44
797.39	218.39
797.71	218.18
798.04	218.14
798.36	218.10
798.68	218.06
799.00	218.03
799.32	217.87
799.64	217.91
799.96	217.86
800.28	217.88
800.60	217.87
800.92	217.87
801.24	217.80
801.56	217.77
801.89	217.77
802.21	217.76
802.53	217.67
802.85	217.72
803.17	217.83
803.49	217.73
803.81	217.68
804.13	217.64
804.45	217.62
804.77	217.63
805.09	217.62
805.41	217.58
805.73	217.50
806.05	217.39
806.37	217.33
806.69	217.31
807.01	217.27
807.33	217.24
807.65	217.13
807.97	217.21
808.28	217.16
808.60	217.11
808.92	216.99
809.24	217.12
809.56	217.06
809.88	216.89
810.20	216.92
810.52	216.98
810.84	216.89
811.16	216.84
811.48	216.80
811.80	216.84
812.12	216.80
812.43	216.80
812.75	216.83
813.07	216.79
813.39	216.77
813.71	216.71
814.03	216.65
814.35	216.63
814.67	216.54
814.98	216.53
815.30	216.50
815.62	216.48
815.94	216.31
816.26	216.27
816.58	216.24
816.89	216.22
817.21	216.13
817.53	216.15
817.85	216.15
818.17	216.10
818.48	215.99
818.80	216.01
819.12	215.97
819.44	215.91
819.76	215.85
820.07	215.83
820.39	215.79
820.71	215.81
821.03	215.81
821.34	215.81
821.66	215.80
821.98	215.78
822.30	215.75
822.61	215.86
822.93	215.85
823.25	215.84
823.57	215.81
823.88	215.85
824.20	215.81
824.52	215.80
824.83	215.78
825.15	215.74
825.47	215.72
825.79	215.75
826.10	215.72
826.42	215.72
826.74	215.75
827.05	215.75
827.37	215.76
827.69	215.74
828.00	215.69
828.32	215.68
828.64	215.65
828.95	215.78
829.27	215.70
829.58	215.69
829.90	215.71
830.22	215.72
830.53	215.62
830.85	215.64
831.17	215.62
831.48	215.61
831.80	215.62
832.11	215.60
832.43	215.54
832.75	215.55
833.06	215.66
833.38	215.57
833.69	215.56
834.01	215.54
834.32	215.53
834.64	215.52
834.96	215.52
835.27	215.49
835.59	215.38
835.90	215.32
836.22	215.31
836.53	215.29
836.85	215.26
837.16	215.46
837.48	215.43
837.79	215.47
838.11	215.48
838.42	215.44
838.74	215.47
839.05	215.45
839.37	215.44
839.68	215.30
840.00	215.31
840.31	215.32
840.63	215.26
840.94	215.22
841.26	215.19
841.57	215.18
841.88	215.23
842.20	215.20
842.51	215.19
842.83	215.16
843.14	215.31
843.46	215.30
843.77	215.21
844.08	215.22
844.40	215.14
844.71	215.10
845.03	215.11
845.34	215.06
845.65	215.05
845.97	215.03
846.28	215.03
846.60	215.04
846.91	215.02
847.22	215.05
847.54	215.10
847.85	215.12
848.16	215.05
848.48	215.00
848.79	215.12
849.10	215.11
849.42	215.11
849.73	214.90
850.04	214.90
850.36	214.82
850.67	214.81
850.98	214.85
851.30	214.89
851.61	214.87
851.92	214.85
852.23	214.91
852.55	214.96
852.86	214.97
853.17	214.98
853.49	214.99
853.80	214.98
854.11	214.97
854.42	214.97
854.74	214.99
855.05	214.98
855.36	214.86
855.67	214.90
855.99	214.92
856.30	215.18
856.61	215.17
856.92	215.20
857.23	215.18
857.55	215.15
857.86	215.12
858.17	215.18
858.48	215.15
858.79	215.11
859.11	215.10
859.42	215.07
859.73	215.05
860.04	215.07
860.35	215.01
860.66	214.93
860.98	214.92
861.29	214.92
861.60	214.93
861.91	214.93
862.22	214.91
862.53	214.87
862.84	214.61
863.16	214.66
863.47	214.58
863.78	214.56
864.09	214.55
864.40	214.55
864.71	214.51
865.02	214.54
865.33	214.52
865.64	214.49
865.95	214.49
866.27	214.62
866.58	214.58
866.89	214.62
867.20	214.64
867.51	214.61
867.82	214.59
868.13	214.62
868.44	214.60
868.75	214.59
869.06	214.60
869.37	214.62
869.68	214.54
869.99	214.56
870.30	214.57
870.61	214.58
870.92	214.56
871.23	214.55
871.54	214.56
871.85	214.61
872.16	214.63
872.47	214.60
872.78	214.48
873.09	214.49
873.40	214.48
873.71	214.46
874.02	214.48
874.33	214.46
874.64	214.42
874.95	214.45
875.26	214.42
875.56	214.42
875.87	214.40
876.18	214.42
876.49	214.64
876.80	214.64
877.11	214.59
877.42	214.59
877.73	214.59
878.04	214.57
878.35	214.52
878.66	214.49
878.96	214.49
879.27	214.47
879.58	214.45
879.89	214.42
880.20	214.48
880.51	214.47
880.82	214.51
881.12	214.52
881.43	214.49
881.74	214.47
882.05	214.47
882.36	214.47
882.67	214.49
882.97	214.28
883.28	214.27
883.59	214.25
883.90	214.26
884.21	214.28
884.51	214.28
884.82	214.29
885.13	214.30
885.44	214.29
885.74	214.25
886.05	214.23
886.36	214.25
886.67	214.19
886.98	214.24
887.28	214.27
887.59	214.28
887.90	214.24
888.20	214.22
888.51	214.26
888.82	214.20
889.13	214.18
889.43	214.33
889.74	214.29
890.05	214.31
890.35	214.31
890.66	214.28
890.97	214.24
891.28	214.20
891.58	214.23
891.89	214.23
892.20	214.24
892.50	214.20
892.81	214.19
893.12	214.21
893.42	214.14
893.73	214.13
894.04	214.10
894.34	214.16
894.65	214.16
894.95	214.14
895.26	214.16
895.57	214.26
895.87	214.06
896.18	214.09
896.48	214.11
896.79	214.10
897.10	214.12
897.40	214.13
897.71	214.16
898.01	214.14
898.32	214.15
898.63	214.16
898.93	214.18
899.24	214.22
899.54	214.19
899.85	214.19
900.15	214.18
900.46	214.19
900.76	214.19
901.07	214.17
901.38	214.16
901.68	214.20
901.99	214.10
902.29	214.09
902.60	214.09
902.90	214.07
903.21	214.04
903.51	214.05
903.82	214.09
904.12	214.09
904.43	214.10
904.73	214.10
905.03	214.14
905.34	214.35
905.64	214.32
905.95	214.30
906.25	214.28
906.56	214.27
906.86	214.27
907.17	214.22
907.47	214.26
907.77	214.22
908.08	214.18
908.38	214.21
908.69	214.26
908.99	214.30
909.30	214.33
909.60	214.34
909.90	214.35
910.21	214.29
910.51	214.24
910.81	214.25
911.12	214.23
911.42	214.22
911.73	214.01
912.03	214.04
912.33	214.11
912.64	214.10
912.94	214.07
913.24	214.01
913.55	214.02
913.85	213.99
914.15	214.04
914.46	214.07
914.76	214.04
915.06	214.01
915.37	213.97
915.67	213.96
915.97	213.96
916.27	213.90
916.58	213.91
916.88	213.93
917.18	213.91
917.49	214.06
917.79	214.08
918.09	214.09
918.39	214.13
918.70	214.09
919.00	214.14
919.30	214.24
919.60	214.25
919.91	214.25
920.21	214.28
920.51	214.25
920.81	214.24
921.12	214.23
921.42	214.26
921.72	214.26
922.02	214.25
922.32	214.29
922.63	214.30
922.93	214.42
923.23	214.45
923.53	214.42
923.83	214.27
924.13	214.24
924.44	214.23
924.74	214.27
925.04	214.35
925.34	214.30
925.64	214.20
925.94	214.20
926.24	214.29
926.55	214.29
926.85	214.29
927.15	214.27
927.45	214.30
927.75	214.28
928.05	214.28
928.35	214.29
928.65	214.32
928.95	214.35
929.26	214.25
929.56	214.26
929.86	214.32
930.16	214.31
930.46	214.30
930.76	214.31
931.06	214.20
931.36	214.11
931.66	214.18
931.96	214.22
932.26	214.24
932.56	214.14
932.86	214.11
933.16	214.14
933.46	214.14
933.76	214.10
934.06	214.18
934.36	214.27
934.66	214.26
934.96	214.23
935.26	214.23
935.56	214.27
935.86	214.22
936.16	214.18
936.46	214.15
936.76	214.15
937.06	214.12
937.36	214.11
937.66	214.14
937.96	214.10
938.26	214.06
938.56	214.07
938.86	214.09
939.16	214.15
939.46	214.16
939.76	214.16
940.06	214.19
940.35	214.12
940.65	213.99
940.95	214.02
941.25	213.95
941.55	213.93
941.85	213.89
942.15	213.94
942.45	213.99
942.75	214.00
943.04	214.02
943.34	214.07
943.64	214.06
943.94	214.00
944.24	214.03
944.54	214.03
944.84	214.00
945.13	213.99
945.43	213.95
945.73	213.95
946.03	213.95
946.33	213.91
946.62	213.90
946.92	213.88
947.22	213.88
947.52	213.92
947.82	213.95
948.11	213.94
948.41	213.88
948.71	213.83
949.01	213.85
949.31	213.82
949.60	213.77
949.90	213.83
950.20	213.87
950.50	213.85
950.79	213.86
951.09	213.91
951.39	213.93
951.69	213.90
951.98	213.93
952.28	213.93
952.58	213.92
952.87	213.94
953.17	214.01
953.47	214.00
953.76	213.98
954.06	213.95
954.36	213.94
954.66	213.97
954.95	214.03
955.25	214.06
955.55	214.08
955.84	214.09
956.14	214.08
956.44	214.07
956.73	214.04
957.03	214.06
957.32	214.05
957.62	214.05
957.92	214.08
958.21	214.02
958.51	214.26
958.81	214.30
959.10	214.31
959.40	214.30
959.69	214.32
959.99	214.35
960.29	214.37
960.58	214.37
960.88	214.43
961.17	214.40
961.47	214.42
961.76	214.39
962.06	214.41
962.36	214.41
962.65	214.41
962.95	214.42
963.24	214.38
963.54	214.39
963.83	214.40
964.13	214.42
964.42	214.42
964.72	214.22
965.01	214.24
965.31	214.22
965.60	214.19
965.90	214.31
966.19	214.29
966.49	214.30
966.78	214.27
967.08	214.22
967.37	214.23
967.67	214.16
967.96	214.21
968.26	214.19
968.55	214.21
968.85	214.20
969.14	214.21
969.43	214.26
969.73	214.21
970.02	214.21
970.32	214.20
970.61	214.18
970.91	214.14
971.20	214.11
971.49	214.10
971.79	214.12
972.08	213.94
972.38	213.94
972.67	213.92
972.96	213.96
973.26	213.96
973.55	214.03
973.85	214.04
974.14	214.01
974.43	214.03
974.73	213.99
975.02	213.94
975.31	213.92
975.61	213.87
975.90	213.88
976.19	213.85
976.49	213.83
976.78	213.82
977.07	213.83
977.37	213.86
977.66	213.87
977.95	213.81
978.24	213.81
978.54	213.88
978.83	213.86
979.12	213.83
979.42	213.79
979.71	213.74
980.00	213.75
980.29	213.74
980.59	213.71
980.88	213.79
981.17	213.82
981.46	213.82
981.76	213.83
982.05	213.91
982.34	213.93
982.63	213.96
982.93	213.97
983.22	214.03
983.51	214.01
983.80	214.05
984.09	214.12
984.39	214.11
984.68	214.03
984.97	214.04
985.26	214.03
985.55	214.07
985.85	214.00
986.14	214.03
986.43	214.08
986.72	214.08
987.01	213.99
987.30	213.98
987.59	213.99
987.89	213.99
988.18	213.92
988.47	213.91
988.76	213.86
989.05	213.85
989.34	213.82
989.63	213.89
989.92	213.83
990.22	213.79
990.51	213.82
990.80	213.81
991.09	213.86
991.38	213.89
991.67	213.87
991.96	213.87
992.25	213.85
992.54	213.79
992.83	213.77
993.12	213.79
993.41	213.84
993.70	213.90
993.99	213.93
994.28	213.98
994.58	213.98
994.87	213.97
995.16	213.95
995.45	213.93
995.74	213.83
996.03	213.89
996.32	213.92
996.61	213.97
996.90	213.99
997.19	213.97
997.48	213.97
997.77	213.97
998.06	213.99
998.34	213.99
998.63	214.03
998.92	214.06
999.21	214.08
999.50	214.09
999.79	214.01
1000.08	214.01
1000.37	213.98
1000.66	213.96
1000.95	214.03
1001.24	214.06
1001.53	214.07
1001.82	214.11
1002.11	214.06
1002.40	214.07
1002.68	214.10
1002.97	214.24
1003.26	214.17
1003.55	214.15
1003.84	214.16
1004.13	214.24
1004.42	214.22
1004.71	214.18
1004.99	214.15
1005.28	214.21
1005.57	214.18
1005.86	214.17
1006.15	214.17
1006.44	214.14
1006.72	214.16
1007.01	214.14
1007.30	214.12
1007.59	214.08
1007.88	214.04
1008.17	214.08
1008.45	214.03
1008.74	213.94
1009.03	213.86
1009.32	213.91
1009.60	213.88
1009.89	213.83
1010.18	213.73
1010.47	213.75
1010.76	213.75
1011.04	213.74
1011.33	213.70
1011.62	213.73
1011.91	213.75
1012.19	213.76
1012.48	213.79
1012.77	213.80
1013.05	213.93
1013.34	213.95
1013.63	213.96
1013.92	213.98
1014.20	213.93
1014.49	213.96
1014.78	213.99
1015.06	213.90
1015.35	213.89
1015.64	213.94
1015.92	213.99
1016.21	214.02
1016.50	213.99
1016.78	214.02
1017.07	214.04
1017.36	214.00
1017.64	213.98
1017.93	214.01
1018.22	213.98
1018.50	213.94
1018.79	213.94
1019.08	213.79
1019.36	213.82
1019.65	213.78
1019.93	213.84
1020.22	213.86
1020.51	213.95
1020.79	213.93
1021.08	213.50
1021.36	213.19
1021.65	214.15
1021.94	213.83
1022.22	214.24
1022.51	213.08
1022.79	214.88
1023.08	213.77
1023.36	216.11
1023.65	213.85
>>>>>End Processed Spectral Data<<<<<
