SpectraSuite Data File
++++++++++++++++++++++++++++++++++++
Date: Tue Jan 29 16:30:41 EST 2013
User: group
Dark Spectrum Present: No
Reference Spectrum Present: No
Number of Sampled Component Spectra: 1
Spectrometers: USB2E7196
Integration Time (usec): 65000 (USB2E7196)
Spectra Averaged: 100 (USB2E7196)
Boxcar Smoothing: 10 (USB2E7196)
Correct for Electrical Dark: No (USB2E7196)
Strobe/Lamp Enabled: No (USB2E7196)
Correct for Detector Non-linearity: No (USB2E7196)
Correct for Stray Light: No (USB2E7196)
Number of Pixels in Processed Spectrum: 2048
>>>>>Begin Processed Spectral Data<<<<<
339.09	0.00
339.48	202.33
339.86	203.78
340.24	205.03
340.63	206.71
341.01	210.89
341.39	208.96
341.78	210.24
342.16	211.80
342.54	212.39
342.93	201.35
343.31	211.54
343.69	212.08
344.07	212.56
344.46	213.03
344.84	213.42
345.22	213.56
345.60	213.83
345.99	214.05
346.37	214.17
346.75	214.29
347.13	214.36
347.52	214.47
347.90	214.57
348.28	214.59
348.66	214.67
349.05	214.64
349.43	214.68
349.81	214.74
350.19	214.83
350.57	214.89
350.96	214.97
351.34	215.05
351.72	215.14
352.10	215.24
352.48	215.29
352.87	215.32
353.25	215.40
353.63	215.47
354.01	215.53
354.39	215.62
354.77	215.67
355.15	215.82
355.54	215.82
355.92	215.79
356.30	215.86
356.68	216.05
357.06	216.15
357.44	216.19
357.82	216.26
358.20	216.34
358.58	216.34
358.97	216.41
359.35	216.48
359.73	216.58
360.11	216.61
360.49	216.68
360.87	216.76
361.25	216.84
361.63	216.95
362.01	217.00
362.39	217.04
362.77	217.11
363.15	217.14
363.53	217.20
363.91	217.28
364.29	217.32
364.67	217.13
365.05	217.13
365.43	217.13
365.81	217.17
366.19	217.23
366.57	217.34
366.95	217.34
367.33	217.29
367.71	217.28
368.09	217.32
368.47	217.29
368.85	217.27
369.23	217.32
369.61	217.24
369.99	217.31
370.37	217.31
370.75	217.39
371.13	217.31
371.51	217.27
371.89	217.29
372.27	217.25
372.65	217.25
373.03	217.21
373.41	217.18
373.78	217.11
374.16	216.99
374.54	216.90
374.92	216.85
375.30	216.85
375.68	216.77
376.06	216.73
376.44	216.67
376.82	216.64
377.19	216.51
377.57	216.46
377.95	216.35
378.33	216.29
378.71	216.14
379.09	216.10
379.47	216.11
379.84	216.01
380.22	215.97
380.60	215.87
380.98	215.85
381.36	215.84
381.73	215.82
382.11	215.81
382.49	215.77
382.87	215.71
383.25	215.67
383.62	215.84
384.00	215.79
384.38	215.76
384.76	215.75
385.13	215.80
385.51	215.72
385.89	215.65
386.27	215.62
386.64	215.58
387.02	215.56
387.40	215.48
387.78	215.46
388.15	215.46
388.53	215.45
388.91	215.42
389.29	215.36
389.66	215.36
390.04	215.34
390.42	215.36
390.79	215.35
391.17	215.33
391.55	215.12
391.92	215.10
392.30	215.13
392.68	215.09
393.05	215.06
393.43	215.12
393.81	215.10
394.18	215.06
394.56	215.10
394.94	215.14
395.31	215.12
395.69	215.17
396.06	215.21
396.44	215.25
396.82	215.27
397.19	215.38
397.57	215.38
397.95	215.42
398.32	215.36
398.70	215.42
399.07	215.50
399.45	215.53
399.82	215.59
400.20	215.59
400.58	215.67
400.95	215.68
401.33	215.76
401.70	216.01
402.08	216.14
402.45	216.21
402.83	216.37
403.20	216.49
403.58	216.58
403.95	216.70
404.33	216.85
404.71	216.97
405.08	217.24
405.46	217.43
405.83	217.58
406.21	217.80
406.58	218.06
406.96	218.29
407.33	218.58
407.70	218.89
408.08	219.38
408.45	219.73
408.83	220.14
409.20	220.49
409.58	220.78
409.95	221.26
410.33	221.77
410.70	222.18
411.08	222.74
411.45	223.32
411.82	223.91
412.20	224.59
412.57	225.43
412.95	226.01
413.32	226.82
413.69	227.67
414.07	228.60
414.44	229.56
414.82	230.55
415.19	231.73
415.56	232.87
415.94	234.03
416.31	235.45
416.68	236.83
417.06	238.43
417.43	239.94
417.81	241.68
418.18	243.45
418.55	245.37
418.93	247.39
419.30	249.53
419.67	251.75
420.04	254.02
420.42	256.41
420.79	259.22
421.16	262.01
421.54	264.95
421.91	267.94
422.28	271.10
422.66	274.42
423.03	277.68
423.40	281.07
423.77	284.68
424.15	288.31
424.52	292.17
424.89	296.36
425.26	300.45
425.64	304.32
426.01	308.58
426.38	313.04
426.75	317.61
427.13	322.31
427.50	327.26
427.87	332.47
428.24	337.68
428.61	342.63
428.99	348.15
429.36	354.14
429.73	360.06
430.10	365.88
430.47	371.93
430.85	378.20
431.22	384.83
431.59	391.98
431.96	398.80
432.33	406.24
432.70	413.44
433.08	422.01
433.45	430.04
433.82	438.07
434.19	446.98
434.56	455.64
434.93	463.94
435.30	472.23
435.68	481.37
436.05	490.33
436.42	499.28
436.79	507.39
437.16	516.21
437.53	525.42
437.90	534.54
438.27	543.49
438.64	552.67
439.01	561.31
439.38	568.84
439.75	576.21
440.13	584.70
440.50	592.63
440.87	599.06
441.24	605.71
441.61	612.99
441.98	618.34
442.35	624.72
442.72	631.05
443.09	637.10
443.46	640.81
443.83	643.32
444.20	645.54
444.57	648.70
444.94	650.04
445.31	651.40
445.68	652.79
446.05	653.40
446.42	652.66
446.79	651.76
447.16	650.70
447.53	649.95
447.90	646.62
448.27	643.40
448.64	638.74
449.01	635.43
449.37	629.57
449.74	623.92
450.11	617.02
450.48	609.66
450.85	602.27
451.22	595.84
451.59	589.66
451.96	583.90
452.33	576.03
452.70	568.98
453.07	560.61
453.43	552.02
453.80	543.77
454.17	535.79
454.54	528.08
454.91	519.91
455.28	511.86
455.65	504.49
456.02	496.93
456.38	490.58
456.75	482.74
457.12	476.19
457.49	469.72
457.86	463.49
458.23	458.13
458.59	452.17
458.96	446.13
459.33	440.88
459.70	435.46
460.07	431.21
460.43	426.32
460.80	421.76
461.17	417.78
461.54	413.54
461.91	409.54
462.27	405.46
462.64	401.99
463.01	398.26
463.38	394.52
463.74	390.86
464.11	387.62
464.48	384.74
464.85	381.63
465.21	379.19
465.58	376.58
465.95	373.39
466.32	370.78
466.68	368.16
467.05	365.55
467.42	362.95
467.78	360.26
468.15	357.78
468.52	355.88
468.88	353.37
469.25	351.20
469.62	349.38
469.98	347.47
470.35	345.64
470.72	343.95
471.08	342.13
471.45	340.61
471.82	339.06
472.18	337.35
472.55	336.18
472.92	334.77
473.28	333.57
473.65	332.43
474.02	331.26
474.38	330.43
474.75	329.68
475.11	328.85
475.48	328.32
475.85	327.79
476.21	327.28
476.58	326.97
476.94	326.65
477.31	326.38
477.67	326.12
478.04	326.00
478.41	325.92
478.77	326.09
479.14	326.04
479.50	326.17
479.87	326.51
480.23	326.81
480.60	327.04
480.96	327.31
481.33	327.93
481.69	328.53
482.06	329.05
482.42	329.56
482.79	330.17
483.15	330.95
483.52	331.91
483.88	332.74
484.25	333.64
484.61	334.68
484.98	335.73
485.34	337.04
485.71	338.41
486.07	339.82
486.44	341.13
486.80	342.81
487.17	344.49
487.53	346.33
487.90	348.18
488.26	350.23
488.62	352.41
488.99	354.41
489.35	356.60
489.72	358.98
490.08	361.44
490.44	364.00
490.81	366.71
491.17	369.44
491.54	372.51
491.90	375.59
492.26	378.88
492.63	382.27
492.99	385.78
493.36	389.43
493.72	393.36
494.08	397.43
494.45	401.60
494.81	405.98
495.17	410.42
495.54	415.14
495.90	419.94
496.26	424.86
496.63	430.11
496.99	435.51
497.35	441.07
497.72	446.93
498.08	452.93
498.44	459.06
498.80	465.53
499.17	472.04
499.53	478.71
499.89	485.62
500.26	492.65
500.62	499.79
500.98	507.28
501.34	514.77
501.71	522.56
502.07	530.43
502.43	538.45
502.79	546.63
503.16	555.12
503.52	563.83
503.88	572.59
504.24	581.62
504.60	590.75
504.97	600.03
505.33	609.42
505.69	619.37
506.05	629.28
506.41	639.19
506.78	649.32
507.14	659.69
507.50	670.17
507.86	680.98
508.22	691.88
508.59	702.54
508.95	713.70
509.31	724.95
509.67	736.50
510.03	747.98
510.39	759.74
510.75	771.59
511.12	783.49
511.48	795.61
511.84	807.90
512.20	820.27
512.56	832.98
512.92	845.81
513.28	858.50
513.64	871.27
514.00	884.11
514.37	897.06
514.73	910.20
515.09	923.33
515.45	936.28
515.81	949.37
516.17	962.83
516.53	976.13
516.89	989.38
517.25	1002.65
517.61	1016.26
517.97	1029.83
518.33	1043.05
518.69	1056.70
519.05	1070.61
519.41	1084.34
519.77	1098.30
520.13	1111.67
520.49	1125.01
520.85	1138.45
521.21	1151.93
521.57	1165.71
521.93	1178.98
522.29	1192.89
522.65	1206.64
523.01	1220.41
523.37	1233.80
523.73	1247.30
524.09	1260.51
524.45	1274.03
524.81	1287.65
525.17	1301.17
525.53	1314.49
525.89	1327.85
526.25	1341.06
526.61	1353.99
526.97	1367.29
527.33	1380.52
527.68	1394.21
528.04	1407.87
528.40	1421.15
528.76	1434.65
529.12	1447.69
529.48	1461.16
529.84	1473.55
530.20	1486.34
530.56	1499.01
530.91	1512.35
531.27	1525.31
531.63	1538.30
531.99	1551.27
532.35	1563.64
532.71	1576.11
533.07	1589.20
533.42	1601.62
533.78	1613.97
534.14	1626.23
534.50	1637.60
534.86	1649.06
535.21	1660.01
535.57	1671.58
535.93	1682.98
536.29	1694.18
536.65	1705.78
537.00	1716.76
537.36	1728.22
537.72	1739.42
538.08	1751.02
538.44	1762.09
538.79	1773.35
539.15	1784.42
539.51	1795.22
539.87	1806.55
540.22	1817.48
540.58	1828.33
540.94	1839.37
541.29	1849.72
541.65	1859.50
542.01	1870.04
542.37	1880.31
542.72	1890.54
543.08	1900.29
543.44	1910.73
543.79	1920.31
544.15	1929.89
544.51	1940.04
544.87	1950.15
545.22	1959.40
545.58	1968.25
545.94	1977.14
546.29	1985.56
546.65	1993.93
547.01	2002.32
547.36	2010.12
547.72	2017.89
548.07	2025.50
548.43	2033.36
548.79	2041.32
549.14	2049.58
549.50	2058.19
549.86	2066.24
550.21	2073.75
550.57	2081.59
550.92	2088.62
551.28	2096.14
551.64	2103.47
551.99	2111.05
552.35	2118.24
552.70	2125.23
553.06	2132.11
553.41	2138.45
553.77	2145.09
554.13	2151.58
554.48	2158.64
554.84	2165.87
555.19	2172.59
555.55	2179.28
555.90	2185.62
556.26	2192.48
556.61	2198.55
556.97	2203.34
557.32	2209.06
557.68	2215.48
558.03	2221.30
558.39	2226.74
558.74	2232.64
559.10	2238.06
559.45	2243.65
559.81	2249.11
560.16	2254.73
560.52	2260.53
560.87	2267.03
561.23	2273.07
561.58	2279.70
561.94	2284.93
562.29	2289.64
562.64	2295.82
563.00	2301.53
563.35	2307.10
563.71	2312.92
564.06	2318.79
564.42	2324.86
564.77	2329.99
565.12	2335.23
565.48	2340.37
565.83	2345.82
566.19	2351.25
566.54	2356.72
566.89	2361.52
567.25	2366.10
567.60	2371.65
567.96	2376.83
568.31	2381.43
568.66	2385.71
569.02	2389.69
569.37	2393.54
569.72	2397.97
570.08	2401.37
570.43	2404.43
570.78	2407.58
571.14	2409.98
571.49	2412.99
571.84	2416.43
572.20	2419.45
572.55	2422.55
572.90	2424.81
573.26	2427.60
573.61	2430.10
573.96	2432.22
574.31	2434.06
574.67	2436.02
575.02	2436.87
575.37	2438.25
575.72	2438.88
576.08	2440.17
576.43	2440.27
576.78	2440.68
577.13	2442.20
577.49	2443.37
577.84	2444.32
578.19	2445.60
578.54	2446.27
578.90	2446.97
579.25	2446.90
579.60	2446.80
579.95	2445.99
580.30	2445.93
580.66	2445.29
581.01	2443.52
581.36	2441.22
581.71	2439.78
582.06	2438.51
582.42	2437.69
582.77	2435.39
583.12	2433.67
583.47	2432.26
583.82	2431.60
584.17	2430.28
584.53	2428.05
584.88	2426.04
585.23	2424.22
585.58	2421.88
585.93	2419.64
586.28	2417.34
586.63	2414.73
586.98	2412.37
587.34	2410.31
587.69	2407.95
588.04	2405.81
588.39	2404.44
588.74	2401.90
589.09	2399.11
589.44	2395.92
589.79	2393.23
590.14	2391.28
590.49	2388.43
590.84	2384.65
591.19	2381.39
591.54	2378.01
591.89	2373.93
592.25	2370.59
592.60	2366.25
592.95	2362.13
593.30	2357.95
593.65	2353.70
594.00	2349.36
594.35	2346.39
594.70	2341.76
595.05	2337.20
595.40	2331.66
595.75	2325.87
596.10	2322.31
596.45	2317.46
596.80	2313.00
597.15	2307.93
597.50	2301.94
597.85	2297.04
598.19	2291.75
598.54	2286.02
598.89	2280.75
599.24	2276.01
599.59	2269.63
599.94	2263.75
600.29	2257.70
600.64	2251.88
600.99	2244.96
601.34	2239.35
601.69	2232.37
602.04	2225.85
602.39	2219.01
602.74	2212.83
603.08	2207.14
603.43	2200.47
603.78	2193.46
604.13	2186.19
604.48	2178.77
604.83	2172.51
605.18	2166.15
605.53	2159.14
605.87	2152.09
606.22	2145.29
606.57	2137.48
606.92	2129.52
607.27	2122.47
607.62	2115.75
607.96	2108.57
608.31	2102.13
608.66	2094.31
609.01	2086.54
609.36	2079.38
609.70	2071.84
610.05	2063.98
610.40	2055.54
610.75	2047.14
611.10	2039.40
611.44	2030.43
611.79	2021.62
612.14	2011.62
612.49	2000.91
612.83	1991.55
613.18	1982.14
613.53	1972.88
613.88	1963.37
614.22	1954.76
614.57	1945.00
614.92	1934.39
615.27	1924.15
615.61	1913.96
615.96	1904.23
616.31	1894.61
616.65	1885.21
617.00	1875.43
617.35	1865.73
617.70	1856.13
618.04	1846.16
618.39	1835.93
618.74	1826.31
619.08	1816.57
619.43	1807.90
619.78	1799.65
620.12	1791.05
620.47	1781.58
620.82	1771.10
621.16	1761.15
621.51	1751.13
621.85	1741.17
622.20	1730.81
622.55	1720.27
622.89	1710.35
623.24	1700.60
623.59	1690.84
623.93	1680.66
624.28	1670.74
624.62	1660.65
624.97	1650.32
625.32	1640.27
625.66	1631.42
626.01	1622.66
626.35	1613.33
626.70	1603.18
627.04	1593.05
627.39	1582.88
627.73	1573.48
628.08	1564.45
628.43	1554.83
628.77	1545.69
629.12	1536.82
629.46	1528.85
629.81	1520.42
630.15	1510.71
630.50	1500.86
630.84	1490.31
631.19	1480.38
631.53	1470.97
631.88	1460.75
632.22	1450.59
632.57	1441.35
632.91	1431.02
633.26	1420.93
633.60	1411.30
633.95	1401.96
634.29	1392.35
634.64	1382.93
634.98	1372.71
635.32	1363.39
635.67	1354.85
636.01	1345.53
636.36	1335.71
636.70	1326.18
637.05	1316.81
637.39	1307.88
637.73	1299.19
638.08	1291.52
638.42	1283.27
638.77	1274.47
639.11	1266.20
639.45	1258.38
639.80	1249.75
640.14	1241.11
640.49	1232.31
640.83	1223.46
641.17	1215.18
641.52	1207.11
641.86	1198.41
642.20	1190.65
642.55	1182.15
642.89	1173.21
643.23	1164.45
643.58	1156.27
643.92	1147.10
644.26	1138.30
644.61	1129.80
644.95	1120.94
645.29	1111.66
645.64	1102.40
645.98	1093.84
646.32	1085.83
646.66	1077.25
647.01	1068.87
647.35	1060.60
647.69	1052.25
648.04	1043.93
648.38	1035.06
648.72	1026.12
649.06	1017.71
649.41	1009.54
649.75	1001.38
650.09	993.47
650.43	985.30
650.78	976.88
651.12	969.17
651.46	961.68
651.80	954.40
652.14	947.05
652.49	939.40
652.83	932.04
653.17	924.36
653.51	916.67
653.85	909.43
654.20	902.01
654.54	894.56
654.88	887.22
655.22	879.93
655.56	872.94
655.90	866.08
656.25	859.32
656.59	852.24
656.93	845.13
657.27	837.87
657.61	830.90
657.95	824.77
658.29	818.85
658.64	812.64
658.98	806.11
659.32	799.59
659.66	793.30
660.00	786.88
660.34	780.66
660.68	774.44
661.02	767.98
661.36	762.04
661.70	756.16
662.05	750.51
662.39	744.98
662.73	739.53
663.07	734.09
663.41	728.47
663.75	722.73
664.09	717.01
664.43	711.57
664.77	706.19
665.11	700.28
665.45	694.22
665.79	688.35
666.13	682.60
666.47	676.97
666.81	671.46
667.15	666.03
667.49	660.78
667.83	655.48
668.17	650.16
668.51	644.97
668.85	639.96
669.19	635.02
669.53	629.88
669.87	624.67
670.21	619.91
670.55	615.08
670.89	610.57
671.23	606.23
671.57	601.79
671.91	597.43
672.25	593.29
672.58	589.14
672.92	585.03
673.26	581.05
673.60	577.16
673.94	573.37
674.28	569.71
674.62	565.99
674.96	562.24
675.30	558.70
675.64	555.01
675.97	551.43
676.31	547.73
676.65	544.17
676.99	540.74
677.33	536.83
677.67	533.14
678.01	529.32
678.34	525.58
678.68	522.02
679.02	518.39
679.36	514.66
679.70	510.98
680.04	507.40
680.37	503.87
680.71	500.47
681.05	497.17
681.39	493.86
681.73	490.61
682.06	487.57
682.40	484.44
682.74	481.25
683.08	477.94
683.42	474.69
683.75	471.61
684.09	468.53
684.43	465.69
684.77	462.74
685.10	459.84
685.44	456.93
685.78	453.92
686.12	451.04
686.45	448.23
686.79	445.52
687.13	442.93
687.46	440.26
687.80	437.54
688.14	434.63
688.48	431.94
688.81	429.23
689.15	426.55
689.49	423.91
689.82	421.29
690.16	418.68
690.50	416.19
690.83	413.62
691.17	411.01
691.51	408.49
691.84	406.21
692.18	403.90
692.52	401.63
692.85	399.48
693.19	397.38
693.52	395.19
693.86	392.93
694.20	390.69
694.53	388.57
694.87	386.36
695.21	384.21
695.54	382.05
695.88	379.84
696.21	377.63
696.55	375.45
696.88	373.40
697.22	371.40
697.56	369.49
697.89	367.60
698.23	365.80
698.56	363.98
698.90	362.15
699.23	360.22
699.57	358.35
699.90	356.45
700.24	354.54
700.58	352.74
700.91	351.05
701.25	349.47
701.58	347.81
701.92	346.16
702.25	344.58
702.59	342.88
702.92	341.31
703.26	339.71
703.59	338.21
703.93	336.91
704.26	335.44
704.60	333.90
704.93	332.34
705.26	330.82
705.60	329.31
705.93	327.76
706.27	326.41
706.60	325.12
706.94	323.84
707.27	322.46
707.61	321.10
707.94	319.73
708.27	318.17
708.61	316.68
708.94	315.29
709.28	313.99
709.61	312.75
709.94	311.57
710.28	310.31
710.61	309.12
710.95	307.71
711.28	306.59
711.61	305.38
711.95	304.26
712.28	303.04
712.61	301.83
712.95	300.82
713.28	299.79
713.61	298.60
713.95	297.46
714.28	296.44
714.61	295.36
714.95	294.38
715.28	293.40
715.61	292.38
715.95	291.46
716.28	290.49
716.61	289.51
716.95	288.46
717.28	287.53
717.61	286.54
717.94	285.62
718.28	284.58
718.61	283.71
718.94	282.83
719.27	282.00
719.61	281.21
719.94	280.31
720.27	279.32
720.60	278.48
720.94	277.67
721.27	276.90
721.60	276.21
721.93	275.44
722.27	274.75
722.60	274.04
722.93	273.29
723.26	272.62
723.59	271.89
723.93	271.27
724.26	270.64
724.59	269.99
724.92	269.35
725.25	268.81
725.59	268.20
725.92	267.63
726.25	267.05
726.58	266.47
726.91	265.80
727.24	265.30
727.57	264.74
727.91	264.11
728.24	263.58
728.57	262.99
728.90	262.43
729.23	261.78
729.56	261.39
729.89	260.82
730.22	260.23
730.55	259.70
730.89	259.14
731.22	258.58
731.55	258.07
731.88	257.56
732.21	256.98
732.54	256.42
732.87	255.88
733.20	255.39
733.53	254.88
733.86	254.43
734.19	253.91
734.52	253.48
734.85	253.19
735.18	252.66
735.51	252.27
735.84	251.83
736.17	251.49
736.50	250.93
736.83	250.80
737.16	250.42
737.49	250.03
737.82	249.62
738.15	249.28
738.48	248.88
738.81	248.49
739.14	248.06
739.47	247.70
739.80	247.33
740.13	246.96
740.46	246.54
740.79	246.17
741.12	245.80
741.45	245.42
741.78	244.96
742.11	244.69
742.44	244.32
742.77	244.02
743.10	243.63
743.43	243.28
743.75	242.69
744.08	242.61
744.41	242.25
744.74	241.93
745.07	241.50
745.40	241.20
745.73	240.93
746.06	240.63
746.39	240.36
746.71	240.00
747.04	239.64
747.37	239.32
747.70	239.02
748.03	238.69
748.36	238.40
748.68	238.11
749.01	237.73
749.34	237.41
749.67	237.12
750.00	236.88
750.33	236.77
750.65	236.47
750.98	235.92
751.31	235.65
751.64	235.43
751.97	235.33
752.29	235.06
752.62	234.73
752.95	234.46
753.28	234.19
753.60	233.96
753.93	233.81
754.26	233.62
754.59	233.39
754.91	233.16
755.24	232.89
755.57	232.63
755.90	232.43
756.22	232.21
756.55	231.94
756.88	231.68
757.20	231.34
757.53	231.12
757.86	230.91
758.19	230.76
758.51	230.52
758.84	230.22
759.17	230.02
759.49	229.85
759.82	229.79
760.15	229.59
760.47	229.40
760.80	229.13
761.13	228.95
761.45	228.74
761.78	228.55
762.11	228.41
762.43	228.23
762.76	228.03
763.08	227.88
763.41	227.72
763.74	227.58
764.06	227.40
764.39	227.24
764.71	227.11
765.04	226.91
765.37	226.74
765.69	226.59
766.02	226.45
766.34	226.30
766.67	226.08
767.00	225.98
767.32	225.95
767.65	225.96
767.97	225.83
768.30	225.69
768.62	225.59
768.95	225.42
769.27	225.29
769.60	225.21
769.92	225.04
770.25	224.90
770.57	224.71
770.90	224.59
771.22	224.45
771.55	224.31
771.87	224.19
772.20	224.08
772.52	224.12
772.85	224.24
773.17	224.13
773.50	224.02
773.82	223.88
774.15	223.65
774.47	223.43
774.80	223.29
775.12	223.21
775.45	223.08
775.77	223.04
776.09	222.98
776.42	222.87
776.74	222.86
777.07	222.75
777.39	222.69
777.72	222.59
778.04	222.53
778.36	222.43
778.69	222.37
779.01	222.26
779.33	222.04
779.66	221.71
779.98	221.62
780.31	221.52
780.63	221.50
780.95	221.47
781.28	221.38
781.60	221.31
781.92	221.21
782.25	221.17
782.57	221.04
782.89	220.95
783.22	220.84
783.54	220.74
783.86	220.69
784.19	220.61
784.51	220.60
784.83	220.53
785.16	220.48
785.48	220.42
785.80	220.37
786.12	220.30
786.45	220.27
786.77	220.21
787.09	220.16
787.42	220.07
787.74	220.02
788.06	219.98
788.38	219.94
788.71	219.86
789.03	219.80
789.35	219.79
789.67	219.69
789.99	219.69
790.32	219.59
790.64	219.59
790.96	219.69
791.28	219.58
791.61	219.50
791.93	219.45
792.25	219.38
792.57	219.52
792.89	219.44
793.21	219.41
793.54	219.35
793.86	219.28
794.18	219.25
794.50	219.16
794.82	219.12
795.14	219.04
795.47	219.04
795.79	218.98
796.11	218.88
796.43	218.86
796.75	218.82
797.07	218.80
797.39	218.69
797.71	218.52
798.04	218.48
798.36	218.46
798.68	218.41
799.00	218.39
799.32	218.21
799.64	218.21
799.96	218.16
800.28	218.19
800.60	218.17
800.92	218.09
801.24	218.03
801.56	218.03
801.89	218.01
802.21	218.02
802.53	217.97
802.85	218.04
803.17	218.12
803.49	218.05
803.81	217.99
804.13	217.97
804.45	217.92
804.77	217.90
805.09	217.90
805.41	217.81
805.73	217.73
806.05	217.65
806.37	217.62
806.69	217.55
807.01	217.47
807.33	217.42
807.65	217.36
807.97	217.43
808.28	217.35
808.60	217.33
808.92	217.25
809.24	217.33
809.56	217.25
809.88	217.15
810.20	217.11
810.52	217.16
810.84	217.12
811.16	217.07
811.48	217.01
811.80	217.06
812.12	217.06
812.43	217.09
812.75	217.10
813.07	217.03
813.39	217.05
813.71	217.02
814.03	216.99
814.35	216.96
814.67	216.87
814.98	216.82
815.30	216.81
815.62	216.77
815.94	216.62
816.26	216.59
816.58	216.53
816.89	216.54
817.21	216.47
817.53	216.47
817.85	216.47
818.17	216.49
818.48	216.40
818.80	216.42
819.12	216.36
819.44	216.28
819.76	216.27
820.07	216.25
820.39	216.22
820.71	216.22
821.03	216.20
821.34	216.16
821.66	216.16
821.98	216.14
822.30	216.11
822.61	216.20
822.93	216.14
823.25	216.10
823.57	216.04
823.88	216.04
824.20	216.03
824.52	216.05
824.83	215.99
825.15	215.96
825.47	215.95
825.79	215.95
826.10	215.95
826.42	215.91
826.74	215.91
827.05	215.91
827.37	215.90
827.69	215.90
828.00	215.90
828.32	215.88
828.64	215.86
828.95	215.97
829.27	215.91
829.58	215.95
829.90	215.97
830.22	215.98
830.53	215.90
830.85	215.84
831.17	215.77
831.48	215.77
831.80	215.76
832.11	215.71
832.43	215.67
832.75	215.70
833.06	215.79
833.38	215.72
833.69	215.69
834.01	215.68
834.32	215.66
834.64	215.65
834.96	215.67
835.27	215.65
835.59	215.56
835.90	215.50
836.22	215.47
836.53	215.42
836.85	215.38
837.16	215.60
837.48	215.63
837.79	215.66
838.11	215.67
838.42	215.66
838.74	215.71
839.05	215.68
839.37	215.62
839.68	215.48
840.00	215.48
840.31	215.52
840.63	215.48
840.94	215.47
841.26	215.43
841.57	215.37
841.88	215.38
842.20	215.33
842.51	215.34
842.83	215.32
843.14	215.50
843.46	215.49
843.77	215.39
844.08	215.38
844.40	215.34
844.71	215.32
845.03	215.30
845.34	215.25
845.65	215.27
845.97	215.29
846.28	215.30
846.60	215.30
846.91	215.24
847.22	215.25
847.54	215.27
847.85	215.25
848.16	215.25
848.48	215.22
848.79	215.32
849.10	215.32
849.42	215.36
849.73	215.18
850.04	215.19
850.36	215.10
850.67	215.12
850.98	215.12
851.30	215.14
851.61	215.14
851.92	215.16
852.23	215.23
852.55	215.22
852.86	215.24
853.17	215.28
853.49	215.34
853.80	215.37
854.11	215.35
854.42	215.41
854.74	215.36
855.05	215.36
855.36	215.24
855.67	215.22
855.99	215.21
856.30	215.44
856.61	215.44
856.92	215.42
857.23	215.39
857.55	215.37
857.86	215.35
858.17	215.36
858.48	215.31
858.79	215.25
859.11	215.27
859.42	215.25
859.73	215.21
860.04	215.17
860.35	215.13
860.66	215.09
860.98	215.05
861.29	215.12
861.60	215.07
861.91	215.11
862.22	215.10
862.53	215.05
862.84	214.82
863.16	214.87
863.47	214.85
863.78	214.84
864.09	214.84
864.40	214.83
864.71	214.83
865.02	214.84
865.33	214.81
865.64	214.77
865.95	214.75
866.27	214.85
866.58	214.83
866.89	214.83
867.20	214.81
867.51	214.80
867.82	214.76
868.13	214.84
868.44	214.79
868.75	214.81
869.06	214.82
869.37	214.82
869.68	214.69
869.99	214.71
870.30	214.71
870.61	214.73
870.92	214.68
871.23	214.65
871.54	214.66
871.85	214.71
872.16	214.75
872.47	214.70
872.78	214.62
873.09	214.66
873.40	214.64
873.71	214.66
874.02	214.65
874.33	214.64
874.64	214.60
874.95	214.66
875.26	214.62
875.56	214.61
875.87	214.58
876.18	214.62
876.49	214.83
876.80	214.81
877.11	214.78
877.42	214.80
877.73	214.81
878.04	214.81
878.35	214.78
878.66	214.77
878.96	214.80
879.27	214.78
879.58	214.75
879.89	214.78
880.20	214.85
880.51	214.86
880.82	214.86
881.12	214.87
881.43	214.80
881.74	214.81
882.05	214.80
882.36	214.83
882.67	214.84
882.97	214.63
883.28	214.63
883.59	214.63
883.90	214.62
884.21	214.65
884.51	214.64
884.82	214.62
885.13	214.61
885.44	214.58
885.74	214.58
886.05	214.53
886.36	214.49
886.67	214.41
886.98	214.53
887.28	214.54
887.59	214.55
887.90	214.57
888.20	214.53
888.51	214.58
888.82	214.54
889.13	214.54
889.43	214.74
889.74	214.71
890.05	214.71
890.35	214.69
890.66	214.66
890.97	214.63
891.28	214.62
891.58	214.62
891.89	214.64
892.20	214.64
892.50	214.64
892.81	214.64
893.12	214.65
893.42	214.53
893.73	214.54
894.04	214.51
894.34	214.51
894.65	214.52
894.95	214.47
895.26	214.47
895.57	214.56
895.87	214.34
896.18	214.37
896.48	214.41
896.79	214.44
897.10	214.45
897.40	214.47
897.71	214.48
898.01	214.46
898.32	214.51
898.63	214.48
898.93	214.51
899.24	214.52
899.54	214.48
899.85	214.48
900.15	214.46
900.46	214.49
900.76	214.51
901.07	214.50
901.38	214.51
901.68	214.57
901.99	214.46
902.29	214.47
902.60	214.47
902.90	214.43
903.21	214.44
903.51	214.41
903.82	214.43
904.12	214.44
904.43	214.43
904.73	214.41
905.03	214.44
905.34	214.65
905.64	214.62
905.95	214.65
906.25	214.65
906.56	214.64
906.86	214.64
907.17	214.63
907.47	214.65
907.77	214.63
908.08	214.54
908.38	214.58
908.69	214.60
908.99	214.63
909.30	214.63
909.60	214.59
909.90	214.64
910.21	214.62
910.51	214.58
910.81	214.59
911.12	214.59
911.42	214.61
911.73	214.37
912.03	214.43
912.33	214.44
912.64	214.46
912.94	214.43
913.24	214.36
913.55	214.35
913.85	214.34
914.15	214.39
914.46	214.44
914.76	214.38
915.06	214.38
915.37	214.35
915.67	214.35
915.97	214.36
916.27	214.29
916.58	214.29
916.88	214.27
917.18	214.27
917.49	214.42
917.79	214.38
918.09	214.40
918.39	214.42
918.70	214.44
919.00	214.43
919.30	214.52
919.60	214.54
919.91	214.49
920.21	214.46
920.51	214.42
920.81	214.40
921.12	214.44
921.42	214.43
921.72	214.46
922.02	214.46
922.32	214.49
922.63	214.51
922.93	214.57
923.23	214.60
923.53	214.60
923.83	214.47
924.13	214.46
924.44	214.47
924.74	214.48
925.04	214.51
925.34	214.48
925.64	214.43
925.94	214.44
926.24	214.58
926.55	214.59
926.85	214.60
927.15	214.62
927.45	214.60
927.75	214.61
928.05	214.56
928.35	214.56
928.65	214.57
928.95	214.56
929.26	214.53
929.56	214.57
929.86	214.59
930.16	214.56
930.46	214.60
930.76	214.60
931.06	214.53
931.36	214.47
931.66	214.53
931.96	214.52
932.26	214.50
932.56	214.43
932.86	214.44
933.16	214.46
933.46	214.44
933.76	214.41
934.06	214.46
934.36	214.54
934.66	214.51
934.96	214.49
935.26	214.51
935.56	214.53
935.86	214.50
936.16	214.47
936.46	214.47
936.76	214.45
937.06	214.42
937.36	214.45
937.66	214.48
937.96	214.45
938.26	214.41
938.56	214.42
938.86	214.42
939.16	214.49
939.46	214.51
939.76	214.53
940.06	214.52
940.35	214.47
940.65	214.37
940.95	214.36
941.25	214.32
941.55	214.30
941.85	214.28
942.15	214.34
942.45	214.39
942.75	214.39
943.04	214.39
943.34	214.43
943.64	214.40
943.94	214.33
944.24	214.34
944.54	214.34
944.84	214.34
945.13	214.32
945.43	214.25
945.73	214.26
946.03	214.23
946.33	214.21
946.62	214.21
946.92	214.22
947.22	214.28
947.52	214.30
947.82	214.32
948.11	214.30
948.41	214.22
948.71	214.16
949.01	214.16
949.31	214.14
949.60	214.12
949.90	214.18
950.20	214.18
950.50	214.16
950.79	214.15
951.09	214.18
951.39	214.16
951.69	214.15
951.98	214.19
952.28	214.18
952.58	214.20
952.87	214.19
953.17	214.23
953.47	214.20
953.76	214.19
954.06	214.15
954.36	214.10
954.66	214.10
954.95	214.18
955.25	214.19
955.55	214.18
955.84	214.14
956.14	214.14
956.44	214.18
956.73	214.16
957.03	214.17
957.32	214.13
957.62	214.13
957.92	214.15
958.21	214.11
958.51	214.38
958.81	214.39
959.10	214.42
959.40	214.47
959.69	214.49
959.99	214.55
960.29	214.60
960.58	214.58
960.88	214.66
961.17	214.62
961.47	214.62
961.76	214.64
962.06	214.71
962.36	214.65
962.65	214.63
962.95	214.67
963.24	214.65
963.54	214.67
963.83	214.69
964.13	214.67
964.42	214.63
964.72	214.44
965.01	214.46
965.31	214.42
965.60	214.38
965.90	214.50
966.19	214.45
966.49	214.42
966.78	214.45
967.08	214.43
967.37	214.44
967.67	214.42
967.96	214.42
968.26	214.35
968.55	214.41
968.85	214.37
969.14	214.34
969.43	214.34
969.73	214.36
970.02	214.34
970.32	214.33
970.61	214.36
970.91	214.30
971.20	214.25
971.49	214.27
971.79	214.26
972.08	214.10
972.38	214.08
972.67	214.07
972.96	214.10
973.26	214.03
973.55	214.06
973.85	214.04
974.14	214.02
974.43	214.06
974.73	214.00
975.02	214.02
975.31	214.02
975.61	214.03
975.90	213.97
976.19	213.95
976.49	213.97
976.78	213.96
977.07	213.96
977.37	214.00
977.66	214.00
977.95	213.98
978.24	214.03
978.54	214.08
978.83	214.08
979.12	214.07
979.42	214.08
979.71	214.03
980.00	214.05
980.29	214.09
980.59	214.04
980.88	214.11
981.17	214.10
981.46	214.09
981.76	214.11
982.05	214.16
982.34	214.18
982.63	214.17
982.93	214.21
983.22	214.25
983.51	214.22
983.80	214.26
984.09	214.25
984.39	214.19
984.68	214.16
984.97	214.14
985.26	214.16
985.55	214.18
985.85	214.15
986.14	214.17
986.43	214.19
986.72	214.19
987.01	214.10
987.30	214.12
987.59	214.10
987.89	214.11
988.18	214.08
988.47	214.05
988.76	214.03
989.05	213.98
989.34	213.97
989.63	214.06
989.92	214.02
990.22	214.02
990.51	214.07
990.80	214.06
991.09	214.07
991.38	214.09
991.67	214.07
991.96	214.05
992.25	214.05
992.54	214.02
992.83	214.04
993.12	214.09
993.41	214.10
993.70	214.19
993.99	214.23
994.28	214.23
994.58	214.26
994.87	214.24
995.16	214.23
995.45	214.21
995.74	214.09
996.03	214.11
996.32	214.12
996.61	214.14
996.90	214.13
997.19	214.13
997.48	214.13
997.77	214.10
998.06	214.14
998.34	214.14
998.63	214.14
998.92	214.12
999.21	214.12
999.50	214.14
999.79	214.10
1000.08	214.08
1000.37	214.10
1000.66	214.07
1000.95	214.11
1001.24	214.14
1001.53	214.16
1001.82	214.20
1002.11	214.16
1002.40	214.18
1002.68	214.20
1002.97	214.37
1003.26	214.33
1003.55	214.27
1003.84	214.28
1004.13	214.32
1004.42	214.37
1004.71	214.38
1004.99	214.37
1005.28	214.43
1005.57	214.44
1005.86	214.39
1006.15	214.39
1006.44	214.36
1006.72	214.41
1007.01	214.41
1007.30	214.39
1007.59	214.39
1007.88	214.35
1008.17	214.36
1008.45	214.34
1008.74	214.27
1009.03	214.14
1009.32	214.17
1009.60	214.18
1009.89	214.18
1010.18	214.11
1010.47	214.07
1010.76	214.06
1011.04	214.04
1011.33	214.07
1011.62	214.06
1011.91	214.09
1012.19	214.07
1012.48	214.08
1012.77	214.13
1013.05	214.25
1013.34	214.29
1013.63	214.26
1013.92	214.29
1014.20	214.28
1014.49	214.31
1014.78	214.32
1015.06	214.27
1015.35	214.28
1015.64	214.31
1015.92	214.35
1016.21	214.33
1016.50	214.32
1016.78	214.32
1017.07	214.34
1017.36	214.27
1017.64	214.23
1017.93	214.25
1018.22	214.23
1018.50	214.24
1018.79	214.17
1019.08	214.04
1019.36	214.04
1019.65	214.02
1019.93	214.08
1020.22	214.14
1020.51	214.20
1020.79	214.19
1021.08	213.54
1021.36	214.00
1021.65	214.05
1021.94	213.89
1022.22	214.63
1022.51	213.60
1022.79	215.37
1023.08	214.60
1023.36	216.01
1023.65	213.97
>>>>>End Processed Spectral Data<<<<<
