SpectraSuite Data File
++++++++++++++++++++++++++++++++++++
Date: Tue Jan 29 16:20:19 EST 2013
User: group
Dark Spectrum Present: No
Reference Spectrum Present: No
Number of Sampled Component Spectra: 1
Spectrometers: USB2E7196
Integration Time (usec): 65000 (USB2E7196)
Spectra Averaged: 100 (USB2E7196)
Boxcar Smoothing: 10 (USB2E7196)
Correct for Electrical Dark: No (USB2E7196)
Strobe/Lamp Enabled: No (USB2E7196)
Correct for Detector Non-linearity: No (USB2E7196)
Correct for Stray Light: No (USB2E7196)
Number of Pixels in Processed Spectrum: 2048
>>>>>Begin Processed Spectral Data<<<<<
339.09	0.00
339.48	202.81
339.86	204.11
340.24	205.60
340.63	206.90
341.01	211.17
341.39	209.40
341.78	211.14
342.16	213.40
342.54	212.86
342.93	201.90
343.31	212.11
343.69	212.65
344.07	213.11
344.46	213.57
344.84	213.98
345.22	214.16
345.60	214.47
345.99	214.70
346.37	214.79
346.75	214.93
347.13	214.99
347.52	215.02
347.90	215.11
348.28	215.18
348.66	215.27
349.05	215.26
349.43	215.30
349.81	215.38
350.19	215.42
350.57	215.50
350.96	215.57
351.34	215.63
351.72	215.71
352.10	215.79
352.48	215.84
352.87	215.89
353.25	215.95
353.63	215.98
354.01	216.00
354.39	216.08
354.77	216.10
355.15	216.23
355.54	216.28
355.92	216.28
356.30	216.32
356.68	216.51
357.06	216.57
357.44	216.58
357.82	216.62
358.20	216.67
358.58	216.72
358.97	216.76
359.35	216.86
359.73	216.97
360.11	217.02
360.49	217.05
360.87	217.08
361.25	217.18
361.63	217.29
362.01	217.32
362.39	217.31
362.77	217.33
363.15	217.35
363.53	217.37
363.91	217.40
364.29	217.43
364.67	217.24
365.05	217.29
365.43	217.31
365.81	217.35
366.19	217.48
366.57	217.55
366.95	217.57
367.33	217.51
367.71	217.49
368.09	217.56
368.47	217.55
368.85	217.55
369.23	217.54
369.61	217.43
369.99	217.50
370.37	217.51
370.75	217.60
371.13	217.56
371.51	217.49
371.89	217.48
372.27	217.47
372.65	217.45
373.03	217.41
373.41	217.38
373.78	217.31
374.16	217.14
374.54	217.03
374.92	216.97
375.30	216.93
375.68	216.86
376.06	216.80
376.44	216.78
376.82	216.75
377.19	216.70
377.57	216.66
377.95	216.55
378.33	216.52
378.71	216.33
379.09	216.32
379.47	216.35
379.84	216.30
380.22	216.24
380.60	216.20
380.98	216.15
381.36	216.13
381.73	216.08
382.11	216.12
382.49	216.10
382.87	216.09
383.25	216.07
383.62	216.27
384.00	216.18
384.38	216.16
384.76	216.16
385.13	216.19
385.51	216.17
385.89	216.12
386.27	216.09
386.64	216.11
387.02	216.03
387.40	215.97
387.78	215.94
388.15	215.92
388.53	215.88
388.91	215.86
389.29	215.79
389.66	215.82
390.04	215.77
390.42	215.80
390.79	215.77
391.17	215.73
391.55	215.51
391.92	215.52
392.30	215.52
392.68	215.48
393.05	215.46
393.43	215.45
393.81	215.45
394.18	215.41
394.56	215.44
394.94	215.51
395.31	215.51
395.69	215.63
396.06	215.66
396.44	215.69
396.82	215.70
397.19	215.86
397.57	215.85
397.95	215.91
398.32	215.87
398.70	215.92
399.07	216.03
399.45	216.05
399.82	216.07
400.20	216.13
400.58	216.18
400.95	216.17
401.33	216.29
401.70	216.50
402.08	216.64
402.45	216.72
402.83	216.83
403.20	216.95
403.58	217.00
403.95	217.17
404.33	217.35
404.71	217.52
405.08	217.76
405.46	217.92
405.83	218.11
406.21	218.31
406.58	218.56
406.96	218.78
407.33	219.07
407.70	219.39
408.08	219.85
408.45	220.21
408.83	220.62
409.20	220.93
409.58	221.23
409.95	221.64
410.33	222.10
410.70	222.55
411.08	223.09
411.45	223.64
411.82	224.20
412.20	224.87
412.57	225.70
412.95	226.26
413.32	227.09
413.69	227.94
414.07	228.87
414.44	229.82
414.82	230.85
415.19	232.02
415.56	233.18
415.94	234.30
416.31	235.69
416.68	237.06
417.06	238.69
417.43	240.21
417.81	241.94
418.18	243.69
418.55	245.61
418.93	247.62
419.30	249.72
419.67	251.91
420.04	254.17
420.42	256.50
420.79	259.29
421.16	262.02
421.54	264.88
421.91	267.77
422.28	270.83
422.66	274.04
423.03	277.23
423.40	280.54
423.77	284.10
424.15	287.67
424.52	291.43
424.89	295.57
425.26	299.55
425.64	303.40
426.01	307.63
426.38	312.03
426.75	316.49
427.13	321.10
427.50	326.01
427.87	331.10
428.24	336.20
428.61	341.09
428.99	346.58
429.36	352.44
429.73	358.28
430.10	364.07
430.47	370.07
430.85	376.28
431.22	382.91
431.59	389.87
431.96	396.65
432.33	404.06
432.70	411.18
433.08	419.60
433.45	427.52
433.82	435.46
434.19	444.16
434.56	452.77
434.93	461.04
435.30	469.17
435.68	478.13
436.05	486.99
436.42	495.72
436.79	503.74
437.16	512.40
437.53	521.52
437.90	530.49
438.27	539.34
438.64	548.48
439.01	556.85
439.38	564.35
439.75	571.60
440.13	579.91
440.50	587.69
440.87	594.05
441.24	600.59
441.61	607.80
441.98	613.14
442.35	619.37
442.72	625.55
443.09	631.50
443.46	635.21
443.83	637.71
444.20	639.94
444.57	643.00
444.94	644.48
445.31	645.94
445.68	647.31
446.05	647.86
446.42	647.00
446.79	646.07
447.16	645.01
447.53	644.23
447.90	640.94
448.27	637.66
448.64	633.05
449.01	629.76
449.37	623.93
449.74	618.35
450.11	611.56
450.48	604.30
450.85	597.00
451.22	590.67
451.59	584.56
451.96	578.78
452.33	571.06
452.70	564.03
453.07	555.63
453.43	547.14
453.80	539.01
454.17	531.17
454.54	523.70
454.91	515.62
455.28	507.77
455.65	500.41
456.02	493.08
456.38	486.86
456.75	479.12
457.12	472.67
457.49	466.26
457.86	460.17
458.23	454.91
458.59	449.05
458.96	443.11
459.33	437.96
459.70	432.69
460.07	428.50
460.43	423.70
460.80	419.20
461.17	415.33
461.54	411.23
461.91	407.27
462.27	403.19
462.64	399.78
463.01	396.02
463.38	392.44
463.74	388.77
464.11	385.56
464.48	382.83
464.85	379.78
465.21	377.40
465.58	374.81
465.95	371.69
466.32	369.14
466.68	366.54
467.05	363.94
467.42	361.43
467.78	358.80
468.15	356.25
468.52	354.40
468.88	351.93
469.25	349.71
469.62	347.94
469.98	346.07
470.35	344.37
470.72	342.71
471.08	340.94
471.45	339.50
471.82	338.00
472.18	336.33
472.55	335.13
472.92	333.76
473.28	332.54
473.65	331.41
474.02	330.32
474.38	329.48
474.75	328.78
475.11	327.98
475.48	327.42
475.85	327.01
476.21	326.52
476.58	326.15
476.94	325.93
477.31	325.66
477.67	325.41
478.04	325.30
478.41	325.24
478.77	325.42
479.14	325.37
479.50	325.52
479.87	325.82
480.23	326.16
480.60	326.40
480.96	326.68
481.33	327.27
481.69	327.83
482.06	328.35
482.42	328.82
482.79	329.46
483.15	330.25
483.52	331.19
483.88	332.06
484.25	333.03
484.61	334.04
484.98	335.12
485.34	336.44
485.71	337.77
486.07	339.24
486.44	340.55
486.80	342.20
487.17	343.86
487.53	345.71
487.90	347.59
488.26	349.63
488.62	351.82
488.99	353.89
489.35	356.14
489.72	358.58
490.08	361.12
490.44	363.68
490.81	366.39
491.17	369.12
491.54	372.18
491.90	375.21
492.26	378.52
492.63	381.93
492.99	385.47
493.36	389.15
493.72	393.10
494.08	397.19
494.45	401.43
494.81	405.84
495.17	410.32
495.54	415.03
495.90	419.88
496.26	424.87
496.63	430.08
496.99	435.42
497.35	440.97
497.72	446.82
498.08	452.85
498.44	458.91
498.80	465.39
499.17	471.85
499.53	478.57
499.89	485.50
500.26	492.54
500.62	499.70
500.98	507.18
501.34	514.62
501.71	522.44
502.07	530.22
502.43	538.24
502.79	546.33
503.16	554.76
503.52	563.37
503.88	572.08
504.24	581.18
504.60	590.34
504.97	599.60
505.33	608.87
505.69	618.67
506.05	628.64
506.41	638.49
506.78	648.66
507.14	658.96
507.50	669.45
507.86	680.24
508.22	691.05
508.59	701.70
508.95	712.79
509.31	724.04
509.67	735.61
510.03	747.08
510.39	758.99
510.75	770.89
511.12	782.84
511.48	795.03
511.84	807.26
512.20	819.66
512.56	832.38
512.92	845.22
513.28	857.96
513.64	870.79
514.00	883.68
514.37	896.67
514.73	909.86
515.09	922.90
515.45	935.73
515.81	948.76
516.17	962.20
516.53	975.54
516.89	988.70
517.25	1001.81
517.61	1015.40
517.97	1028.72
518.33	1041.96
518.69	1055.49
519.05	1069.24
519.41	1082.96
519.77	1096.79
520.13	1110.23
520.49	1123.53
520.85	1136.98
521.21	1150.23
521.57	1163.88
521.93	1176.97
522.29	1190.65
522.65	1204.37
523.01	1218.00
523.37	1231.35
523.73	1244.67
524.09	1257.80
524.45	1271.31
524.81	1284.87
525.17	1298.24
525.53	1311.46
525.89	1324.74
526.25	1337.95
526.61	1350.68
526.97	1363.81
527.33	1376.85
527.68	1390.25
528.04	1403.74
528.40	1416.78
528.76	1430.28
529.12	1443.34
529.48	1456.65
529.84	1469.05
530.20	1481.69
530.56	1494.31
530.91	1507.49
531.27	1520.42
531.63	1533.18
531.99	1545.83
532.35	1558.09
532.71	1570.40
533.07	1583.30
533.42	1595.54
533.78	1607.61
534.14	1619.67
534.50	1630.85
534.86	1642.44
535.21	1653.27
535.57	1664.77
535.93	1676.05
536.29	1686.95
536.65	1698.34
537.00	1709.38
537.36	1720.66
537.72	1731.72
538.08	1743.13
538.44	1754.02
538.79	1765.13
539.15	1776.06
539.51	1786.76
539.87	1798.01
540.22	1808.80
540.58	1819.76
540.94	1830.66
541.29	1841.09
541.65	1850.88
542.01	1861.32
542.37	1871.30
542.72	1881.44
543.08	1891.10
543.44	1901.57
543.79	1910.93
544.15	1920.34
544.51	1930.19
544.87	1939.92
545.22	1949.10
545.58	1957.95
545.94	1966.74
546.29	1975.13
546.65	1983.45
547.01	1991.66
547.36	1999.27
547.72	2006.93
548.07	2014.25
548.43	2021.86
548.79	2029.66
549.14	2037.84
549.50	2046.25
549.86	2054.13
550.21	2061.53
550.57	2069.28
550.92	2075.99
551.28	2083.45
551.64	2090.74
551.99	2098.15
552.35	2105.34
552.70	2112.18
553.06	2118.70
553.41	2125.02
553.77	2131.60
554.13	2137.97
554.48	2144.97
554.84	2152.12
555.19	2158.74
555.55	2165.33
555.90	2171.66
556.26	2178.45
556.61	2184.52
556.97	2189.37
557.32	2195.15
557.68	2201.60
558.03	2207.28
558.39	2212.67
558.74	2218.65
559.10	2224.05
559.45	2229.68
559.81	2235.29
560.16	2240.73
560.52	2246.76
560.87	2253.24
561.23	2259.02
561.58	2265.58
561.94	2270.84
562.29	2275.53
562.64	2281.73
563.00	2287.51
563.35	2293.17
563.71	2298.79
564.06	2304.50
564.42	2310.67
564.77	2315.84
565.12	2321.22
565.48	2326.49
565.83	2331.95
566.19	2337.34
566.54	2342.81
566.89	2347.57
567.25	2352.39
567.60	2358.20
567.96	2363.28
568.31	2367.86
568.66	2372.35
569.02	2376.45
569.37	2380.36
569.72	2384.98
570.08	2388.57
570.43	2391.63
570.78	2394.78
571.14	2397.41
571.49	2400.67
571.84	2404.28
572.20	2407.19
572.55	2410.20
572.90	2412.58
573.26	2415.70
573.61	2418.59
573.96	2420.93
574.31	2422.95
574.67	2424.78
575.02	2425.55
575.37	2427.19
575.72	2428.06
576.08	2429.62
576.43	2429.94
576.78	2430.53
577.13	2432.21
577.49	2433.50
577.84	2434.69
578.19	2436.20
578.54	2436.88
578.90	2437.67
579.25	2437.62
579.60	2437.72
579.95	2436.97
580.30	2437.28
580.66	2436.73
581.01	2435.06
581.36	2432.77
581.71	2431.62
582.06	2430.68
582.42	2430.16
582.77	2428.19
583.12	2426.74
583.47	2425.59
583.82	2425.08
584.17	2423.96
584.53	2421.90
584.88	2419.94
585.23	2418.41
585.58	2416.25
585.93	2414.48
586.28	2412.46
586.63	2410.03
586.98	2408.11
587.34	2406.43
587.69	2403.90
588.04	2401.92
588.39	2400.64
588.74	2398.35
589.09	2395.68
589.44	2392.62
589.79	2390.14
590.14	2388.34
590.49	2385.62
590.84	2381.75
591.19	2378.68
591.54	2375.61
591.89	2371.84
592.25	2368.68
592.60	2364.52
592.95	2360.52
593.30	2356.59
593.65	2352.38
594.00	2348.13
594.35	2345.11
594.70	2340.54
595.05	2336.27
595.40	2330.86
595.75	2325.14
596.10	2321.59
596.45	2316.78
596.80	2312.20
597.15	2307.15
597.50	2301.22
597.85	2296.39
598.19	2291.33
598.54	2285.64
598.89	2280.47
599.24	2275.82
599.59	2269.70
599.94	2263.85
600.29	2257.84
600.64	2251.74
600.99	2244.83
601.34	2239.32
601.69	2232.28
602.04	2225.80
602.39	2219.01
602.74	2212.89
603.08	2207.39
603.43	2200.88
603.78	2194.15
604.13	2187.16
604.48	2179.82
604.83	2173.65
605.18	2167.44
605.53	2160.48
605.87	2153.40
606.22	2146.51
606.57	2138.64
606.92	2130.50
607.27	2123.51
607.62	2116.91
607.96	2110.01
608.31	2103.58
608.66	2095.81
609.01	2088.18
609.36	2081.23
609.70	2073.62
610.05	2065.83
610.40	2057.48
610.75	2049.16
611.10	2041.33
611.44	2032.28
611.79	2023.63
612.14	2013.69
612.49	2002.84
612.83	1993.37
613.18	1984.16
613.53	1974.81
613.88	1965.19
614.22	1956.70
614.57	1946.78
614.92	1936.03
615.27	1925.58
615.61	1915.34
615.96	1905.66
616.31	1895.96
616.65	1886.26
617.00	1876.52
617.35	1866.74
617.70	1856.82
618.04	1846.70
618.39	1836.47
618.74	1826.84
619.08	1817.11
619.43	1808.30
619.78	1799.95
620.12	1791.29
620.47	1781.53
620.82	1771.11
621.16	1761.22
621.51	1751.18
621.85	1741.32
622.20	1730.93
622.55	1720.35
622.89	1710.37
623.24	1700.58
623.59	1690.76
623.93	1680.47
624.28	1670.35
624.62	1660.16
624.97	1649.99
625.32	1640.05
625.66	1631.13
626.01	1622.24
626.35	1612.69
626.70	1602.54
627.04	1592.46
627.39	1582.24
627.73	1572.87
628.08	1563.82
628.43	1554.08
628.77	1544.67
629.12	1535.60
629.46	1527.77
629.81	1519.39
630.15	1509.83
630.50	1499.91
630.84	1489.34
631.19	1479.42
631.53	1470.17
631.88	1459.90
632.22	1449.63
632.57	1440.14
632.91	1429.84
633.26	1419.89
633.60	1410.18
633.95	1400.71
634.29	1390.99
634.64	1381.51
634.98	1371.41
635.32	1362.02
635.67	1353.49
636.01	1344.18
636.36	1334.44
636.70	1324.77
637.05	1315.19
637.39	1306.20
637.73	1297.44
638.08	1289.72
638.42	1281.50
638.77	1272.62
639.11	1264.39
639.45	1256.55
639.80	1248.03
640.14	1239.24
640.49	1230.24
640.83	1221.33
641.17	1213.02
641.52	1204.78
641.86	1196.20
642.20	1188.25
642.55	1179.41
642.89	1170.29
643.23	1161.52
643.58	1153.24
643.92	1144.06
644.26	1135.30
644.61	1126.72
644.95	1117.80
645.29	1108.49
645.64	1099.26
645.98	1090.56
646.32	1082.50
646.66	1073.88
647.01	1065.37
647.35	1057.03
647.69	1048.68
648.04	1040.36
648.38	1031.45
648.72	1022.67
649.06	1014.09
649.41	1005.75
649.75	997.85
650.09	989.98
650.43	981.90
650.78	973.50
651.12	965.68
651.46	958.20
651.80	950.82
652.14	943.50
652.49	935.96
652.83	928.47
653.17	920.75
653.51	913.04
653.85	905.61
654.20	898.23
654.54	890.78
654.88	883.38
655.22	876.12
655.56	869.02
655.90	862.06
656.25	855.35
656.59	848.44
656.93	841.36
657.27	834.23
657.61	827.11
657.95	820.94
658.29	814.95
658.64	808.78
658.98	802.19
659.32	795.54
659.66	789.10
660.00	782.69
660.34	776.55
660.68	770.39
661.02	764.01
661.36	758.02
661.70	752.12
662.05	746.50
662.39	740.91
662.73	735.47
663.07	730.08
663.41	724.36
663.75	718.53
664.09	712.69
664.43	707.19
664.77	701.87
665.11	695.98
665.45	690.02
665.79	684.14
666.13	678.47
666.47	673.01
666.81	667.56
667.15	662.14
667.49	656.90
667.83	651.59
668.17	646.33
668.51	641.19
668.85	636.22
669.19	631.25
669.53	626.22
669.87	621.06
670.21	616.28
670.55	611.55
670.89	607.12
671.23	602.84
671.57	598.41
671.91	594.00
672.25	589.82
672.58	585.70
672.92	581.65
673.26	577.66
673.60	573.67
673.94	569.87
674.28	566.26
674.62	562.46
674.96	558.66
675.30	555.16
675.64	551.46
675.97	547.89
676.31	544.26
676.65	540.61
676.99	537.20
677.33	533.29
677.67	529.65
678.01	525.79
678.34	522.10
678.68	518.53
679.02	515.01
679.36	511.27
679.70	507.59
680.04	503.96
680.37	500.49
680.71	497.11
681.05	493.85
681.39	490.49
681.73	487.31
682.06	484.25
682.40	481.11
682.74	477.87
683.08	474.58
683.42	471.38
683.75	468.37
684.09	465.27
684.43	462.41
684.77	459.46
685.10	456.54
685.44	453.65
685.78	450.66
686.12	447.79
686.45	445.09
686.79	442.39
687.13	439.85
687.46	437.20
687.80	434.50
688.14	431.67
688.48	429.09
688.81	426.41
689.15	423.83
689.49	421.22
689.82	418.74
690.16	416.15
690.50	413.66
690.83	411.13
691.17	408.61
691.51	406.14
691.84	403.87
692.18	401.64
692.52	399.36
692.85	397.28
693.19	395.18
693.52	392.97
693.86	390.74
694.20	388.54
694.53	386.39
694.87	384.24
695.21	382.11
695.54	379.96
695.88	377.80
696.21	375.56
696.55	373.42
696.88	371.35
697.22	369.37
697.56	367.48
697.89	365.57
698.23	363.77
698.56	361.97
698.90	360.19
699.23	358.32
699.57	356.51
699.90	354.60
700.24	352.75
700.58	350.97
700.91	349.30
701.25	347.73
701.58	346.15
701.92	344.54
702.25	342.93
702.59	341.28
702.92	339.69
703.26	338.12
703.59	336.63
703.93	335.35
704.26	333.90
704.60	332.37
704.93	330.91
705.26	329.40
705.60	327.90
705.93	326.38
706.27	324.99
706.60	323.65
706.94	322.46
707.27	321.07
707.61	319.76
707.94	318.45
708.27	316.93
708.61	315.43
708.94	314.08
709.28	312.78
709.61	311.52
709.94	310.31
710.28	309.18
710.61	308.00
710.95	306.57
711.28	305.48
711.61	304.33
711.95	303.18
712.28	302.02
712.61	300.88
712.95	299.83
713.28	298.84
713.61	297.75
713.95	296.58
714.28	295.57
714.61	294.50
714.95	293.45
715.28	292.39
715.61	291.41
715.95	290.42
716.28	289.46
716.61	288.53
716.95	287.51
717.28	286.55
717.61	285.57
717.94	284.68
718.28	283.66
718.61	282.80
718.94	281.90
719.27	281.05
719.61	280.21
719.94	279.32
720.27	278.32
720.60	277.44
720.94	276.60
721.27	275.84
721.60	275.14
721.93	274.42
722.27	273.86
722.60	273.22
722.93	272.54
723.26	271.90
723.59	271.18
723.93	270.61
724.26	269.93
724.59	269.31
724.92	268.69
725.25	268.19
725.59	267.59
725.92	267.06
726.25	266.45
726.58	265.92
726.91	265.34
727.24	264.82
727.57	264.27
727.91	263.70
728.24	263.12
728.57	262.56
728.90	261.99
729.23	261.32
729.56	260.84
729.89	260.28
730.22	259.71
730.55	259.18
730.89	258.60
731.22	258.07
731.55	257.58
731.88	257.09
732.21	256.52
732.54	256.01
732.87	255.52
733.20	255.08
733.53	254.57
733.86	254.13
734.19	253.64
734.52	253.18
734.85	252.92
735.18	252.45
735.51	252.09
735.84	251.68
736.17	251.31
736.50	250.79
736.83	250.62
737.16	250.26
737.49	249.88
737.82	249.48
738.15	249.12
738.48	248.72
738.81	248.33
739.14	247.92
739.47	247.53
739.80	247.15
740.13	246.80
740.46	246.42
740.79	246.04
741.12	245.69
741.45	245.34
741.78	244.88
742.11	244.62
742.44	244.21
742.77	243.89
743.10	243.53
743.43	243.20
743.75	242.63
744.08	242.50
744.41	242.12
744.74	241.75
745.07	241.38
745.40	241.10
745.73	240.83
746.06	240.51
746.39	240.18
746.71	239.83
747.04	239.43
747.37	239.12
747.70	238.83
748.03	238.54
748.36	238.28
748.68	237.97
749.01	237.63
749.34	237.34
749.67	237.05
750.00	236.82
750.33	236.70
750.65	236.48
750.98	235.97
751.31	235.74
751.64	235.57
751.97	235.45
752.29	235.19
752.62	234.84
752.95	234.59
753.28	234.33
753.60	234.09
753.93	233.97
754.26	233.77
754.59	233.49
754.91	233.21
755.24	232.96
755.57	232.76
755.90	232.49
756.22	232.25
756.55	232.04
756.88	231.77
757.20	231.41
757.53	231.12
757.86	230.93
758.19	230.77
758.51	230.53
758.84	230.21
759.17	230.00
759.49	229.82
759.82	229.74
760.15	229.57
760.47	229.40
760.80	229.12
761.13	228.92
761.45	228.71
761.78	228.56
762.11	228.36
762.43	228.13
762.76	227.95
763.08	227.82
763.41	227.66
763.74	227.50
764.06	227.33
764.39	227.19
764.71	227.06
765.04	226.87
765.37	226.69
765.69	226.55
766.02	226.38
766.34	226.26
766.67	226.02
767.00	225.92
767.32	225.88
767.65	225.89
767.97	225.76
768.30	225.64
768.62	225.48
768.95	225.37
769.27	225.29
769.60	225.23
769.92	225.05
770.25	224.88
770.57	224.74
770.90	224.63
771.22	224.50
771.55	224.35
771.87	224.23
772.20	224.13
772.52	224.19
772.85	224.34
773.17	224.22
773.50	224.10
773.82	224.00
774.15	223.79
774.47	223.58
774.80	223.49
775.12	223.45
775.45	223.36
775.77	223.29
776.09	223.17
776.42	223.07
776.74	223.06
777.07	222.98
777.39	222.94
777.72	222.85
778.04	222.82
778.36	222.76
778.69	222.70
779.01	222.62
779.33	222.36
779.66	222.08
779.98	222.00
780.31	221.96
780.63	221.94
780.95	221.93
781.28	221.86
781.60	221.75
781.92	221.66
782.25	221.59
782.57	221.51
782.89	221.43
783.22	221.37
783.54	221.25
783.86	221.22
784.19	221.11
784.51	221.10
784.83	220.99
785.16	220.88
785.48	220.80
785.80	220.75
786.12	220.69
786.45	220.60
786.77	220.57
787.09	220.50
787.42	220.37
787.74	220.30
788.06	220.27
788.38	220.22
788.71	220.11
789.03	220.09
789.35	220.09
789.67	220.02
789.99	219.97
790.32	219.89
790.64	219.87
790.96	220.00
791.28	219.86
791.61	219.80
791.93	219.79
792.25	219.74
792.57	219.88
792.89	219.80
793.21	219.77
793.54	219.68
793.86	219.61
794.18	219.59
794.50	219.50
794.82	219.42
795.14	219.41
795.47	219.41
795.79	219.34
796.11	219.22
796.43	219.17
796.75	219.11
797.07	219.09
797.39	219.01
797.71	218.84
798.04	218.84
798.36	218.82
798.68	218.75
799.00	218.73
799.32	218.54
799.64	218.53
799.96	218.49
800.28	218.51
800.60	218.47
800.92	218.44
801.24	218.41
801.56	218.37
801.89	218.28
802.21	218.27
802.53	218.22
802.85	218.26
803.17	218.34
803.49	218.28
803.81	218.24
804.13	218.15
804.45	218.07
804.77	218.02
805.09	217.98
805.41	217.93
805.73	217.86
806.05	217.80
806.37	217.78
806.69	217.74
807.01	217.69
807.33	217.68
807.65	217.59
807.97	217.64
808.28	217.61
808.60	217.61
808.92	217.54
809.24	217.65
809.56	217.54
809.88	217.44
810.20	217.44
810.52	217.41
810.84	217.38
811.16	217.33
811.48	217.30
811.80	217.37
812.12	217.35
812.43	217.37
812.75	217.38
813.07	217.34
813.39	217.30
813.71	217.24
814.03	217.20
814.35	217.18
814.67	217.07
814.98	217.04
815.30	217.01
815.62	216.96
815.94	216.81
816.26	216.78
816.58	216.73
816.89	216.74
817.21	216.70
817.53	216.70
817.85	216.70
818.17	216.70
818.48	216.58
818.80	216.62
819.12	216.56
819.44	216.50
819.76	216.45
820.07	216.44
820.39	216.42
820.71	216.43
821.03	216.41
821.34	216.38
821.66	216.39
821.98	216.38
822.30	216.38
822.61	216.46
822.93	216.46
823.25	216.43
823.57	216.38
823.88	216.43
824.20	216.44
824.52	216.46
824.83	216.42
825.15	216.38
825.47	216.36
825.79	216.35
826.10	216.35
826.42	216.33
826.74	216.35
827.05	216.33
827.37	216.31
827.69	216.28
828.00	216.29
828.32	216.28
828.64	216.25
828.95	216.35
829.27	216.29
829.58	216.29
829.90	216.33
830.22	216.35
830.53	216.26
830.85	216.21
831.17	216.12
831.48	216.15
831.80	216.15
832.11	216.10
832.43	216.10
832.75	216.05
833.06	216.18
833.38	216.10
833.69	216.09
834.01	216.08
834.32	216.08
834.64	216.00
834.96	215.99
835.27	215.97
835.59	215.90
835.90	215.84
836.22	215.82
836.53	215.77
836.85	215.73
837.16	215.93
837.48	215.95
837.79	216.03
838.11	216.01
838.42	216.01
838.74	216.02
839.05	215.99
839.37	215.99
839.68	215.84
840.00	215.81
840.31	215.81
840.63	215.78
840.94	215.73
841.26	215.76
841.57	215.72
841.88	215.74
842.20	215.69
842.51	215.68
842.83	215.66
843.14	215.83
843.46	215.85
843.77	215.73
844.08	215.71
844.40	215.64
844.71	215.59
845.03	215.55
845.34	215.55
845.65	215.51
845.97	215.55
846.28	215.60
846.60	215.64
846.91	215.62
847.22	215.63
847.54	215.70
847.85	215.70
848.16	215.70
848.48	215.64
848.79	215.71
849.10	215.73
849.42	215.75
849.73	215.54
850.04	215.50
850.36	215.42
850.67	215.44
850.98	215.47
851.30	215.48
851.61	215.49
851.92	215.49
852.23	215.58
852.55	215.53
852.86	215.52
853.17	215.57
853.49	215.61
853.80	215.63
854.11	215.64
854.42	215.67
854.74	215.67
855.05	215.71
855.36	215.63
855.67	215.65
855.99	215.65
856.30	215.86
856.61	215.84
856.92	215.86
857.23	215.85
857.55	215.80
857.86	215.80
858.17	215.85
858.48	215.82
858.79	215.76
859.11	215.80
859.42	215.78
859.73	215.72
860.04	215.67
860.35	215.65
860.66	215.57
860.98	215.55
861.29	215.57
861.60	215.53
861.91	215.57
862.22	215.49
862.53	215.45
862.84	215.26
863.16	215.33
863.47	215.32
863.78	215.29
864.09	215.33
864.40	215.34
864.71	215.33
865.02	215.33
865.33	215.31
865.64	215.27
865.95	215.26
866.27	215.40
866.58	215.40
866.89	215.40
867.20	215.41
867.51	215.37
867.82	215.34
868.13	215.41
868.44	215.35
868.75	215.42
869.06	215.44
869.37	215.45
869.68	215.37
869.99	215.36
870.30	215.40
870.61	215.40
870.92	215.37
871.23	215.34
871.54	215.38
871.85	215.44
872.16	215.47
872.47	215.46
872.78	215.32
873.09	215.36
873.40	215.33
873.71	215.32
874.02	215.36
874.33	215.37
874.64	215.34
874.95	215.35
875.26	215.32
875.56	215.28
875.87	215.29
876.18	215.29
876.49	215.50
876.80	215.46
877.11	215.42
877.42	215.45
877.73	215.46
878.04	215.41
878.35	215.42
878.66	215.40
878.96	215.40
879.27	215.40
879.58	215.37
879.89	215.38
880.20	215.44
880.51	215.42
880.82	215.39
881.12	215.38
881.43	215.33
881.74	215.28
882.05	215.30
882.36	215.26
882.67	215.29
882.97	215.06
883.28	215.07
883.59	215.03
883.90	215.05
884.21	215.08
884.51	215.07
884.82	214.99
885.13	214.98
885.44	214.96
885.74	214.99
886.05	214.99
886.36	214.95
886.67	214.89
886.98	214.97
887.28	214.99
887.59	214.96
887.90	214.99
888.20	215.00
888.51	215.02
888.82	214.99
889.13	215.00
889.43	215.15
889.74	215.12
890.05	215.15
890.35	215.12
890.66	215.07
890.97	215.06
891.28	215.06
891.58	215.08
891.89	215.09
892.20	215.05
892.50	215.05
892.81	215.06
893.12	215.06
893.42	214.97
893.73	214.97
894.04	215.00
894.34	215.01
894.65	215.03
894.95	214.99
895.26	215.01
895.57	215.12
895.87	214.93
896.18	214.96
896.48	214.95
896.79	214.95
897.10	214.98
897.40	214.99
897.71	215.00
898.01	214.99
898.32	214.97
898.63	214.99
898.93	214.95
899.24	214.98
899.54	214.94
899.85	214.93
900.15	214.91
900.46	214.90
900.76	214.90
901.07	214.90
901.38	214.92
901.68	214.93
901.99	214.84
902.29	214.86
902.60	214.81
902.90	214.79
903.21	214.77
903.51	214.75
903.82	214.82
904.12	214.80
904.43	214.81
904.73	214.81
905.03	214.78
905.34	214.99
905.64	214.95
905.95	214.96
906.25	214.95
906.56	214.97
906.86	214.94
907.17	214.95
907.47	214.95
907.77	214.94
908.08	214.93
908.38	214.92
908.69	214.92
908.99	215.00
909.30	215.04
909.60	215.02
909.90	215.01
910.21	214.92
910.51	214.88
910.81	214.88
911.12	214.89
911.42	214.92
911.73	214.72
912.03	214.77
912.33	214.79
912.64	214.80
912.94	214.76
913.24	214.74
913.55	214.71
913.85	214.70
914.15	214.74
914.46	214.76
914.76	214.75
915.06	214.73
915.37	214.69
915.67	214.67
915.97	214.70
916.27	214.65
916.58	214.67
916.88	214.69
917.18	214.67
917.49	214.81
917.79	214.78
918.09	214.79
918.39	214.78
918.70	214.83
919.00	214.81
919.30	214.90
919.60	214.92
919.91	214.91
920.21	214.92
920.51	214.87
920.81	214.85
921.12	214.89
921.42	214.90
921.72	214.92
922.02	214.93
922.32	214.97
922.63	214.97
922.93	215.09
923.23	215.10
923.53	215.09
923.83	214.97
924.13	214.99
924.44	215.00
924.74	215.07
925.04	215.05
925.34	215.06
925.64	214.98
925.94	214.97
926.24	215.09
926.55	215.08
926.85	215.11
927.15	215.08
927.45	215.08
927.75	215.06
928.05	215.05
928.35	215.02
928.65	215.06
928.95	215.09
929.26	215.01
929.56	215.03
929.86	215.09
930.16	215.06
930.46	215.02
930.76	215.02
931.06	214.91
931.36	214.87
931.66	214.92
931.96	214.95
932.26	214.96
932.56	214.87
932.86	214.84
933.16	214.87
933.46	214.85
933.76	214.79
934.06	214.86
934.36	214.94
934.66	214.93
934.96	214.87
935.26	214.87
935.56	214.90
935.86	214.86
936.16	214.80
936.46	214.82
936.76	214.81
937.06	214.79
937.36	214.84
937.66	214.83
937.96	214.81
938.26	214.79
938.56	214.80
938.86	214.80
939.16	214.87
939.46	214.85
939.76	214.87
940.06	214.90
940.35	214.83
940.65	214.72
940.95	214.75
941.25	214.71
941.55	214.68
941.85	214.64
942.15	214.69
942.45	214.74
942.75	214.73
943.04	214.77
943.34	214.82
943.64	214.80
943.94	214.78
944.24	214.78
944.54	214.77
944.84	214.76
945.13	214.71
945.43	214.66
945.73	214.66
946.03	214.65
946.33	214.61
946.62	214.63
946.92	214.64
947.22	214.68
947.52	214.69
947.82	214.70
948.11	214.68
948.41	214.61
948.71	214.55
949.01	214.57
949.31	214.56
949.60	214.55
949.90	214.53
950.20	214.56
950.50	214.53
950.79	214.50
951.09	214.51
951.39	214.53
951.69	214.54
951.98	214.57
952.28	214.58
952.58	214.59
952.87	214.57
953.17	214.59
953.47	214.54
953.76	214.57
954.06	214.54
954.36	214.53
954.66	214.59
954.95	214.63
955.25	214.63
955.55	214.65
955.84	214.61
956.14	214.66
956.44	214.65
956.73	214.64
957.03	214.67
957.32	214.71
957.62	214.71
957.92	214.72
958.21	214.74
958.51	214.97
958.81	214.99
959.10	215.03
959.40	215.07
959.69	215.10
959.99	215.12
960.29	215.14
960.58	215.13
960.88	215.16
961.17	215.14
961.47	215.17
961.76	215.14
962.06	215.18
962.36	215.12
962.65	215.13
962.95	215.15
963.24	215.12
963.54	215.08
963.83	215.09
964.13	215.09
964.42	215.02
964.72	214.87
965.01	214.89
965.31	214.89
965.60	214.84
965.90	214.96
966.19	214.91
966.49	214.92
966.78	214.92
967.08	214.88
967.37	214.88
967.67	214.82
967.96	214.84
968.26	214.82
968.55	214.88
968.85	214.88
969.14	214.88
969.43	214.89
969.73	214.85
970.02	214.87
970.32	214.85
970.61	214.86
970.91	214.78
971.20	214.77
971.49	214.71
971.79	214.72
972.08	214.58
972.38	214.57
972.67	214.57
972.96	214.59
973.26	214.59
973.55	214.68
973.85	214.70
974.14	214.69
974.43	214.73
974.73	214.69
975.02	214.67
975.31	214.66
975.61	214.68
975.90	214.70
976.19	214.64
976.49	214.67
976.78	214.69
977.07	214.69
977.37	214.68
977.66	214.69
977.95	214.66
978.24	214.66
978.54	214.73
978.83	214.70
979.12	214.70
979.42	214.72
979.71	214.66
980.00	214.66
980.29	214.68
980.59	214.62
980.88	214.66
981.17	214.67
981.46	214.67
981.76	214.68
982.05	214.71
982.34	214.73
982.63	214.70
982.93	214.67
983.22	214.71
983.51	214.69
983.80	214.74
984.09	214.77
984.39	214.76
984.68	214.68
984.97	214.69
985.26	214.66
985.55	214.66
985.85	214.60
986.14	214.63
986.43	214.62
986.72	214.62
987.01	214.54
987.30	214.50
987.59	214.50
987.89	214.48
988.18	214.41
988.47	214.43
988.76	214.44
989.05	214.42
989.34	214.38
989.63	214.46
989.92	214.46
990.22	214.42
990.51	214.43
990.80	214.48
991.09	214.47
991.38	214.52
991.67	214.48
991.96	214.51
992.25	214.49
992.54	214.44
992.83	214.46
993.12	214.49
993.41	214.56
993.70	214.65
993.99	214.69
994.28	214.74
994.58	214.77
994.87	214.73
995.16	214.75
995.45	214.73
995.74	214.62
996.03	214.65
996.32	214.67
996.61	214.67
996.90	214.63
997.19	214.65
997.48	214.61
997.77	214.61
998.06	214.58
998.34	214.54
998.63	214.56
998.92	214.56
999.21	214.58
999.50	214.58
999.79	214.50
1000.08	214.49
1000.37	214.48
1000.66	214.43
1000.95	214.49
1001.24	214.45
1001.53	214.47
1001.82	214.48
1002.11	214.40
1002.40	214.44
1002.68	214.48
1002.97	214.67
1003.26	214.64
1003.55	214.63
1003.84	214.63
1004.13	214.72
1004.42	214.73
1004.71	214.72
1004.99	214.70
1005.28	214.72
1005.57	214.72
1005.86	214.71
1006.15	214.66
1006.44	214.63
1006.72	214.65
1007.01	214.60
1007.30	214.62
1007.59	214.62
1007.88	214.62
1008.17	214.66
1008.45	214.66
1008.74	214.57
1009.03	214.45
1009.32	214.44
1009.60	214.45
1009.89	214.46
1010.18	214.35
1010.47	214.34
1010.76	214.38
1011.04	214.36
1011.33	214.40
1011.62	214.39
1011.91	214.38
1012.19	214.42
1012.48	214.43
1012.77	214.42
1013.05	214.56
1013.34	214.55
1013.63	214.54
1013.92	214.55
1014.20	214.52
1014.49	214.52
1014.78	214.54
1015.06	214.49
1015.35	214.49
1015.64	214.52
1015.92	214.55
1016.21	214.57
1016.50	214.56
1016.78	214.55
1017.07	214.58
1017.36	214.51
1017.64	214.52
1017.93	214.53
1018.22	214.51
1018.50	214.51
1018.79	214.49
1019.08	214.36
1019.36	214.35
1019.65	214.35
1019.93	214.40
1020.22	214.45
1020.51	214.54
1020.79	214.55
1021.08	214.31
1021.36	214.01
1021.65	214.26
1021.94	214.16
1022.22	213.91
1022.51	214.16
1022.79	215.27
1023.08	215.11
1023.36	217.06
1023.65	214.28
>>>>>End Processed Spectral Data<<<<<
