SpectraSuite Data File
++++++++++++++++++++++++++++++++++++
Date: Tue Jan 29 16:37:23 EST 2013
User: group
Dark Spectrum Present: No
Reference Spectrum Present: No
Number of Sampled Component Spectra: 1
Spectrometers: USB2E7196
Integration Time (usec): 65000 (USB2E7196)
Spectra Averaged: 100 (USB2E7196)
Boxcar Smoothing: 10 (USB2E7196)
Correct for Electrical Dark: No (USB2E7196)
Strobe/Lamp Enabled: No (USB2E7196)
Correct for Detector Non-linearity: No (USB2E7196)
Correct for Stray Light: No (USB2E7196)
Number of Pixels in Processed Spectrum: 2048
>>>>>Begin Processed Spectral Data<<<<<
339.09	0.00
339.48	201.68
339.86	203.18
340.24	204.42
340.63	205.72
341.01	210.39
341.39	208.45
341.78	209.56
342.16	211.34
342.54	211.09
342.93	200.67
343.31	210.83
343.69	211.37
344.07	211.85
344.46	212.29
344.84	212.69
345.22	212.85
345.60	213.13
345.99	213.36
346.37	213.50
346.75	213.63
347.13	213.72
347.52	213.83
347.90	213.96
348.28	214.01
348.66	214.13
349.05	214.06
349.43	214.10
349.81	214.16
350.19	214.22
350.57	214.31
350.96	214.41
351.34	214.52
351.72	214.63
352.10	214.71
352.48	214.80
352.87	214.86
353.25	214.94
353.63	214.98
354.01	215.04
354.39	215.14
354.77	215.23
355.15	215.40
355.54	215.44
355.92	215.46
356.30	215.60
356.68	215.84
357.06	215.97
357.44	216.05
357.82	216.13
358.20	216.24
358.58	216.29
358.97	216.35
359.35	216.42
359.73	216.51
360.11	216.57
360.49	216.67
360.87	216.74
361.25	216.83
361.63	216.99
362.01	217.04
362.39	217.07
362.77	217.14
363.15	217.13
363.53	217.19
363.91	217.23
364.29	217.22
364.67	217.01
365.05	217.03
365.43	217.04
365.81	217.10
366.19	217.21
366.57	217.31
366.95	217.34
367.33	217.31
367.71	217.31
368.09	217.39
368.47	217.36
368.85	217.37
369.23	217.40
369.61	217.32
369.99	217.38
370.37	217.36
370.75	217.45
371.13	217.36
371.51	217.29
371.89	217.29
372.27	217.29
372.65	217.29
373.03	217.27
373.41	217.24
373.78	217.20
374.16	217.06
374.54	216.98
374.92	216.93
375.30	216.91
375.68	216.85
376.06	216.80
376.44	216.75
376.82	216.70
377.19	216.58
377.57	216.55
377.95	216.45
378.33	216.40
378.71	216.22
379.09	216.26
379.47	216.25
379.84	216.18
380.22	216.12
380.60	216.05
380.98	215.98
381.36	215.93
381.73	215.83
382.11	215.82
382.49	215.78
382.87	215.71
383.25	215.66
383.62	215.85
384.00	215.78
384.38	215.75
384.76	215.74
385.13	215.83
385.51	215.75
385.89	215.69
386.27	215.65
386.64	215.69
387.02	215.60
387.40	215.55
387.78	215.54
388.15	215.48
388.53	215.48
388.91	215.44
389.29	215.41
389.66	215.44
390.04	215.39
390.42	215.37
390.79	215.40
391.17	215.37
391.55	215.12
391.92	215.07
392.30	215.07
392.68	215.04
393.05	215.02
393.43	215.03
393.81	215.03
394.18	215.02
394.56	215.00
394.94	215.13
395.31	215.14
395.69	215.19
396.06	215.26
396.44	215.29
396.82	215.33
397.19	215.45
397.57	215.45
397.95	215.52
398.32	215.48
398.70	215.53
399.07	215.65
399.45	215.69
399.82	215.76
400.20	215.79
400.58	215.83
400.95	215.80
401.33	215.89
401.70	216.15
402.08	216.24
402.45	216.34
402.83	216.44
403.20	216.54
403.58	216.63
403.95	216.79
404.33	216.91
404.71	217.01
405.08	217.29
405.46	217.43
405.83	217.62
406.21	217.81
406.58	218.03
406.96	218.22
407.33	218.48
407.70	218.79
408.08	219.25
408.45	219.62
408.83	220.03
409.20	220.39
409.58	220.64
409.95	221.09
410.33	221.55
410.70	221.95
411.08	222.50
411.45	223.11
411.82	223.66
412.20	224.37
412.57	225.25
412.95	225.80
413.32	226.66
413.69	227.49
414.07	228.45
414.44	229.45
414.82	230.50
415.19	231.67
415.56	232.86
415.94	233.98
416.31	235.43
416.68	236.83
417.06	238.42
417.43	239.96
417.81	241.73
418.18	243.52
418.55	245.45
418.93	247.49
419.30	249.57
419.67	251.82
420.04	254.12
420.42	256.49
420.79	259.33
421.16	262.16
421.54	265.08
421.91	268.07
422.28	271.18
422.66	274.52
423.03	277.78
423.40	281.15
423.77	284.81
424.15	288.43
424.52	292.33
424.89	296.49
425.26	300.54
425.64	304.48
426.01	308.77
426.38	313.29
426.75	317.85
427.13	322.58
427.50	327.56
427.87	332.76
428.24	338.01
428.61	343.00
428.99	348.49
429.36	354.53
429.73	360.44
430.10	366.33
430.47	372.36
430.85	378.71
431.22	385.40
431.59	392.53
431.96	399.38
432.33	406.82
432.70	414.05
433.08	422.63
433.45	430.65
433.82	438.65
434.19	447.57
434.56	456.29
434.93	464.72
435.30	473.03
435.68	482.17
436.05	491.13
436.42	500.07
436.79	508.22
437.16	517.01
437.53	526.36
437.90	535.49
438.27	544.51
438.64	553.74
439.01	562.33
439.38	569.92
439.75	577.28
440.13	585.77
440.50	593.77
440.87	600.25
441.24	606.88
441.61	614.32
441.98	619.66
442.35	625.99
442.72	632.30
443.09	638.41
443.46	642.11
443.83	644.64
444.20	646.88
444.57	650.01
444.94	651.44
445.31	652.84
445.68	654.23
446.05	654.83
446.42	654.02
446.79	653.08
447.16	651.98
447.53	651.29
447.90	647.91
448.27	644.65
448.64	639.99
449.01	636.71
449.37	630.78
449.74	625.12
450.11	618.27
450.48	610.83
450.85	603.31
451.22	596.84
451.59	590.65
451.96	584.76
452.33	576.87
452.70	569.76
453.07	561.28
453.43	552.70
453.80	544.43
454.17	536.43
454.54	528.81
454.91	520.63
455.28	512.55
455.65	505.19
456.02	497.66
456.38	491.30
456.75	483.35
457.12	476.74
457.49	470.21
457.86	463.95
458.23	458.58
458.59	452.66
458.96	446.64
459.33	441.40
459.70	436.03
460.07	431.79
460.43	426.87
460.80	422.23
461.17	418.22
461.54	413.95
461.91	409.89
462.27	405.74
462.64	402.28
463.01	398.46
463.38	394.69
463.74	390.97
464.11	387.67
464.48	384.85
464.85	381.78
465.21	379.31
465.58	376.66
465.95	373.49
466.32	370.81
466.68	368.24
467.05	365.57
467.42	363.02
467.78	360.34
468.15	357.76
468.52	355.86
468.88	353.38
469.25	351.18
469.62	349.42
469.98	347.50
470.35	345.67
470.72	343.97
471.08	342.19
471.45	340.70
471.82	339.20
472.18	337.54
472.55	336.31
472.92	334.91
473.28	333.68
473.65	332.52
474.02	331.39
474.38	330.48
474.75	329.76
475.11	328.89
475.48	328.28
475.85	327.84
476.21	327.36
476.58	326.96
476.94	326.70
477.31	326.38
477.67	326.09
478.04	325.93
478.41	325.93
478.77	326.08
479.14	326.02
479.50	326.16
479.87	326.47
480.23	326.80
480.60	327.07
480.96	327.37
481.33	328.00
481.69	328.60
482.06	329.10
482.42	329.55
482.79	330.17
483.15	330.96
483.52	331.92
483.88	332.77
484.25	333.73
484.61	334.78
484.98	335.82
485.34	337.16
485.71	338.53
486.07	339.96
486.44	341.25
486.80	342.87
487.17	344.51
487.53	346.34
487.90	348.16
488.26	350.15
488.62	352.29
488.99	354.32
489.35	356.46
489.72	358.84
490.08	361.37
490.44	363.96
490.81	366.68
491.17	369.38
491.54	372.30
491.90	375.33
492.26	378.55
492.63	381.97
492.99	385.45
493.36	389.13
493.72	393.01
494.08	397.00
494.45	401.19
494.81	405.60
495.17	410.00
495.54	414.79
495.90	419.64
496.26	424.58
496.63	429.82
496.99	435.30
497.35	440.87
497.72	446.72
498.08	452.65
498.44	458.77
498.80	465.20
499.17	471.75
499.53	478.48
499.89	485.43
500.26	492.42
500.62	499.50
500.98	506.91
501.34	514.35
501.71	522.22
502.07	530.13
502.43	538.13
502.79	546.36
503.16	554.70
503.52	563.33
503.88	572.07
504.24	581.00
504.60	590.09
504.97	599.36
505.33	608.66
505.69	618.55
506.05	628.44
506.41	638.32
506.78	648.47
507.14	658.75
507.50	669.16
507.86	679.95
508.22	690.75
508.59	701.45
508.95	712.59
509.31	723.86
509.67	735.27
510.03	746.71
510.39	758.41
510.75	770.30
511.12	782.25
511.48	794.44
511.84	806.69
512.20	819.02
512.56	831.67
512.92	844.54
513.28	857.25
513.64	870.01
514.00	882.86
514.37	895.85
514.73	909.01
515.09	922.14
515.45	935.06
515.81	948.19
516.17	961.71
516.53	974.97
516.89	988.10
517.25	1001.30
517.61	1014.93
517.97	1028.47
518.33	1041.70
518.69	1055.35
519.05	1069.18
519.41	1083.06
519.77	1096.99
520.13	1110.38
520.49	1123.58
520.85	1137.08
521.21	1150.51
521.57	1164.36
521.93	1177.48
522.29	1191.35
522.65	1205.02
523.01	1218.77
523.37	1232.11
523.73	1245.41
524.09	1258.77
524.45	1272.35
524.81	1286.06
525.17	1299.53
525.53	1312.76
525.89	1326.18
526.25	1339.37
526.61	1352.36
526.97	1365.56
527.33	1378.68
527.68	1392.37
528.04	1406.00
528.40	1419.23
528.76	1432.73
529.12	1445.60
529.48	1459.06
529.84	1471.36
530.20	1484.24
530.56	1496.98
530.91	1510.22
531.27	1523.28
531.63	1536.15
531.99	1549.05
532.35	1561.42
532.71	1573.99
533.07	1587.01
533.42	1599.42
533.78	1611.63
534.14	1623.76
534.50	1635.01
534.86	1646.67
535.21	1657.55
535.57	1669.19
535.93	1680.53
536.29	1691.74
536.65	1703.46
537.00	1714.59
537.36	1726.22
537.72	1737.40
538.08	1748.88
538.44	1760.10
538.79	1771.28
539.15	1782.24
539.51	1793.03
539.87	1804.32
540.22	1815.13
540.58	1826.10
540.94	1837.11
541.29	1847.55
541.65	1857.37
542.01	1868.04
542.37	1878.20
542.72	1888.50
543.08	1898.43
543.44	1909.02
543.79	1918.41
544.15	1927.90
544.51	1938.00
544.87	1947.93
545.22	1957.14
545.58	1966.05
545.94	1974.96
546.29	1983.52
546.65	1991.98
547.01	2000.21
547.36	2007.94
547.72	2015.74
548.07	2023.38
548.43	2031.30
548.79	2039.30
549.14	2047.49
549.50	2056.08
549.86	2064.09
550.21	2071.74
550.57	2079.52
550.92	2086.42
551.28	2093.98
551.64	2101.33
551.99	2108.91
552.35	2116.12
552.70	2123.12
553.06	2129.99
553.41	2136.25
553.77	2142.88
554.13	2149.33
554.48	2156.55
554.84	2163.75
555.19	2170.54
555.55	2177.12
555.90	2183.20
556.26	2189.92
556.61	2196.13
556.97	2200.84
557.32	2206.71
557.68	2213.09
558.03	2218.84
558.39	2224.27
558.74	2230.33
559.10	2235.89
559.45	2241.37
559.81	2246.87
560.16	2252.42
560.52	2258.22
560.87	2264.62
561.23	2270.51
561.58	2277.06
561.94	2282.21
562.29	2287.02
562.64	2292.99
563.00	2298.68
563.35	2304.27
563.71	2310.07
564.06	2315.82
564.42	2321.85
564.77	2326.83
565.12	2331.87
565.48	2336.88
565.83	2342.26
566.19	2347.61
566.54	2352.97
566.89	2357.56
567.25	2362.10
567.60	2367.80
567.96	2372.98
568.31	2377.62
568.66	2381.88
569.02	2385.90
569.37	2389.60
569.72	2393.83
570.08	2397.26
570.43	2400.33
570.78	2403.59
571.14	2405.93
571.49	2408.90
571.84	2412.42
572.20	2415.36
572.55	2418.46
572.90	2420.80
573.26	2423.55
573.61	2425.99
573.96	2428.09
574.31	2430.07
574.67	2432.03
575.02	2432.74
575.37	2433.99
575.72	2434.52
576.08	2435.93
576.43	2436.01
576.78	2436.46
577.13	2438.10
577.49	2439.15
577.84	2440.18
578.19	2441.24
578.54	2441.89
578.90	2442.51
579.25	2442.18
579.60	2441.98
579.95	2441.21
580.30	2441.11
580.66	2440.33
581.01	2438.57
581.36	2435.98
581.71	2434.49
582.06	2433.17
582.42	2432.19
582.77	2429.82
583.12	2428.07
583.47	2426.50
583.82	2425.80
584.17	2424.55
584.53	2422.31
584.88	2420.13
585.23	2418.06
585.58	2415.73
585.93	2413.56
586.28	2411.27
586.63	2408.68
586.98	2406.35
587.34	2404.01
587.69	2401.61
588.04	2399.50
588.39	2398.03
588.74	2395.65
589.09	2392.85
589.44	2389.65
589.79	2387.06
590.14	2385.04
590.49	2382.37
590.84	2378.40
591.19	2375.08
591.54	2371.50
591.89	2367.22
592.25	2363.88
592.60	2359.50
592.95	2355.15
593.30	2350.99
593.65	2346.53
594.00	2342.13
594.35	2339.07
594.70	2334.52
595.05	2329.85
595.40	2324.33
595.75	2318.40
596.10	2314.55
596.45	2309.62
596.80	2304.96
597.15	2299.60
597.50	2293.47
597.85	2288.31
598.19	2283.23
598.54	2277.44
598.89	2272.17
599.24	2267.65
599.59	2261.44
599.94	2255.61
600.29	2249.70
600.64	2243.68
600.99	2236.74
601.34	2231.24
601.69	2224.12
602.04	2217.66
602.39	2210.98
602.74	2204.76
603.08	2199.12
603.43	2192.50
603.78	2185.73
604.13	2178.48
604.48	2171.13
604.83	2165.16
605.18	2158.99
605.53	2151.97
605.87	2144.88
606.22	2138.20
606.57	2130.18
606.92	2122.36
607.27	2115.37
607.62	2108.69
607.96	2101.61
608.31	2095.25
608.66	2087.37
609.01	2079.68
609.36	2072.53
609.70	2064.70
610.05	2056.96
610.40	2048.66
610.75	2040.36
611.10	2032.42
611.44	2023.53
611.79	2014.88
612.14	2004.83
612.49	1994.06
612.83	1984.66
613.18	1975.37
613.53	1966.10
613.88	1956.53
614.22	1947.76
614.57	1937.96
614.92	1927.21
615.27	1916.95
615.61	1906.75
615.96	1897.19
616.31	1887.75
616.65	1878.30
617.00	1868.52
617.35	1858.73
617.70	1848.97
618.04	1838.93
618.39	1828.72
618.74	1819.08
619.08	1809.34
619.43	1800.65
619.78	1792.35
620.12	1783.71
620.47	1774.14
620.82	1763.60
621.16	1753.76
621.51	1743.78
621.85	1733.87
622.20	1723.69
622.55	1713.22
622.89	1703.35
623.24	1693.61
623.59	1683.74
623.93	1673.59
624.28	1663.89
624.62	1653.91
624.97	1643.71
625.32	1633.92
625.66	1625.10
626.01	1616.37
626.35	1607.10
626.70	1597.03
627.04	1586.93
627.39	1576.85
627.73	1567.55
628.08	1558.72
628.43	1549.21
628.77	1539.93
629.12	1531.00
629.46	1523.14
629.81	1514.81
630.15	1505.23
630.50	1495.36
630.84	1484.77
631.19	1474.84
631.53	1465.48
631.88	1455.30
632.22	1445.28
632.57	1435.92
632.91	1425.81
633.26	1415.95
633.60	1406.42
633.95	1397.19
634.29	1387.72
634.64	1378.36
634.98	1368.34
635.32	1359.03
635.67	1350.58
636.01	1341.39
636.36	1331.71
636.70	1322.23
637.05	1312.90
637.39	1303.95
637.73	1295.32
638.08	1287.96
638.42	1279.75
638.77	1271.02
639.11	1262.82
639.45	1255.03
639.80	1246.59
640.14	1237.84
640.49	1229.00
640.83	1220.11
641.17	1211.97
641.52	1203.87
641.86	1195.35
642.20	1187.59
642.55	1178.99
642.89	1170.08
643.23	1161.47
643.58	1153.28
643.92	1144.19
644.26	1135.49
644.61	1127.01
644.95	1118.26
645.29	1108.91
645.64	1099.79
645.98	1091.26
646.32	1083.33
646.66	1074.80
647.01	1066.51
647.35	1058.45
647.69	1050.11
648.04	1041.78
648.38	1032.79
648.72	1024.04
649.06	1015.52
649.41	1007.22
649.75	999.30
650.09	991.54
650.43	983.39
650.78	975.10
651.12	967.40
651.46	959.78
651.80	952.66
652.14	945.28
652.49	937.74
652.83	930.32
653.17	922.62
653.51	914.97
653.85	907.72
654.20	900.35
654.54	892.79
654.88	885.50
655.22	878.37
655.56	871.42
655.90	864.56
656.25	857.89
656.59	851.01
656.93	843.87
657.27	836.65
657.61	829.70
657.95	823.62
658.29	817.62
658.64	811.51
658.98	804.94
659.32	798.47
659.66	792.19
660.00	785.86
660.34	779.77
660.68	773.60
661.02	767.26
661.36	761.28
661.70	755.42
662.05	749.76
662.39	744.10
662.73	738.65
663.07	733.19
663.41	727.55
663.75	721.80
664.09	716.09
664.43	710.54
664.77	705.13
665.11	699.25
665.45	693.30
665.79	687.48
666.13	681.78
666.47	676.17
666.81	670.75
667.15	665.28
667.49	660.03
667.83	654.76
668.17	649.41
668.51	644.26
668.85	639.33
669.19	634.44
669.53	629.44
669.87	624.33
670.21	619.57
670.55	614.74
670.89	610.28
671.23	605.94
671.57	601.64
671.91	597.36
672.25	593.18
672.58	589.06
672.92	584.95
673.26	580.99
673.60	577.07
673.94	573.24
674.28	569.58
674.62	565.73
674.96	561.94
675.30	558.44
675.64	554.79
675.97	551.18
676.31	547.48
676.65	543.80
676.99	540.29
677.33	536.40
677.67	532.79
678.01	528.84
678.34	525.17
678.68	521.56
679.02	517.88
679.36	514.12
679.70	510.42
680.04	506.78
680.37	503.22
680.71	499.81
681.05	496.55
681.39	493.31
681.73	490.14
682.06	487.05
682.40	483.88
682.74	480.58
683.08	477.32
683.42	474.07
683.75	471.07
684.09	467.98
684.43	465.17
684.77	462.17
685.10	459.33
685.44	456.42
685.78	453.45
686.12	450.66
686.45	447.88
686.79	445.25
687.13	442.73
687.46	440.09
687.80	437.43
688.14	434.55
688.48	431.84
688.81	429.10
689.15	426.47
689.49	423.83
689.82	421.26
690.16	418.59
690.50	416.13
690.83	413.57
691.17	411.04
691.51	408.49
691.84	406.19
692.18	403.92
692.52	401.66
692.85	399.48
693.19	397.34
693.52	395.23
693.86	393.01
694.20	390.74
694.53	388.56
694.87	386.29
695.21	384.17
695.54	382.02
695.88	379.84
696.21	377.62
696.55	375.47
696.88	373.42
697.22	371.43
697.56	369.48
697.89	367.62
698.23	365.80
698.56	363.96
698.90	362.21
699.23	360.27
699.57	358.32
699.90	356.44
700.24	354.55
700.58	352.76
700.91	351.00
701.25	349.44
701.58	347.79
701.92	346.20
702.25	344.55
702.59	342.90
702.92	341.37
703.26	339.77
703.59	338.26
703.93	336.95
704.26	335.52
704.60	333.95
704.93	332.41
705.26	330.89
705.60	329.46
705.93	327.89
706.27	326.57
706.60	325.34
706.94	324.10
707.27	322.71
707.61	321.34
707.94	319.95
708.27	318.41
708.61	316.98
708.94	315.59
709.28	314.25
709.61	312.95
709.94	311.69
710.28	310.51
710.61	309.30
710.95	307.90
711.28	306.80
711.61	305.65
711.95	304.48
712.28	303.25
712.61	301.99
712.95	300.94
713.28	299.81
713.61	298.61
713.95	297.40
714.28	296.39
714.61	295.33
714.95	294.29
715.28	293.30
715.61	292.29
715.95	291.32
716.28	290.33
716.61	289.37
716.95	288.33
717.28	287.34
717.61	286.34
717.94	285.44
718.28	284.41
718.61	283.50
718.94	282.61
719.27	281.76
719.61	280.95
719.94	280.04
720.27	279.07
720.60	278.20
720.94	277.40
721.27	276.63
721.60	275.92
721.93	275.22
722.27	274.53
722.60	273.82
722.93	273.08
723.26	272.47
723.59	271.79
723.93	271.22
724.26	270.55
724.59	269.89
724.92	269.24
725.25	268.71
725.59	268.09
725.92	267.57
726.25	267.00
726.58	266.43
726.91	265.83
727.24	265.31
727.57	264.71
727.91	264.07
728.24	263.49
728.57	262.88
728.90	262.32
729.23	261.70
729.56	261.25
729.89	260.71
730.22	260.09
730.55	259.52
730.89	258.94
731.22	258.40
731.55	257.88
731.88	257.32
732.21	256.70
732.54	256.17
732.87	255.61
733.20	255.09
733.53	254.58
733.86	254.11
734.19	253.64
734.52	253.27
734.85	253.01
735.18	252.51
735.51	252.13
735.84	251.68
736.17	251.27
736.50	250.74
736.83	250.57
737.16	250.20
737.49	249.82
737.82	249.38
738.15	249.06
738.48	248.69
738.81	248.27
739.14	247.83
739.47	247.46
739.80	247.06
740.13	246.75
740.46	246.37
740.79	245.96
741.12	245.57
741.45	245.17
741.78	244.74
742.11	244.47
742.44	244.06
742.77	243.78
743.10	243.41
743.43	243.04
743.75	242.45
744.08	242.36
744.41	242.00
744.74	241.66
745.07	241.25
745.40	240.96
745.73	240.75
746.06	240.46
746.39	240.14
746.71	239.81
747.04	239.41
747.37	239.11
747.70	238.84
748.03	238.57
748.36	238.30
748.68	237.95
749.01	237.58
749.34	237.30
749.67	236.97
750.00	236.71
750.33	236.60
750.65	236.35
750.98	235.84
751.31	235.62
751.64	235.42
751.97	235.31
752.29	235.03
752.62	234.69
752.95	234.45
753.28	234.15
753.60	233.94
753.93	233.82
754.26	233.58
754.59	233.29
754.91	233.01
755.24	232.77
755.57	232.56
755.90	232.31
756.22	232.08
756.55	231.83
756.88	231.57
757.20	231.24
757.53	230.95
757.86	230.72
758.19	230.45
758.51	230.22
758.84	229.87
759.17	229.64
759.49	229.43
759.82	229.35
760.15	229.23
760.47	229.02
760.80	228.74
761.13	228.58
761.45	228.39
761.78	228.24
762.11	228.04
762.43	227.85
762.76	227.68
763.08	227.53
763.41	227.41
763.74	227.26
764.06	227.05
764.39	226.92
764.71	226.78
765.04	226.63
765.37	226.47
765.69	226.32
766.02	226.17
766.34	226.04
766.67	225.81
767.00	225.71
767.32	225.67
767.65	225.65
767.97	225.49
768.30	225.37
768.62	225.22
768.95	225.05
769.27	224.95
769.60	224.89
769.92	224.74
770.25	224.53
770.57	224.39
770.90	224.30
771.22	224.15
771.55	224.04
771.87	223.93
772.20	223.78
772.52	223.87
772.85	224.03
773.17	223.90
773.50	223.79
773.82	223.63
774.15	223.43
774.47	223.21
774.80	223.12
775.12	223.01
775.45	222.94
775.77	222.86
776.09	222.77
776.42	222.66
776.74	222.62
777.07	222.56
777.39	222.45
777.72	222.36
778.04	222.32
778.36	222.20
778.69	222.15
779.01	222.12
779.33	221.84
779.66	221.50
779.98	221.45
780.31	221.35
780.63	221.35
780.95	221.35
781.28	221.29
781.60	221.18
781.92	221.13
782.25	221.04
782.57	220.95
782.89	220.84
783.22	220.76
783.54	220.64
783.86	220.59
784.19	220.54
784.51	220.55
784.83	220.45
785.16	220.41
785.48	220.33
785.80	220.24
786.12	220.18
786.45	220.14
786.77	220.08
787.09	220.03
787.42	219.89
787.74	219.82
788.06	219.75
788.38	219.71
788.71	219.62
789.03	219.59
789.35	219.58
789.67	219.49
789.99	219.43
790.32	219.37
790.64	219.30
790.96	219.41
791.28	219.28
791.61	219.23
791.93	219.21
792.25	219.16
792.57	219.29
792.89	219.22
793.21	219.15
793.54	219.10
793.86	219.00
794.18	218.95
794.50	218.89
794.82	218.86
795.14	218.86
795.47	218.87
795.79	218.82
796.11	218.75
796.43	218.71
796.75	218.67
797.07	218.63
797.39	218.59
797.71	218.39
798.04	218.36
798.36	218.34
798.68	218.26
799.00	218.21
799.32	218.06
799.64	218.10
799.96	218.06
800.28	218.06
800.60	218.04
800.92	218.05
801.24	217.99
801.56	217.96
801.89	217.88
802.21	217.83
802.53	217.78
802.85	217.78
803.17	217.87
803.49	217.81
803.81	217.76
804.13	217.73
804.45	217.70
804.77	217.70
805.09	217.64
805.41	217.58
805.73	217.54
806.05	217.45
806.37	217.35
806.69	217.32
807.01	217.29
807.33	217.29
807.65	217.18
807.97	217.24
808.28	217.21
808.60	217.20
808.92	217.14
809.24	217.25
809.56	217.19
809.88	217.08
810.20	217.03
810.52	217.06
810.84	216.97
811.16	216.92
811.48	216.89
811.80	216.96
812.12	216.93
812.43	216.93
812.75	216.92
813.07	216.92
813.39	216.91
813.71	216.85
814.03	216.79
814.35	216.78
814.67	216.63
814.98	216.57
815.30	216.52
815.62	216.47
815.94	216.31
816.26	216.29
816.58	216.25
816.89	216.27
817.21	216.22
817.53	216.22
817.85	216.19
818.17	216.15
818.48	216.05
818.80	216.11
819.12	216.06
819.44	216.00
819.76	215.95
820.07	215.90
820.39	215.88
820.71	215.88
821.03	215.91
821.34	215.90
821.66	215.92
821.98	215.91
822.30	215.88
822.61	215.97
822.93	215.93
823.25	215.90
823.57	215.86
823.88	215.87
824.20	215.87
824.52	215.92
824.83	215.88
825.15	215.80
825.47	215.76
825.79	215.74
826.10	215.74
826.42	215.73
826.74	215.75
827.05	215.74
827.37	215.74
827.69	215.70
828.00	215.71
828.32	215.67
828.64	215.63
828.95	215.74
829.27	215.69
829.58	215.68
829.90	215.70
830.22	215.72
830.53	215.65
830.85	215.61
831.17	215.53
831.48	215.53
831.80	215.58
832.11	215.54
832.43	215.51
832.75	215.48
833.06	215.58
833.38	215.49
833.69	215.47
834.01	215.46
834.32	215.44
834.64	215.42
834.96	215.45
835.27	215.45
835.59	215.40
835.90	215.33
836.22	215.31
836.53	215.27
836.85	215.24
837.16	215.45
837.48	215.44
837.79	215.51
838.11	215.48
838.42	215.46
838.74	215.50
839.05	215.51
839.37	215.48
839.68	215.35
840.00	215.36
840.31	215.36
840.63	215.35
840.94	215.31
841.26	215.27
841.57	215.24
841.88	215.23
842.20	215.18
842.51	215.17
842.83	215.17
843.14	215.33
843.46	215.33
843.77	215.18
844.08	215.18
844.40	215.10
844.71	215.07
845.03	215.04
845.34	215.02
845.65	214.99
845.97	215.02
846.28	215.00
846.60	215.02
846.91	215.03
847.22	214.97
847.54	215.00
847.85	215.00
848.16	214.99
848.48	214.97
848.79	215.02
849.10	215.01
849.42	215.02
849.73	214.82
850.04	214.80
850.36	214.75
850.67	214.77
850.98	214.80
851.30	214.86
851.61	214.86
851.92	214.85
852.23	214.92
852.55	214.92
852.86	214.92
853.17	214.95
853.49	214.97
853.80	215.02
854.11	215.05
854.42	215.10
854.74	215.03
855.05	215.02
855.36	214.93
855.67	214.94
855.99	214.96
856.30	215.21
856.61	215.20
856.92	215.21
857.23	215.19
857.55	215.14
857.86	215.09
858.17	215.13
858.48	215.09
858.79	215.03
859.11	215.04
859.42	215.04
859.73	214.97
860.04	214.96
860.35	214.91
860.66	214.84
860.98	214.80
861.29	214.85
861.60	214.83
861.91	214.89
862.22	214.84
862.53	214.81
862.84	214.57
863.16	214.59
863.47	214.51
863.78	214.52
864.09	214.54
864.40	214.57
864.71	214.52
865.02	214.55
865.33	214.50
865.64	214.46
865.95	214.43
866.27	214.59
866.58	214.55
866.89	214.56
867.20	214.56
867.51	214.52
867.82	214.50
868.13	214.55
868.44	214.52
868.75	214.55
869.06	214.54
869.37	214.54
869.68	214.51
869.99	214.57
870.30	214.59
870.61	214.62
870.92	214.59
871.23	214.60
871.54	214.61
871.85	214.66
872.16	214.65
872.47	214.69
872.78	214.52
873.09	214.52
873.40	214.51
873.71	214.49
874.02	214.51
874.33	214.50
874.64	214.44
874.95	214.47
875.26	214.45
875.56	214.46
875.87	214.44
876.18	214.41
876.49	214.62
876.80	214.58
877.11	214.51
877.42	214.55
877.73	214.56
878.04	214.54
878.35	214.56
878.66	214.54
878.96	214.50
879.27	214.54
879.58	214.57
879.89	214.58
880.20	214.67
880.51	214.67
880.82	214.69
881.12	214.73
881.43	214.66
881.74	214.61
882.05	214.60
882.36	214.61
882.67	214.65
882.97	214.42
883.28	214.37
883.59	214.38
883.90	214.37
884.21	214.37
884.51	214.36
884.82	214.31
885.13	214.36
885.44	214.38
885.74	214.35
886.05	214.32
886.36	214.31
886.67	214.25
886.98	214.35
887.28	214.38
887.59	214.36
887.90	214.37
888.20	214.41
888.51	214.46
888.82	214.41
889.13	214.41
889.43	214.58
889.74	214.61
890.05	214.60
890.35	214.59
890.66	214.58
890.97	214.55
891.28	214.58
891.58	214.56
891.89	214.56
892.20	214.55
892.50	214.57
892.81	214.54
893.12	214.54
893.42	214.43
893.73	214.39
894.04	214.41
894.34	214.44
894.65	214.43
894.95	214.36
895.26	214.41
895.57	214.47
895.87	214.27
896.18	214.32
896.48	214.33
896.79	214.32
897.10	214.32
897.40	214.35
897.71	214.35
898.01	214.33
898.32	214.35
898.63	214.34
898.93	214.33
899.24	214.32
899.54	214.29
899.85	214.30
900.15	214.31
900.46	214.31
900.76	214.30
901.07	214.29
901.38	214.34
901.68	214.35
901.99	214.25
902.29	214.29
902.60	214.25
902.90	214.23
903.21	214.20
903.51	214.22
903.82	214.23
904.12	214.23
904.43	214.27
904.73	214.24
905.03	214.27
905.34	214.42
905.64	214.42
905.95	214.42
906.25	214.39
906.56	214.38
906.86	214.37
907.17	214.38
907.47	214.37
907.77	214.34
908.08	214.27
908.38	214.27
908.69	214.31
908.99	214.36
909.30	214.37
909.60	214.42
909.90	214.41
910.21	214.37
910.51	214.35
910.81	214.32
911.12	214.31
911.42	214.32
911.73	214.16
912.03	214.16
912.33	214.25
912.64	214.27
912.94	214.25
913.24	214.22
913.55	214.19
913.85	214.21
914.15	214.24
914.46	214.29
914.76	214.29
915.06	214.25
915.37	214.20
915.67	214.17
915.97	214.15
916.27	214.09
916.58	214.11
916.88	214.08
917.18	214.07
917.49	214.21
917.79	214.21
918.09	214.22
918.39	214.28
918.70	214.24
919.00	214.21
919.30	214.30
919.60	214.30
919.91	214.27
920.21	214.23
920.51	214.17
920.81	214.13
921.12	214.16
921.42	214.14
921.72	214.17
922.02	214.18
922.32	214.22
922.63	214.25
922.93	214.32
923.23	214.34
923.53	214.31
923.83	214.19
924.13	214.18
924.44	214.18
924.74	214.25
925.04	214.30
925.34	214.32
925.64	214.25
925.94	214.24
926.24	214.35
926.55	214.37
926.85	214.43
927.15	214.45
927.45	214.44
927.75	214.45
928.05	214.41
928.35	214.41
928.65	214.46
928.95	214.45
929.26	214.41
929.56	214.45
929.86	214.48
930.16	214.43
930.46	214.44
930.76	214.43
931.06	214.29
931.36	214.23
931.66	214.25
931.96	214.28
932.26	214.29
932.56	214.22
932.86	214.24
933.16	214.24
933.46	214.22
933.76	214.18
934.06	214.23
934.36	214.34
934.66	214.33
934.96	214.27
935.26	214.28
935.56	214.29
935.86	214.23
936.16	214.20
936.46	214.22
936.76	214.19
937.06	214.18
937.36	214.22
937.66	214.21
937.96	214.20
938.26	214.20
938.56	214.18
938.86	214.21
939.16	214.25
939.46	214.26
939.76	214.29
940.06	214.32
940.35	214.24
940.65	214.13
940.95	214.17
941.25	214.11
941.55	214.09
941.85	214.08
942.15	214.12
942.45	214.18
942.75	214.18
943.04	214.19
943.34	214.23
943.64	214.22
943.94	214.19
944.24	214.21
944.54	214.19
944.84	214.22
945.13	214.18
945.43	214.14
945.73	214.14
946.03	214.09
946.33	214.07
946.62	214.07
946.92	214.06
947.22	214.05
947.52	214.09
947.82	214.11
948.11	214.06
948.41	214.04
948.71	213.98
949.01	213.98
949.31	213.98
949.60	213.98
949.90	213.98
950.20	213.99
950.50	213.97
950.79	213.97
951.09	213.97
951.39	213.98
951.69	213.96
951.98	213.99
952.28	214.00
952.58	213.99
952.87	214.00
953.17	214.04
953.47	214.02
953.76	214.01
954.06	213.99
954.36	214.00
954.66	214.00
954.95	214.06
955.25	214.08
955.55	214.07
955.84	214.03
956.14	214.07
956.44	214.09
956.73	214.06
957.03	214.06
957.32	214.05
957.62	214.04
957.92	214.09
958.21	214.04
958.51	214.28
958.81	214.30
959.10	214.34
959.40	214.36
959.69	214.37
959.99	214.42
960.29	214.44
960.58	214.43
960.88	214.52
961.17	214.48
961.47	214.53
961.76	214.53
962.06	214.56
962.36	214.52
962.65	214.51
962.95	214.53
963.24	214.53
963.54	214.54
963.83	214.55
964.13	214.56
964.42	214.52
964.72	214.39
965.01	214.41
965.31	214.41
965.60	214.34
965.90	214.44
966.19	214.39
966.49	214.40
966.78	214.38
967.08	214.37
967.37	214.39
967.67	214.32
967.96	214.35
968.26	214.36
968.55	214.39
968.85	214.39
969.14	214.37
969.43	214.35
969.73	214.35
970.02	214.32
970.32	214.29
970.61	214.29
970.91	214.18
971.20	214.12
971.49	214.11
971.79	214.16
972.08	214.03
972.38	214.05
972.67	214.02
972.96	214.04
973.26	213.95
973.55	214.02
973.85	214.01
974.14	213.96
974.43	213.93
974.73	213.86
975.02	213.82
975.31	213.88
975.61	213.89
975.90	213.87
976.19	213.86
976.49	213.85
976.78	213.85
977.07	213.88
977.37	213.93
977.66	213.92
977.95	213.88
978.24	213.90
978.54	213.96
978.83	213.97
979.12	213.98
979.42	213.98
979.71	213.92
980.00	213.94
980.29	213.96
980.59	213.93
980.88	214.00
981.17	214.02
981.46	213.96
981.76	213.96
982.05	214.02
982.34	214.04
982.63	214.05
982.93	214.05
983.22	214.09
983.51	214.08
983.80	214.12
984.09	214.17
984.39	214.16
984.68	214.08
984.97	214.07
985.26	214.05
985.55	214.11
985.85	214.08
986.14	214.10
986.43	214.12
986.72	214.13
987.01	214.06
987.30	214.06
987.59	214.06
987.89	214.05
988.18	213.94
988.47	213.93
988.76	213.90
989.05	213.88
989.34	213.86
989.63	213.91
989.92	213.87
990.22	213.82
990.51	213.82
990.80	213.85
991.09	213.87
991.38	213.91
991.67	213.85
991.96	213.85
992.25	213.88
992.54	213.85
992.83	213.83
993.12	213.84
993.41	213.85
993.70	213.95
993.99	213.98
994.28	214.07
994.58	214.08
994.87	214.05
995.16	214.05
995.45	214.04
995.74	213.96
996.03	213.98
996.32	214.02
996.61	214.06
996.90	214.02
997.19	214.00
997.48	214.00
997.77	213.99
998.06	213.99
998.34	213.93
998.63	213.91
998.92	213.95
999.21	213.99
999.50	213.97
999.79	213.88
1000.08	213.90
1000.37	213.88
1000.66	213.86
1000.95	213.94
1001.24	213.96
1001.53	214.00
1001.82	214.03
1002.11	213.97
1002.40	213.97
1002.68	214.04
1002.97	214.22
1003.26	214.19
1003.55	214.12
1003.84	214.12
1004.13	214.20
1004.42	214.22
1004.71	214.22
1004.99	214.18
1005.28	214.21
1005.57	214.23
1005.86	214.19
1006.15	214.16
1006.44	214.11
1006.72	214.15
1007.01	214.09
1007.30	214.09
1007.59	214.05
1007.88	214.02
1008.17	214.05
1008.45	214.02
1008.74	213.89
1009.03	213.78
1009.32	213.79
1009.60	213.83
1009.89	213.86
1010.18	213.76
1010.47	213.76
1010.76	213.80
1011.04	213.80
1011.33	213.87
1011.62	213.88
1011.91	213.91
1012.19	213.90
1012.48	213.94
1012.77	213.94
1013.05	214.05
1013.34	214.04
1013.63	214.03
1013.92	214.06
1014.20	214.09
1014.49	214.09
1014.78	214.13
1015.06	214.06
1015.35	214.08
1015.64	214.11
1015.92	214.11
1016.21	214.14
1016.50	214.11
1016.78	214.14
1017.07	214.16
1017.36	214.03
1017.64	214.03
1017.93	214.07
1018.22	214.06
1018.50	214.03
1018.79	214.04
1019.08	213.92
1019.36	213.92
1019.65	213.91
1019.93	213.93
1020.22	213.91
1020.51	214.01
1020.79	213.95
1021.08	213.61
1021.36	213.49
1021.65	214.33
1021.94	213.43
1022.22	213.70
1022.51	213.60
1022.79	214.51
1023.08	213.63
1023.36	216.16
1023.65	213.15
>>>>>End Processed Spectral Data<<<<<
