SpectraSuite Data File
++++++++++++++++++++++++++++++++++++
Date: Tue Jan 29 16:38:56 EST 2013
User: group
Dark Spectrum Present: No
Reference Spectrum Present: No
Number of Sampled Component Spectra: 1
Spectrometers: USB2E7196
Integration Time (usec): 65000 (USB2E7196)
Spectra Averaged: 100 (USB2E7196)
Boxcar Smoothing: 10 (USB2E7196)
Correct for Electrical Dark: No (USB2E7196)
Strobe/Lamp Enabled: No (USB2E7196)
Correct for Detector Non-linearity: No (USB2E7196)
Correct for Stray Light: No (USB2E7196)
Number of Pixels in Processed Spectrum: 2048
>>>>>Begin Processed Spectral Data<<<<<
339.09	0.00
339.48	201.86
339.86	203.18
340.24	204.48
340.63	206.04
341.01	210.09
341.39	208.52
341.78	210.42
342.16	211.67
342.54	211.98
342.93	201.02
343.31	211.17
343.69	211.72
344.07	212.20
344.46	212.68
344.84	213.08
345.22	213.29
345.60	213.58
345.99	213.78
346.37	213.94
346.75	214.09
347.13	214.19
347.52	214.29
347.90	214.43
348.28	214.48
348.66	214.59
349.05	214.56
349.43	214.64
349.81	214.72
350.19	214.73
350.57	214.84
350.96	214.93
351.34	215.07
351.72	215.18
352.10	215.28
352.48	215.31
352.87	215.37
353.25	215.42
353.63	215.48
354.01	215.54
354.39	215.59
354.77	215.63
355.15	215.78
355.54	215.82
355.92	215.79
356.30	215.86
356.68	216.05
357.06	216.12
357.44	216.14
357.82	216.20
358.20	216.29
358.58	216.33
358.97	216.38
359.35	216.46
359.73	216.55
360.11	216.59
360.49	216.65
360.87	216.69
361.25	216.75
361.63	216.84
362.01	216.87
362.39	216.92
362.77	216.96
363.15	216.94
363.53	216.98
363.91	217.03
364.29	217.05
364.67	216.85
365.05	216.86
365.43	216.91
365.81	216.91
366.19	217.03
366.57	217.10
366.95	217.08
367.33	217.00
367.71	216.99
368.09	217.02
368.47	217.02
368.85	217.02
369.23	217.05
369.61	216.96
369.99	217.05
370.37	217.02
370.75	217.09
371.13	217.02
371.51	216.98
371.89	216.97
372.27	216.95
372.65	216.94
373.03	216.94
373.41	216.88
373.78	216.86
374.16	216.69
374.54	216.57
374.92	216.53
375.30	216.51
375.68	216.39
376.06	216.36
376.44	216.33
376.82	216.29
377.19	216.23
377.57	216.20
377.95	216.07
378.33	216.02
378.71	215.85
379.09	215.87
379.47	215.85
379.84	215.79
380.22	215.73
380.60	215.66
380.98	215.62
381.36	215.61
381.73	215.53
382.11	215.53
382.49	215.51
382.87	215.44
383.25	215.45
383.62	215.70
384.00	215.63
384.38	215.56
384.76	215.58
385.13	215.64
385.51	215.61
385.89	215.55
386.27	215.53
386.64	215.53
387.02	215.47
387.40	215.41
387.78	215.39
388.15	215.37
388.53	215.35
388.91	215.30
389.29	215.22
389.66	215.24
390.04	215.20
390.42	215.22
390.79	215.23
391.17	215.19
391.55	214.93
391.92	214.93
392.30	214.97
392.68	214.87
393.05	214.83
393.43	214.82
393.81	214.87
394.18	214.86
394.56	214.89
394.94	214.94
395.31	214.94
395.69	215.01
396.06	215.10
396.44	215.13
396.82	215.15
397.19	215.30
397.57	215.32
397.95	215.38
398.32	215.34
398.70	215.38
399.07	215.45
399.45	215.48
399.82	215.53
400.20	215.54
400.58	215.60
400.95	215.59
401.33	215.71
401.70	215.92
402.08	216.01
402.45	216.07
402.83	216.22
403.20	216.34
403.58	216.41
403.95	216.52
404.33	216.70
404.71	216.86
405.08	217.12
405.46	217.28
405.83	217.49
406.21	217.70
406.58	217.96
406.96	218.20
407.33	218.46
407.70	218.78
408.08	219.26
408.45	219.65
408.83	220.04
409.20	220.39
409.58	220.63
409.95	221.06
410.33	221.57
410.70	221.98
411.08	222.52
411.45	223.09
411.82	223.65
412.20	224.33
412.57	225.14
412.95	225.75
413.32	226.59
413.69	227.46
414.07	228.38
414.44	229.39
414.82	230.39
415.19	231.63
415.56	232.82
415.94	233.96
416.31	235.40
416.68	236.82
417.06	238.40
417.43	239.98
417.81	241.74
418.18	243.53
418.55	245.49
418.93	247.51
419.30	249.64
419.67	251.89
420.04	254.18
420.42	256.59
420.79	259.38
421.16	262.21
421.54	265.08
421.91	268.07
422.28	271.15
422.66	274.45
423.03	277.69
423.40	281.04
423.77	284.66
424.15	288.33
424.52	292.22
424.89	296.45
425.26	300.54
425.64	304.45
426.01	308.78
426.38	313.25
426.75	317.86
427.13	322.59
427.50	327.60
427.87	332.82
428.24	338.03
428.61	343.07
428.99	348.59
429.36	354.59
429.73	360.51
430.10	366.40
430.47	372.52
430.85	378.88
431.22	385.62
431.59	392.79
431.96	399.61
432.33	407.08
432.70	414.31
433.08	422.85
433.45	430.93
433.82	438.94
434.19	447.91
434.56	456.68
434.93	465.08
435.30	473.36
435.68	482.53
436.05	491.53
436.42	500.44
436.79	508.64
437.16	517.43
437.53	526.77
437.90	535.93
438.27	544.93
438.64	554.10
439.01	562.66
439.38	570.25
439.75	577.61
440.13	586.06
440.50	594.09
440.87	600.49
441.24	607.13
441.61	614.50
441.98	619.86
442.35	626.24
442.72	632.59
443.09	638.66
443.46	642.39
443.83	644.93
444.20	647.15
444.57	650.28
444.94	651.78
445.31	653.17
445.68	654.59
446.05	655.19
446.42	654.42
446.79	653.51
447.16	652.47
447.53	651.73
447.90	648.40
448.27	645.08
448.64	640.49
449.01	637.23
449.37	631.30
449.74	625.63
450.11	618.69
450.48	611.29
450.85	603.85
451.22	597.31
451.59	591.17
451.96	585.26
452.33	577.33
452.70	570.20
453.07	561.72
453.43	553.09
453.80	544.74
454.17	536.74
454.54	529.15
454.91	520.91
455.28	512.90
455.65	505.47
456.02	497.96
456.38	491.58
456.75	483.59
457.12	476.96
457.49	470.41
457.86	464.19
458.23	458.75
458.59	452.76
458.96	446.83
459.33	441.51
459.70	436.15
460.07	431.91
460.43	426.97
460.80	422.37
461.17	418.38
461.54	414.19
461.91	410.17
462.27	405.98
462.64	402.57
463.01	398.72
463.38	394.97
463.74	391.20
464.11	387.99
464.48	385.20
464.85	382.15
465.21	379.71
465.58	377.01
465.95	373.84
466.32	371.21
466.68	368.58
467.05	365.92
467.42	363.39
467.78	360.67
468.15	358.13
468.52	356.21
468.88	353.70
469.25	351.46
469.62	349.63
469.98	347.72
470.35	345.87
470.72	344.20
471.08	342.37
471.45	340.86
471.82	339.30
472.18	337.60
472.55	336.37
472.92	334.97
473.28	333.76
473.65	332.60
474.02	331.47
474.38	330.55
474.75	329.78
475.11	328.91
475.48	328.35
475.85	327.86
476.21	327.38
476.58	327.06
476.94	326.88
477.31	326.56
477.67	326.26
478.04	326.12
478.41	326.02
478.77	326.21
479.14	326.17
479.50	326.28
479.87	326.60
480.23	326.89
480.60	327.16
480.96	327.42
481.33	327.97
481.69	328.58
482.06	329.06
482.42	329.60
482.79	330.21
483.15	330.99
483.52	331.93
483.88	332.76
484.25	333.66
484.61	334.63
484.98	335.64
485.34	336.98
485.71	338.32
486.07	339.83
486.44	341.17
486.80	342.84
487.17	344.57
487.53	346.37
487.90	348.28
488.26	350.27
488.62	352.44
488.99	354.55
489.35	356.73
489.72	359.14
490.08	361.67
490.44	364.25
490.81	366.97
491.17	369.70
491.54	372.65
491.90	375.71
492.26	378.95
492.63	382.38
492.99	385.88
493.36	389.55
493.72	393.34
494.08	397.32
494.45	401.56
494.81	405.92
495.17	410.33
495.54	415.00
495.90	419.82
496.26	424.77
496.63	429.97
496.99	435.34
497.35	440.91
497.72	446.68
498.08	452.59
498.44	458.64
498.80	465.12
499.17	471.65
499.53	478.37
499.89	485.29
500.26	492.30
500.62	499.38
500.98	506.77
501.34	514.32
501.71	522.13
502.07	529.95
502.43	537.94
502.79	546.15
503.16	554.55
503.52	563.18
503.88	571.91
504.24	580.90
504.60	590.00
504.97	599.25
505.33	608.61
505.69	618.59
506.05	628.54
506.41	638.39
506.78	648.43
507.14	658.70
507.50	669.09
507.86	679.71
508.22	690.51
508.59	701.22
508.95	712.33
509.31	723.61
509.67	735.04
510.03	746.39
510.39	758.21
510.75	770.09
511.12	782.05
511.48	794.11
511.84	806.37
512.20	818.69
512.56	831.41
512.92	844.21
513.28	856.86
513.64	869.74
514.00	882.59
514.37	895.68
514.73	908.82
515.09	921.92
515.45	934.98
515.81	948.11
516.17	961.73
516.53	975.05
516.89	988.22
517.25	1001.45
517.61	1015.17
517.97	1028.54
518.33	1041.78
518.69	1055.44
519.05	1069.41
519.41	1083.15
519.77	1097.24
520.13	1110.61
520.49	1123.87
520.85	1137.36
521.21	1150.68
521.57	1164.38
521.93	1177.53
522.29	1191.39
522.65	1205.11
523.01	1218.87
523.37	1232.19
523.73	1245.48
524.09	1258.71
524.45	1272.27
524.81	1286.00
525.17	1299.42
525.53	1312.72
525.89	1326.09
526.25	1339.20
526.61	1352.12
526.97	1365.35
527.33	1378.24
527.68	1391.84
528.04	1405.30
528.40	1418.45
528.76	1431.92
529.12	1444.95
529.48	1458.31
529.84	1470.69
530.20	1483.51
530.56	1496.13
530.91	1509.43
531.27	1522.32
531.63	1535.12
531.99	1547.98
532.35	1560.18
532.71	1572.68
533.07	1585.66
533.42	1598.00
533.78	1610.37
534.14	1622.47
534.50	1633.72
534.86	1645.47
535.21	1656.36
535.57	1668.09
535.93	1679.45
536.29	1690.66
536.65	1702.28
537.00	1713.47
537.36	1725.00
537.72	1736.19
538.08	1747.67
538.44	1758.73
538.79	1769.97
539.15	1781.06
539.51	1791.90
539.87	1803.28
540.22	1814.24
540.58	1825.39
540.94	1836.40
541.29	1846.70
541.65	1856.51
542.01	1867.16
542.37	1877.34
542.72	1887.64
543.08	1897.49
543.44	1908.27
543.79	1917.55
544.15	1927.08
544.51	1937.04
544.87	1946.85
545.22	1956.22
545.58	1965.25
545.94	1974.31
546.29	1982.85
546.65	1991.29
547.01	1999.67
547.36	2007.62
547.72	2015.49
548.07	2023.04
548.43	2030.90
548.79	2038.89
549.14	2047.17
549.50	2055.74
549.86	2063.65
550.21	2071.11
550.57	2078.95
550.92	2085.70
551.28	2093.31
551.64	2100.66
551.99	2108.31
552.35	2115.74
552.70	2122.47
553.06	2129.19
553.41	2135.54
553.77	2142.25
554.13	2148.67
554.48	2155.62
554.84	2162.73
555.19	2169.24
555.55	2175.74
555.90	2182.04
556.26	2188.96
556.61	2195.10
556.97	2199.86
557.32	2205.70
557.68	2212.25
558.03	2217.99
558.39	2223.38
558.74	2229.35
559.10	2234.88
559.45	2240.49
559.81	2246.03
560.16	2251.74
560.52	2257.56
560.87	2263.84
561.23	2269.72
561.58	2276.44
561.94	2281.70
562.29	2286.32
562.64	2292.43
563.00	2298.15
563.35	2303.72
563.71	2309.20
564.06	2314.92
564.42	2320.89
564.77	2326.01
565.12	2331.14
565.48	2336.26
565.83	2341.65
566.19	2346.96
566.54	2352.33
566.89	2356.90
567.25	2361.39
567.60	2367.00
567.96	2372.18
568.31	2376.62
568.66	2380.84
569.02	2384.58
569.37	2388.31
569.72	2392.59
570.08	2396.00
570.43	2399.11
570.78	2402.16
571.14	2404.69
571.49	2407.62
571.84	2411.07
572.20	2413.98
572.55	2416.85
572.90	2418.97
573.26	2421.77
573.61	2424.29
573.96	2426.47
574.31	2428.23
574.67	2430.04
575.02	2430.70
575.37	2432.15
575.72	2432.88
576.08	2434.31
576.43	2434.37
576.78	2434.73
577.13	2436.23
577.49	2437.26
577.84	2437.96
578.19	2439.23
578.54	2439.82
578.90	2440.42
579.25	2440.23
579.60	2439.88
579.95	2439.10
580.30	2439.14
580.66	2438.28
581.01	2436.68
581.36	2434.02
581.71	2432.56
582.06	2431.27
582.42	2430.33
582.77	2427.80
583.12	2425.95
583.47	2424.27
583.82	2423.69
584.17	2422.34
584.53	2420.17
584.88	2418.03
585.23	2416.18
585.58	2413.71
585.93	2411.55
586.28	2409.19
586.63	2406.61
586.98	2404.28
587.34	2402.22
587.69	2399.65
588.04	2397.57
588.39	2395.91
588.74	2393.35
589.09	2390.52
589.44	2387.30
589.79	2384.67
590.14	2382.72
590.49	2379.98
590.84	2376.09
591.19	2372.80
591.54	2369.46
591.89	2365.24
592.25	2361.89
592.60	2357.61
592.95	2353.36
593.30	2349.07
593.65	2344.79
594.00	2340.32
594.35	2337.29
594.70	2332.64
595.05	2328.04
595.40	2322.48
595.75	2316.63
596.10	2313.06
596.45	2308.24
596.80	2303.55
597.15	2298.32
597.50	2292.24
597.85	2287.04
598.19	2281.77
598.54	2275.87
598.89	2270.53
599.24	2266.08
599.59	2259.83
599.94	2253.95
600.29	2247.96
600.64	2242.07
600.99	2235.08
601.34	2229.49
601.69	2222.41
602.04	2215.87
602.39	2209.16
602.74	2202.99
603.08	2197.45
603.43	2190.77
603.78	2183.86
604.13	2176.65
604.48	2169.32
604.83	2163.15
605.18	2156.92
605.53	2149.83
605.87	2142.68
606.22	2135.82
606.57	2127.77
606.92	2119.78
607.27	2112.81
607.62	2106.16
607.96	2099.03
608.31	2092.61
608.66	2084.82
609.01	2077.29
609.36	2070.14
609.70	2062.51
610.05	2054.65
610.40	2046.22
610.75	2037.86
611.10	2030.10
611.44	2021.37
611.79	2012.67
612.14	2002.72
612.49	1992.10
612.83	1982.89
613.18	1973.69
613.53	1964.35
613.88	1954.72
614.22	1946.00
614.57	1936.03
614.92	1925.44
615.27	1915.24
615.61	1905.05
615.96	1895.43
616.31	1885.74
616.65	1876.34
617.00	1866.44
617.35	1856.80
617.70	1847.06
618.04	1837.08
618.39	1826.94
618.74	1817.24
619.08	1807.49
619.43	1798.88
619.78	1790.62
620.12	1782.06
620.47	1772.50
620.82	1762.11
621.16	1752.40
621.51	1742.59
621.85	1732.81
622.20	1722.53
622.55	1711.91
622.89	1702.04
623.24	1692.40
623.59	1682.55
623.93	1672.35
624.28	1662.64
624.62	1652.54
624.97	1642.32
625.32	1632.56
625.66	1623.66
626.01	1614.82
626.35	1605.57
626.70	1595.49
627.04	1585.34
627.39	1575.18
627.73	1565.94
628.08	1557.19
628.43	1547.53
628.77	1538.33
629.12	1529.51
629.46	1521.65
629.81	1513.38
630.15	1503.98
630.50	1494.07
630.84	1483.59
631.19	1473.73
631.53	1464.46
631.88	1454.36
632.22	1444.36
632.57	1435.01
632.91	1424.88
633.26	1415.02
633.60	1405.41
633.95	1396.13
634.29	1386.83
634.64	1377.47
634.98	1367.44
635.32	1358.10
635.67	1349.72
636.01	1340.44
636.36	1330.68
636.70	1321.10
637.05	1311.83
637.39	1302.85
637.73	1294.27
638.08	1286.79
638.42	1278.65
638.77	1269.86
639.11	1261.56
639.45	1253.74
639.80	1245.23
640.14	1236.49
640.49	1227.72
640.83	1218.88
641.17	1210.71
641.52	1202.57
641.86	1194.02
642.20	1186.27
642.55	1177.65
642.89	1168.78
643.23	1160.15
643.58	1152.02
643.92	1142.99
644.26	1134.33
644.61	1125.89
644.95	1117.05
645.29	1107.83
645.64	1098.74
645.98	1090.22
646.32	1082.38
646.66	1073.92
647.01	1065.58
647.35	1057.54
647.69	1049.14
648.04	1040.85
648.38	1032.12
648.72	1023.30
649.06	1014.84
649.41	1006.51
649.75	998.57
650.09	990.69
650.43	982.72
650.78	974.44
651.12	966.73
651.46	959.21
651.80	951.87
652.14	944.63
652.49	937.14
652.83	929.76
653.17	922.06
653.51	914.40
653.85	907.14
654.20	899.84
654.54	892.28
654.88	885.13
655.22	877.95
655.56	870.86
655.90	864.00
656.25	857.40
656.59	850.58
656.93	843.49
657.27	836.39
657.61	829.30
657.95	823.08
658.29	817.16
658.64	811.05
658.98	804.68
659.32	798.06
659.66	791.79
660.00	785.40
660.34	779.33
660.68	773.19
661.02	766.77
661.36	760.81
661.70	755.05
662.05	749.23
662.39	743.63
662.73	738.14
663.07	732.74
663.41	727.04
663.75	721.23
664.09	715.58
664.43	710.04
664.77	704.69
665.11	698.90
665.45	692.97
665.79	687.17
666.13	681.39
666.47	675.90
666.81	670.37
667.15	664.93
667.49	659.66
667.83	654.34
668.17	649.14
668.51	644.05
668.85	639.12
669.19	634.30
669.53	629.32
669.87	624.21
670.21	619.42
670.55	614.72
670.89	610.27
671.23	605.91
671.57	601.50
671.91	597.18
672.25	593.00
672.58	588.85
672.92	584.71
673.26	580.77
673.60	576.84
673.94	573.07
674.28	569.48
674.62	565.73
674.96	561.96
675.30	558.38
675.64	554.63
675.97	550.93
676.31	547.26
676.65	543.66
676.99	540.21
677.33	536.31
677.67	532.58
678.01	528.70
678.34	525.02
678.68	521.44
679.02	517.83
679.36	514.11
679.70	510.44
680.04	506.77
680.37	503.27
680.71	499.96
681.05	496.79
681.39	493.44
681.73	490.26
682.06	487.19
682.40	484.13
682.74	480.92
683.08	477.73
683.42	474.50
683.75	471.48
684.09	468.34
684.43	465.57
684.77	462.63
685.10	459.78
685.44	456.81
685.78	453.85
686.12	451.05
686.45	448.26
686.79	445.56
687.13	443.04
687.46	440.37
687.80	437.61
688.14	434.66
688.48	432.00
688.81	429.31
689.15	426.74
689.49	424.06
689.82	421.46
690.16	418.82
690.50	416.35
690.83	413.79
691.17	411.23
691.51	408.65
691.84	406.33
692.18	404.11
692.52	401.87
692.85	399.78
693.19	397.58
693.52	395.40
693.86	393.14
694.20	390.90
694.53	388.75
694.87	386.53
695.21	384.39
695.54	382.24
695.88	380.01
696.21	377.78
696.55	375.58
696.88	373.48
697.22	371.49
697.56	369.54
697.89	367.64
698.23	365.87
698.56	364.05
698.90	362.27
699.23	360.28
699.57	358.38
699.90	356.42
700.24	354.57
700.58	352.74
700.91	351.06
701.25	349.48
701.58	347.86
701.92	346.23
702.25	344.61
702.59	342.93
702.92	341.37
703.26	339.75
703.59	338.27
703.93	336.97
704.26	335.47
704.60	333.95
704.93	332.40
705.26	330.87
705.60	329.40
705.93	327.85
706.27	326.54
706.60	325.24
706.94	324.01
707.27	322.63
707.61	321.29
707.94	319.89
708.27	318.33
708.61	316.79
708.94	315.44
709.28	314.10
709.61	312.81
709.94	311.58
710.28	310.39
710.61	309.19
710.95	307.77
711.28	306.71
711.61	305.50
711.95	304.34
712.28	303.11
712.61	301.91
712.95	300.83
713.28	299.76
713.61	298.57
713.95	297.38
714.28	296.31
714.61	295.27
714.95	294.22
715.28	293.23
715.61	292.22
715.95	291.26
716.28	290.31
716.61	289.34
716.95	288.32
717.28	287.33
717.61	286.35
717.94	285.45
718.28	284.39
718.61	283.50
718.94	282.60
719.27	281.74
719.61	280.90
719.94	280.02
720.27	279.04
720.60	278.18
720.94	277.38
721.27	276.64
721.60	275.92
721.93	275.21
722.27	274.55
722.60	273.87
722.93	273.13
723.26	272.46
723.59	271.76
723.93	271.13
724.26	270.47
724.59	269.81
724.92	269.18
725.25	268.62
725.59	268.06
725.92	267.55
726.25	267.01
726.58	266.38
726.91	265.78
727.24	265.26
727.57	264.70
727.91	264.09
728.24	263.51
728.57	262.95
728.90	262.34
729.23	261.67
729.56	261.25
729.89	260.68
730.22	260.10
730.55	259.51
730.89	258.96
731.22	258.43
731.55	257.89
731.88	257.35
732.21	256.80
732.54	256.23
732.87	255.66
733.20	255.14
733.53	254.72
733.86	254.27
734.19	253.75
734.52	253.36
734.85	253.04
735.18	252.57
735.51	252.21
735.84	251.80
736.17	251.42
736.50	250.87
736.83	250.71
737.16	250.32
737.49	249.99
737.82	249.55
738.15	249.13
738.48	248.77
738.81	248.38
739.14	247.96
739.47	247.55
739.80	247.19
740.13	246.84
740.46	246.40
740.79	246.01
741.12	245.65
741.45	245.25
741.78	244.83
742.11	244.54
742.44	244.09
742.77	243.79
743.10	243.43
743.43	243.08
743.75	242.53
744.08	242.44
744.41	242.07
744.74	241.71
745.07	241.36
745.40	241.07
745.73	240.81
746.06	240.47
746.39	240.19
746.71	239.86
747.04	239.51
747.37	239.21
747.70	238.91
748.03	238.59
748.36	238.30
748.68	237.98
749.01	237.61
749.34	237.34
749.67	237.05
750.00	236.79
750.33	236.64
750.65	236.34
750.98	235.80
751.31	235.53
751.64	235.36
751.97	235.23
752.29	234.93
752.62	234.59
752.95	234.34
753.28	234.06
753.60	233.77
753.93	233.60
754.26	233.38
754.59	233.10
754.91	232.89
755.24	232.65
755.57	232.39
755.90	232.18
756.22	231.95
756.55	231.68
756.88	231.43
757.20	231.09
757.53	230.85
757.86	230.62
758.19	230.44
758.51	230.21
758.84	229.86
759.17	229.69
759.49	229.53
759.82	229.43
760.15	229.29
760.47	229.12
760.80	228.84
761.13	228.71
761.45	228.51
761.78	228.30
762.11	228.10
762.43	227.94
762.76	227.72
763.08	227.56
763.41	227.38
763.74	227.22
764.06	227.09
764.39	226.90
764.71	226.77
765.04	226.58
765.37	226.39
765.69	226.28
766.02	226.10
766.34	225.98
766.67	225.78
767.00	225.65
767.32	225.63
767.65	225.64
767.97	225.48
768.30	225.35
768.62	225.25
768.95	225.11
769.27	224.98
769.60	224.90
769.92	224.72
770.25	224.63
770.57	224.46
770.90	224.31
771.22	224.18
771.55	224.08
771.87	224.00
772.20	223.89
772.52	223.94
772.85	224.09
773.17	223.96
773.50	223.84
773.82	223.74
774.15	223.55
774.47	223.33
774.80	223.19
775.12	223.10
775.45	222.96
775.77	222.90
776.09	222.81
776.42	222.73
776.74	222.75
777.07	222.63
777.39	222.55
777.72	222.46
778.04	222.41
778.36	222.31
778.69	222.20
779.01	222.11
779.33	221.87
779.66	221.52
779.98	221.39
780.31	221.32
780.63	221.28
780.95	221.22
781.28	221.14
781.60	221.05
781.92	220.95
782.25	220.91
782.57	220.84
782.89	220.75
783.22	220.66
783.54	220.52
783.86	220.44
784.19	220.42
784.51	220.42
784.83	220.28
785.16	220.20
785.48	220.15
785.80	220.12
786.12	220.05
786.45	220.00
786.77	219.99
787.09	219.94
787.42	219.83
787.74	219.78
788.06	219.70
788.38	219.63
788.71	219.55
789.03	219.51
789.35	219.43
789.67	219.37
789.99	219.35
790.32	219.28
790.64	219.27
790.96	219.36
791.28	219.21
791.61	219.21
791.93	219.21
792.25	219.15
792.57	219.23
792.89	219.16
793.21	219.13
793.54	219.04
793.86	218.97
794.18	218.92
794.50	218.83
794.82	218.78
795.14	218.80
795.47	218.84
795.79	218.77
796.11	218.68
796.43	218.60
796.75	218.53
797.07	218.49
797.39	218.43
797.71	218.24
798.04	218.22
798.36	218.20
798.68	218.11
799.00	218.09
799.32	217.97
799.64	217.97
799.96	217.93
800.28	217.95
800.60	217.87
800.92	217.85
801.24	217.81
801.56	217.78
801.89	217.72
802.21	217.67
802.53	217.61
802.85	217.66
803.17	217.73
803.49	217.68
803.81	217.65
804.13	217.60
804.45	217.56
804.77	217.57
805.09	217.52
805.41	217.49
805.73	217.41
806.05	217.30
806.37	217.24
806.69	217.18
807.01	217.12
807.33	217.14
807.65	217.03
807.97	217.11
808.28	217.10
808.60	217.05
808.92	216.98
809.24	217.11
809.56	217.04
809.88	216.96
810.20	216.94
810.52	216.96
810.84	216.88
811.16	216.82
811.48	216.76
811.80	216.79
812.12	216.75
812.43	216.76
812.75	216.75
813.07	216.73
813.39	216.73
813.71	216.69
814.03	216.66
814.35	216.64
814.67	216.53
814.98	216.46
815.30	216.44
815.62	216.41
815.94	216.21
816.26	216.20
816.58	216.12
816.89	216.11
817.21	216.07
817.53	216.10
817.85	216.10
818.17	216.05
818.48	216.00
818.80	216.04
819.12	215.98
819.44	215.97
819.76	215.90
820.07	215.85
820.39	215.84
820.71	215.82
821.03	215.81
821.34	215.80
821.66	215.79
821.98	215.81
822.30	215.78
822.61	215.94
822.93	215.87
823.25	215.86
823.57	215.82
823.88	215.84
824.20	215.84
824.52	215.85
824.83	215.87
825.15	215.81
825.47	215.79
825.79	215.81
826.10	215.76
826.42	215.79
826.74	215.81
827.05	215.77
827.37	215.77
827.69	215.76
828.00	215.71
828.32	215.72
828.64	215.67
828.95	215.77
829.27	215.70
829.58	215.71
829.90	215.73
830.22	215.75
830.53	215.66
830.85	215.62
831.17	215.56
831.48	215.51
831.80	215.53
832.11	215.49
832.43	215.45
832.75	215.46
833.06	215.58
833.38	215.51
833.69	215.49
834.01	215.46
834.32	215.47
834.64	215.46
834.96	215.43
835.27	215.38
835.59	215.31
835.90	215.23
836.22	215.23
836.53	215.19
836.85	215.11
837.16	215.33
837.48	215.33
837.79	215.43
838.11	215.46
838.42	215.44
838.74	215.48
839.05	215.50
839.37	215.46
839.68	215.30
840.00	215.31
840.31	215.35
840.63	215.35
840.94	215.29
841.26	215.26
841.57	215.24
841.88	215.29
842.20	215.27
842.51	215.26
842.83	215.23
843.14	215.42
843.46	215.47
843.77	215.34
844.08	215.31
844.40	215.23
844.71	215.20
845.03	215.17
845.34	215.13
845.65	215.10
845.97	215.10
846.28	215.09
846.60	215.09
846.91	215.04
847.22	215.03
847.54	215.08
847.85	215.11
848.16	215.13
848.48	215.09
848.79	215.17
849.10	215.16
849.42	215.22
849.73	215.02
850.04	214.96
850.36	214.87
850.67	214.93
850.98	214.94
851.30	214.98
851.61	214.99
851.92	214.99
852.23	215.05
852.55	215.07
852.86	215.08
853.17	215.09
853.49	215.15
853.80	215.19
854.11	215.21
854.42	215.23
854.74	215.19
855.05	215.18
855.36	215.08
855.67	215.10
855.99	215.06
856.30	215.31
856.61	215.30
856.92	215.33
857.23	215.31
857.55	215.25
857.86	215.23
858.17	215.27
858.48	215.22
858.79	215.19
859.11	215.19
859.42	215.20
859.73	215.15
860.04	215.13
860.35	215.09
860.66	215.00
860.98	214.98
861.29	214.99
861.60	214.98
861.91	215.00
862.22	214.94
862.53	214.90
862.84	214.65
863.16	214.73
863.47	214.64
863.78	214.58
864.09	214.62
864.40	214.60
864.71	214.58
865.02	214.62
865.33	214.57
865.64	214.54
865.95	214.53
866.27	214.64
866.58	214.61
866.89	214.60
867.20	214.61
867.51	214.58
867.82	214.56
868.13	214.64
868.44	214.62
868.75	214.67
869.06	214.69
869.37	214.70
869.68	214.61
869.99	214.66
870.30	214.68
870.61	214.71
870.92	214.65
871.23	214.61
871.54	214.62
871.85	214.70
872.16	214.74
872.47	214.75
872.78	214.66
873.09	214.66
873.40	214.63
873.71	214.67
874.02	214.66
874.33	214.67
874.64	214.60
874.95	214.65
875.26	214.59
875.56	214.59
875.87	214.56
876.18	214.57
876.49	214.80
876.80	214.79
877.11	214.73
877.42	214.77
877.73	214.79
878.04	214.75
878.35	214.72
878.66	214.72
878.96	214.70
879.27	214.70
879.58	214.68
879.89	214.67
880.20	214.70
880.51	214.71
880.82	214.71
881.12	214.74
881.43	214.67
881.74	214.66
882.05	214.67
882.36	214.67
882.67	214.71
882.97	214.46
883.28	214.46
883.59	214.46
883.90	214.49
884.21	214.51
884.51	214.51
884.82	214.49
885.13	214.48
885.44	214.47
885.74	214.44
886.05	214.44
886.36	214.49
886.67	214.39
886.98	214.50
887.28	214.51
887.59	214.49
887.90	214.48
888.20	214.47
888.51	214.50
888.82	214.50
889.13	214.47
889.43	214.67
889.74	214.66
890.05	214.65
890.35	214.63
890.66	214.60
890.97	214.60
891.28	214.57
891.58	214.56
891.89	214.55
892.20	214.56
892.50	214.54
892.81	214.51
893.12	214.56
893.42	214.46
893.73	214.48
894.04	214.47
894.34	214.50
894.65	214.50
894.95	214.45
895.26	214.47
895.57	214.56
895.87	214.34
896.18	214.34
896.48	214.37
896.79	214.35
897.10	214.36
897.40	214.34
897.71	214.36
898.01	214.35
898.32	214.39
898.63	214.37
898.93	214.37
899.24	214.36
899.54	214.31
899.85	214.30
900.15	214.30
900.46	214.30
900.76	214.32
901.07	214.31
901.38	214.31
901.68	214.34
901.99	214.26
902.29	214.27
902.60	214.27
902.90	214.24
903.21	214.25
903.51	214.25
903.82	214.30
904.12	214.29
904.43	214.30
904.73	214.27
905.03	214.27
905.34	214.48
905.64	214.49
905.95	214.51
906.25	214.49
906.56	214.43
906.86	214.45
907.17	214.42
907.47	214.45
907.77	214.44
908.08	214.39
908.38	214.37
908.69	214.40
908.99	214.42
909.30	214.45
909.60	214.44
909.90	214.47
910.21	214.41
910.51	214.39
910.81	214.38
911.12	214.41
911.42	214.42
911.73	214.18
912.03	214.17
912.33	214.20
912.64	214.19
912.94	214.18
913.24	214.11
913.55	214.10
913.85	214.07
914.15	214.10
914.46	214.12
914.76	214.12
915.06	214.10
915.37	214.08
915.67	214.04
915.97	214.03
916.27	213.96
916.58	213.96
916.88	213.95
917.18	213.93
917.49	214.07
917.79	214.07
918.09	214.16
918.39	214.24
918.70	214.23
919.00	214.27
919.30	214.37
919.60	214.39
919.91	214.36
920.21	214.40
920.51	214.33
920.81	214.31
921.12	214.31
921.42	214.32
921.72	214.30
922.02	214.31
922.32	214.37
922.63	214.37
922.93	214.48
923.23	214.51
923.53	214.49
923.83	214.34
924.13	214.34
924.44	214.32
924.74	214.33
925.04	214.37
925.34	214.34
925.64	214.26
925.94	214.23
926.24	214.37
926.55	214.35
926.85	214.40
927.15	214.38
927.45	214.44
927.75	214.42
928.05	214.44
928.35	214.45
928.65	214.45
928.95	214.45
929.26	214.36
929.56	214.38
929.86	214.43
930.16	214.37
930.46	214.36
930.76	214.34
931.06	214.24
931.36	214.17
931.66	214.22
931.96	214.26
932.26	214.30
932.56	214.16
932.86	214.17
933.16	214.18
933.46	214.20
933.76	214.15
934.06	214.19
934.36	214.25
934.66	214.24
934.96	214.20
935.26	214.22
935.56	214.25
935.86	214.20
936.16	214.16
936.46	214.17
936.76	214.18
937.06	214.16
937.36	214.18
937.66	214.19
937.96	214.17
938.26	214.09
938.56	214.08
938.86	214.10
939.16	214.14
939.46	214.14
939.76	214.14
940.06	214.14
940.35	214.08
940.65	214.01
940.95	214.01
941.25	213.97
941.55	213.94
941.85	213.94
942.15	213.96
942.45	214.04
942.75	214.04
943.04	214.00
943.34	214.08
943.64	214.04
943.94	214.01
944.24	214.02
944.54	214.09
944.84	214.10
945.13	214.08
945.43	214.03
945.73	214.03
946.03	214.01
946.33	213.99
946.62	213.97
946.92	213.94
947.22	213.99
947.52	214.03
947.82	214.07
948.11	214.06
948.41	214.06
948.71	213.97
949.01	213.99
949.31	213.99
949.60	213.94
949.90	213.98
950.20	213.99
950.50	213.94
950.79	213.88
951.09	213.87
951.39	213.89
951.69	213.88
951.98	213.93
952.28	213.91
952.58	213.90
952.87	213.92
953.17	213.95
953.47	213.89
953.76	213.86
954.06	213.80
954.36	213.74
954.66	213.73
954.95	213.79
955.25	213.80
955.55	213.83
955.84	213.81
956.14	213.82
956.44	213.80
956.73	213.80
957.03	213.84
957.32	213.87
957.62	213.86
957.92	213.89
958.21	213.86
958.51	214.14
958.81	214.16
959.10	214.19
959.40	214.22
959.69	214.25
959.99	214.29
960.29	214.32
960.58	214.34
960.88	214.43
961.17	214.41
961.47	214.43
961.76	214.43
962.06	214.46
962.36	214.43
962.65	214.49
962.95	214.51
963.24	214.47
963.54	214.48
963.83	214.47
964.13	214.43
964.42	214.39
964.72	214.19
965.01	214.20
965.31	214.16
965.60	214.12
965.90	214.27
966.19	214.22
966.49	214.23
966.78	214.19
967.08	214.16
967.37	214.15
967.67	214.12
967.96	214.13
968.26	214.13
968.55	214.19
968.85	214.16
969.14	214.15
969.43	214.14
969.73	214.13
970.02	214.11
970.32	214.15
970.61	214.12
970.91	214.08
971.20	214.03
971.49	214.01
971.79	214.03
972.08	213.87
972.38	213.88
972.67	213.86
972.96	213.92
973.26	213.86
973.55	213.91
973.85	213.88
974.14	213.86
974.43	213.86
974.73	213.79
975.02	213.76
975.31	213.78
975.61	213.83
975.90	213.79
976.19	213.80
976.49	213.81
976.78	213.86
977.07	213.81
977.37	213.85
977.66	213.91
977.95	213.89
978.24	213.91
978.54	213.97
978.83	213.98
979.12	213.96
979.42	214.00
979.71	213.97
980.00	213.97
980.29	213.98
980.59	213.97
980.88	214.04
981.17	214.06
981.46	214.06
981.76	214.06
982.05	214.10
982.34	214.11
982.63	214.09
982.93	214.05
983.22	214.15
983.51	214.15
983.80	214.18
984.09	214.22
984.39	214.20
984.68	214.18
984.97	214.19
985.26	214.16
985.55	214.16
985.85	214.12
986.14	214.13
986.43	214.14
986.72	214.10
987.01	214.05
987.30	214.04
987.59	214.00
987.89	214.00
988.18	213.97
988.47	213.98
988.76	213.95
989.05	213.96
989.34	213.93
989.63	213.97
989.92	213.90
990.22	213.89
990.51	213.90
990.80	213.88
991.09	213.88
991.38	213.94
991.67	213.94
991.96	213.92
992.25	213.96
992.54	213.91
992.83	213.92
993.12	213.93
993.41	213.95
993.70	214.03
993.99	214.06
994.28	214.10
994.58	214.12
994.87	214.10
995.16	214.11
995.45	214.09
995.74	214.04
996.03	214.09
996.32	214.10
996.61	214.14
996.90	214.11
997.19	214.10
997.48	214.08
997.77	214.06
998.06	214.07
998.34	214.03
998.63	214.06
998.92	214.08
999.21	214.13
999.50	214.15
999.79	214.09
1000.08	214.10
1000.37	214.09
1000.66	214.07
1000.95	214.15
1001.24	214.17
1001.53	214.17
1001.82	214.19
1002.11	214.15
1002.40	214.17
1002.68	214.17
1002.97	214.34
1003.26	214.31
1003.55	214.28
1003.84	214.27
1004.13	214.35
1004.42	214.33
1004.71	214.33
1004.99	214.30
1005.28	214.32
1005.57	214.28
1005.86	214.25
1006.15	214.22
1006.44	214.15
1006.72	214.17
1007.01	214.11
1007.30	214.08
1007.59	214.10
1007.88	214.08
1008.17	214.11
1008.45	214.09
1008.74	214.02
1009.03	213.93
1009.32	213.93
1009.60	213.92
1009.89	213.90
1010.18	213.79
1010.47	213.79
1010.76	213.78
1011.04	213.77
1011.33	213.77
1011.62	213.82
1011.91	213.83
1012.19	213.86
1012.48	213.90
1012.77	213.90
1013.05	214.03
1013.34	214.04
1013.63	214.04
1013.92	214.04
1014.20	214.00
1014.49	213.98
1014.78	214.02
1015.06	213.93
1015.35	213.96
1015.64	213.99
1015.92	214.03
1016.21	214.04
1016.50	214.06
1016.78	214.09
1017.07	214.15
1017.36	214.14
1017.64	214.07
1017.93	214.08
1018.22	214.02
1018.50	214.00
1018.79	214.00
1019.08	213.89
1019.36	213.90
1019.65	213.86
1019.93	213.91
1020.22	213.95
1020.51	214.08
1020.79	214.05
1021.08	213.40
1021.36	213.58
1021.65	214.22
1021.94	213.94
1022.22	214.18
1022.51	213.55
1022.79	214.82
1023.08	214.32
1023.36	216.68
1023.65	213.55
>>>>>End Processed Spectral Data<<<<<
