SpectraSuite Data File
++++++++++++++++++++++++++++++++++++
Date: Tue Jan 29 16:46:39 EST 2013
User: group
Dark Spectrum Present: No
Reference Spectrum Present: No
Number of Sampled Component Spectra: 1
Spectrometers: USB2E7196
Integration Time (usec): 65000 (USB2E7196)
Spectra Averaged: 100 (USB2E7196)
Boxcar Smoothing: 10 (USB2E7196)
Correct for Electrical Dark: No (USB2E7196)
Strobe/Lamp Enabled: No (USB2E7196)
Correct for Detector Non-linearity: No (USB2E7196)
Correct for Stray Light: No (USB2E7196)
Number of Pixels in Processed Spectrum: 2048
>>>>>Begin Processed Spectral Data<<<<<
339.09	0.00
339.48	201.66
339.86	202.81
340.24	204.15
340.63	206.02
341.01	210.45
341.39	209.00
341.78	210.60
342.16	211.91
342.54	211.83
342.93	201.00
343.31	211.15
343.69	211.72
344.07	212.23
344.46	212.70
344.84	213.11
345.22	213.29
345.60	213.57
345.99	213.77
346.37	213.92
346.75	214.06
347.13	214.14
347.52	214.21
347.90	214.38
348.28	214.42
348.66	214.52
349.05	214.45
349.43	214.52
349.81	214.57
350.19	214.64
350.57	214.71
350.96	214.78
351.34	214.89
351.72	214.97
352.10	215.05
352.48	215.14
352.87	215.17
353.25	215.24
353.63	215.27
354.01	215.33
354.39	215.37
354.77	215.42
355.15	215.56
355.54	215.60
355.92	215.59
356.30	215.68
356.68	215.88
357.06	215.96
357.44	216.01
357.82	216.05
358.20	216.13
358.58	216.16
358.97	216.22
359.35	216.34
359.73	216.43
360.11	216.47
360.49	216.52
360.87	216.58
361.25	216.62
361.63	216.75
362.01	216.80
362.39	216.82
362.77	216.89
363.15	216.90
363.53	216.95
363.91	216.94
364.29	216.96
364.67	216.77
365.05	216.81
365.43	216.84
365.81	216.88
366.19	216.93
366.57	217.03
366.95	217.03
367.33	216.94
367.71	216.93
368.09	216.97
368.47	216.95
368.85	216.95
369.23	216.95
369.61	216.87
369.99	216.89
370.37	216.91
370.75	216.96
371.13	216.90
371.51	216.81
371.89	216.84
372.27	216.81
372.65	216.80
373.03	216.78
373.41	216.71
373.78	216.68
374.16	216.58
374.54	216.49
374.92	216.45
375.30	216.42
375.68	216.35
376.06	216.33
376.44	216.26
376.82	216.19
377.19	216.16
377.57	216.08
377.95	215.98
378.33	215.89
378.71	215.73
379.09	215.72
379.47	215.73
379.84	215.64
380.22	215.61
380.60	215.56
380.98	215.48
381.36	215.48
381.73	215.41
382.11	215.40
382.49	215.36
382.87	215.31
383.25	215.28
383.62	215.49
384.00	215.37
384.38	215.37
384.76	215.39
385.13	215.43
385.51	215.41
385.89	215.39
386.27	215.39
386.64	215.41
387.02	215.37
387.40	215.32
387.78	215.32
388.15	215.27
388.53	215.25
388.91	215.24
389.29	215.18
389.66	215.20
390.04	215.16
390.42	215.17
390.79	215.17
391.17	215.16
391.55	214.92
391.92	214.94
392.30	214.97
392.68	214.94
393.05	214.92
393.43	214.95
393.81	214.92
394.18	214.87
394.56	214.86
394.94	214.92
395.31	214.94
395.69	215.01
396.06	215.06
396.44	215.07
396.82	215.05
397.19	215.18
397.57	215.19
397.95	215.26
398.32	215.23
398.70	215.25
399.07	215.33
399.45	215.36
399.82	215.40
400.20	215.43
400.58	215.48
400.95	215.46
401.33	215.53
401.70	215.76
402.08	215.85
402.45	215.97
402.83	216.06
403.20	216.17
403.58	216.24
403.95	216.39
404.33	216.56
404.71	216.76
405.08	217.05
405.46	217.20
405.83	217.42
406.21	217.62
406.58	217.83
406.96	218.06
407.33	218.34
407.70	218.61
408.08	219.06
408.45	219.40
408.83	219.80
409.20	220.18
409.58	220.44
409.95	220.94
410.33	221.39
410.70	221.82
411.08	222.38
411.45	222.97
411.82	223.52
412.20	224.17
412.57	224.96
412.95	225.52
413.32	226.36
413.69	227.16
414.07	228.10
414.44	229.12
414.82	230.15
415.19	231.35
415.56	232.57
415.94	233.77
416.31	235.23
416.68	236.62
417.06	238.23
417.43	239.81
417.81	241.58
418.18	243.37
418.55	245.33
418.93	247.36
419.30	249.47
419.67	251.71
420.04	254.01
420.42	256.44
420.79	259.31
421.16	262.10
421.54	265.06
421.91	268.09
422.28	271.23
422.66	274.54
423.03	277.79
423.40	281.17
423.77	284.77
424.15	288.38
424.52	292.23
424.89	296.42
425.26	300.52
425.64	304.40
426.01	308.70
426.38	313.21
426.75	317.80
427.13	322.54
427.50	327.56
427.87	332.80
428.24	338.04
428.61	343.00
428.99	348.55
429.36	354.52
429.73	360.43
430.10	366.35
430.47	372.47
430.85	378.78
431.22	385.55
431.59	392.62
431.96	399.53
432.33	407.07
432.70	414.37
433.08	422.89
433.45	430.96
433.82	439.00
434.19	447.89
434.56	456.64
434.93	464.99
435.30	473.30
435.68	482.49
436.05	491.48
436.42	500.46
436.79	508.65
437.16	517.49
437.53	526.77
437.90	535.88
438.27	544.81
438.64	554.08
439.01	562.63
439.38	570.29
439.75	577.67
440.13	586.14
440.50	594.09
440.87	600.62
441.24	607.32
441.61	614.73
441.98	620.12
442.35	626.42
442.72	632.79
443.09	638.91
443.46	642.60
443.83	645.17
444.20	647.37
444.57	650.50
444.94	652.01
445.31	653.47
445.68	654.90
446.05	655.55
446.42	654.78
446.79	653.85
447.16	652.81
447.53	652.02
447.90	648.70
448.27	645.39
448.64	640.71
449.01	637.40
449.37	631.48
449.74	625.84
450.11	618.94
450.48	611.49
450.85	603.98
451.22	597.55
451.59	591.37
451.96	585.56
452.33	577.71
452.70	570.53
453.07	562.06
453.43	553.46
453.80	545.16
454.17	537.13
454.54	529.55
454.91	521.31
455.28	513.30
455.65	505.84
456.02	498.29
456.38	491.91
456.75	483.97
457.12	477.32
457.49	470.74
457.86	464.57
458.23	459.21
458.59	453.29
458.96	447.21
459.33	441.89
459.70	436.47
460.07	432.14
460.43	427.24
460.80	422.60
461.17	418.58
461.54	414.34
461.91	410.32
462.27	406.18
462.64	402.74
463.01	398.90
463.38	395.19
463.74	391.50
464.11	388.23
464.48	385.43
464.85	382.36
465.21	379.92
465.58	377.28
465.95	374.09
466.32	371.44
466.68	368.85
467.05	366.24
467.42	363.68
467.78	361.02
468.15	358.46
468.52	356.53
468.88	353.99
469.25	351.75
469.62	349.88
469.98	347.91
470.35	346.06
470.72	344.36
471.08	342.54
471.45	341.01
471.82	339.49
472.18	337.77
472.55	336.50
472.92	335.07
473.28	333.83
473.65	332.64
474.02	331.53
474.38	330.61
474.75	329.85
475.11	329.00
475.48	328.37
475.85	327.85
476.21	327.33
476.58	326.96
476.94	326.71
477.31	326.37
477.67	326.10
478.04	325.95
478.41	325.91
478.77	326.10
479.14	326.04
479.50	326.13
479.87	326.40
480.23	326.78
480.60	327.03
480.96	327.25
481.33	327.86
481.69	328.36
482.06	328.86
482.42	329.27
482.79	329.87
483.15	330.67
483.52	331.65
483.88	332.54
484.25	333.45
484.61	334.50
484.98	335.57
485.34	336.91
485.71	338.33
486.07	339.77
486.44	341.10
486.80	342.70
487.17	344.38
487.53	346.19
487.90	348.03
488.26	350.08
488.62	352.23
488.99	354.29
489.35	356.48
489.72	358.89
490.08	361.42
490.44	363.92
490.81	366.61
491.17	369.34
491.54	372.26
491.90	375.34
492.26	378.54
492.63	381.93
492.99	385.33
493.36	388.96
493.72	392.87
494.08	396.86
494.45	401.06
494.81	405.45
495.17	409.94
495.54	414.63
495.90	419.50
496.26	424.45
496.63	429.67
496.99	435.10
497.35	440.68
497.72	446.51
498.08	452.49
498.44	458.66
498.80	465.03
499.17	471.60
499.53	478.24
499.89	485.18
500.26	492.19
500.62	499.33
500.98	506.73
501.34	514.13
501.71	521.83
502.07	529.58
502.43	537.56
502.79	545.70
503.16	554.07
503.52	562.61
503.88	571.34
504.24	580.26
504.60	589.25
504.97	598.46
505.33	607.72
505.69	617.63
506.05	627.39
506.41	637.25
506.78	647.30
507.14	657.65
507.50	668.07
507.86	678.72
508.22	689.42
508.59	700.07
508.95	711.09
509.31	722.44
509.67	734.00
510.03	745.33
510.39	756.92
510.75	768.74
511.12	780.59
511.48	792.61
511.84	804.87
512.20	817.23
512.56	829.89
512.92	842.71
513.28	855.34
513.64	868.20
514.00	881.08
514.37	894.00
514.73	907.07
515.09	920.06
515.45	933.02
515.81	946.16
516.17	959.61
516.53	972.89
516.89	985.97
517.25	999.27
517.61	1012.84
517.97	1026.36
518.33	1039.54
518.69	1053.13
519.05	1067.04
519.41	1080.81
519.77	1094.73
520.13	1108.03
520.49	1121.14
520.85	1134.53
521.21	1147.87
521.57	1161.55
521.93	1174.78
522.29	1188.47
522.65	1202.11
523.01	1215.75
523.37	1228.99
523.73	1242.31
524.09	1255.64
524.45	1269.21
524.81	1282.59
525.17	1296.08
525.53	1309.40
525.89	1322.83
526.25	1336.06
526.61	1348.99
526.97	1362.06
527.33	1375.06
527.68	1388.61
528.04	1402.39
528.40	1415.53
528.76	1428.93
529.12	1441.91
529.48	1455.17
529.84	1467.56
530.20	1480.42
530.56	1493.09
530.91	1506.45
531.27	1519.33
531.63	1532.06
531.99	1544.89
532.35	1557.31
532.71	1569.81
533.07	1582.69
533.42	1594.89
533.78	1607.15
534.14	1619.25
534.50	1630.69
534.86	1642.43
535.21	1653.42
535.57	1664.97
535.93	1676.34
536.29	1687.51
536.65	1699.06
537.00	1710.22
537.36	1721.75
537.72	1732.85
538.08	1744.44
538.44	1755.41
538.79	1766.71
539.15	1777.73
539.51	1788.49
539.87	1799.75
540.22	1810.54
540.58	1821.60
540.94	1832.70
541.29	1843.11
541.65	1852.86
542.01	1863.40
542.37	1873.46
542.72	1883.68
543.08	1893.46
543.44	1904.06
543.79	1913.33
544.15	1922.87
544.51	1932.87
544.87	1942.86
545.22	1952.16
545.58	1961.00
545.94	1969.99
546.29	1978.44
546.65	1986.82
547.01	1995.02
547.36	2002.82
547.72	2010.67
548.07	2018.38
548.43	2026.13
548.79	2033.87
549.14	2042.19
549.50	2050.72
549.86	2058.64
550.21	2066.15
550.57	2073.82
550.92	2080.63
551.28	2088.23
551.64	2095.44
551.99	2102.93
552.35	2110.02
552.70	2117.00
553.06	2123.64
553.41	2129.95
553.77	2136.49
554.13	2142.94
554.48	2150.12
554.84	2157.28
555.19	2163.94
555.55	2170.22
555.90	2176.58
556.26	2183.53
556.61	2189.53
556.97	2194.21
557.32	2200.02
557.68	2206.36
558.03	2212.13
558.39	2217.58
558.74	2223.63
559.10	2229.11
559.45	2234.73
559.81	2240.29
560.16	2245.75
560.52	2251.71
560.87	2258.15
561.23	2264.16
561.58	2270.87
561.94	2276.05
562.29	2280.64
562.64	2286.59
563.00	2292.34
563.35	2297.81
563.71	2303.47
564.06	2309.04
564.42	2315.07
564.77	2320.08
565.12	2325.30
565.48	2330.40
565.83	2335.72
566.19	2340.90
566.54	2346.30
566.89	2350.69
567.25	2355.19
567.60	2360.87
567.96	2365.90
568.31	2370.20
568.66	2374.34
569.02	2378.19
569.37	2381.78
569.72	2386.22
570.08	2389.58
570.43	2392.58
570.78	2395.70
571.14	2398.02
571.49	2401.08
571.84	2404.51
572.20	2407.28
572.55	2410.12
572.90	2412.35
573.26	2414.89
573.61	2417.39
573.96	2419.52
574.31	2421.55
574.67	2423.32
575.02	2423.82
575.37	2425.01
575.72	2425.62
576.08	2426.98
576.43	2426.87
576.78	2427.23
577.13	2428.65
577.49	2429.77
577.84	2430.74
578.19	2431.75
578.54	2432.37
578.90	2432.87
579.25	2432.63
579.60	2432.44
579.95	2431.52
580.30	2431.57
580.66	2430.76
581.01	2428.88
581.36	2426.22
581.71	2424.51
582.06	2423.28
582.42	2422.29
582.77	2419.92
583.12	2418.36
583.47	2416.75
583.82	2416.00
584.17	2414.61
584.53	2412.26
584.88	2409.96
585.23	2407.79
585.58	2405.39
585.93	2403.15
586.28	2400.95
586.63	2398.22
586.98	2395.75
587.34	2393.51
587.69	2390.70
588.04	2388.71
588.39	2387.24
588.74	2384.63
589.09	2381.82
589.44	2378.48
589.79	2375.80
590.14	2373.75
590.49	2370.70
590.84	2366.63
591.19	2363.27
591.54	2359.86
591.89	2355.59
592.25	2352.07
592.60	2347.83
592.95	2343.47
593.30	2339.17
593.65	2334.56
594.00	2330.21
594.35	2327.27
594.70	2322.69
595.05	2318.18
595.40	2312.48
595.75	2306.43
596.10	2302.73
596.45	2297.97
596.80	2293.29
597.15	2288.03
597.50	2282.07
597.85	2277.06
598.19	2271.94
598.54	2266.25
598.89	2260.88
599.24	2256.34
599.59	2250.27
599.94	2244.34
600.29	2238.44
600.64	2232.40
600.99	2225.48
601.34	2219.84
601.69	2212.78
602.04	2206.33
602.39	2199.66
602.74	2193.49
603.08	2188.06
603.43	2181.44
603.78	2174.55
604.13	2167.58
604.48	2160.29
604.83	2154.17
605.18	2147.90
605.53	2140.98
605.87	2133.97
606.22	2127.17
606.57	2119.26
606.92	2111.35
607.27	2104.42
607.62	2097.85
607.96	2090.94
608.31	2084.71
608.66	2076.96
609.01	2069.30
609.36	2062.18
609.70	2054.37
610.05	2046.61
610.40	2038.32
610.75	2030.03
611.10	2022.22
611.44	2013.19
611.79	2004.48
612.14	1994.53
612.49	1983.91
612.83	1974.57
613.18	1965.16
613.53	1955.87
613.88	1946.34
614.22	1937.72
614.57	1927.84
614.92	1917.16
615.27	1906.95
615.61	1896.73
615.96	1887.04
616.31	1877.53
616.65	1868.20
617.00	1858.60
617.35	1848.97
617.70	1839.17
618.04	1829.21
618.39	1819.14
618.74	1809.50
619.08	1799.94
619.43	1791.21
619.78	1782.94
620.12	1774.28
620.47	1764.95
620.82	1754.72
621.16	1744.90
621.51	1734.97
621.85	1725.14
622.20	1714.89
622.55	1704.37
622.89	1694.46
623.24	1684.75
623.59	1674.90
623.93	1664.71
624.28	1654.93
624.62	1645.01
624.97	1634.93
625.32	1625.14
625.66	1616.32
626.01	1607.68
626.35	1598.49
626.70	1588.53
627.04	1578.51
627.39	1568.56
627.73	1559.28
628.08	1550.37
628.43	1540.97
628.77	1531.81
629.12	1523.05
629.46	1515.36
629.81	1507.08
630.15	1497.75
630.50	1488.07
630.84	1477.65
631.19	1467.97
631.53	1458.85
631.88	1448.69
632.22	1438.77
632.57	1429.51
632.91	1419.42
633.26	1409.66
633.60	1400.07
633.95	1390.87
634.29	1381.51
634.64	1372.22
634.98	1362.30
635.32	1353.08
635.67	1344.60
636.01	1335.50
636.36	1325.81
636.70	1316.24
637.05	1306.91
637.39	1298.02
637.73	1289.51
638.08	1282.10
638.42	1273.94
638.77	1265.17
639.11	1257.06
639.45	1249.31
639.80	1240.87
640.14	1232.25
640.49	1223.38
640.83	1214.65
641.17	1206.62
641.52	1198.53
641.86	1189.99
642.20	1182.23
642.55	1173.60
642.89	1164.87
643.23	1156.27
643.58	1148.28
643.92	1139.41
644.26	1130.81
644.61	1122.35
644.95	1113.54
645.29	1104.36
645.64	1095.22
645.98	1086.68
646.32	1078.86
646.66	1070.37
647.01	1062.16
647.35	1054.13
647.69	1045.91
648.04	1037.68
648.38	1028.80
648.72	1020.15
649.06	1011.69
649.41	1003.53
649.75	995.71
650.09	987.81
650.43	979.85
650.78	971.54
651.12	963.86
651.46	956.45
651.80	949.30
652.14	942.09
652.49	934.69
652.83	927.40
653.17	919.79
653.51	912.10
653.85	904.90
654.20	897.60
654.54	890.17
654.88	882.90
655.22	875.69
655.56	868.69
655.90	861.86
656.25	855.25
656.59	848.35
656.93	841.30
657.27	834.21
657.61	827.12
657.95	821.01
658.29	815.01
658.64	808.94
658.98	802.47
659.32	795.98
659.66	789.63
660.00	783.34
660.34	777.23
660.68	771.16
661.02	764.78
661.36	758.81
661.70	752.96
662.05	747.35
662.39	741.94
662.73	736.51
663.07	731.10
663.41	725.53
663.75	719.76
664.09	714.13
664.43	708.68
664.77	703.44
665.11	697.67
665.45	691.84
665.79	685.93
666.13	680.23
666.47	674.72
666.81	669.34
667.15	663.93
667.49	658.73
667.83	653.43
668.17	648.28
668.51	643.17
668.85	638.22
669.19	633.36
669.53	628.24
669.87	623.14
670.21	618.35
670.55	613.57
670.89	609.19
671.23	604.97
671.57	600.61
671.91	596.31
672.25	592.11
672.58	587.97
672.92	583.99
673.26	580.06
673.60	576.19
673.94	572.35
674.28	568.76
674.62	565.05
674.96	561.28
675.30	557.74
675.64	554.05
675.97	550.48
676.31	546.79
676.65	543.19
676.99	539.82
677.33	535.97
677.67	532.31
678.01	528.40
678.34	524.67
678.68	521.11
679.02	517.50
679.36	513.82
679.70	510.19
680.04	506.60
680.37	503.15
680.71	499.72
681.05	496.50
681.39	493.20
681.73	489.98
682.06	486.96
682.40	483.80
682.74	480.62
683.08	477.35
683.42	474.12
683.75	471.08
684.09	467.95
684.43	465.15
684.77	462.19
685.10	459.38
685.44	456.46
685.78	453.51
686.12	450.63
686.45	447.85
686.79	445.06
687.13	442.51
687.46	439.88
687.80	437.24
688.14	434.38
688.48	431.68
688.81	428.97
689.15	426.33
689.49	423.71
689.82	421.13
690.16	418.50
690.50	416.08
690.83	413.57
691.17	410.97
691.51	408.47
691.84	406.19
692.18	403.86
692.52	401.65
692.85	399.46
693.19	397.34
693.52	395.14
693.86	392.97
694.20	390.74
694.53	388.56
694.87	386.28
695.21	384.08
695.54	381.97
695.88	379.77
696.21	377.60
696.55	375.45
696.88	373.37
697.22	371.32
697.56	369.37
697.89	367.44
698.23	365.73
698.56	363.90
698.90	362.08
699.23	360.15
699.57	358.21
699.90	356.34
700.24	354.47
700.58	352.71
700.91	350.99
701.25	349.42
701.58	347.78
701.92	346.19
702.25	344.62
702.59	342.96
702.92	341.39
703.26	339.77
703.59	338.24
703.93	336.95
704.26	335.55
704.60	333.99
704.93	332.50
705.26	330.88
705.60	329.42
705.93	327.90
706.27	326.59
706.60	325.30
706.94	324.03
707.27	322.67
707.61	321.28
707.94	319.90
708.27	318.34
708.61	316.87
708.94	315.46
709.28	314.11
709.61	312.82
709.94	311.56
710.28	310.38
710.61	309.24
710.95	307.80
711.28	306.70
711.61	305.54
711.95	304.38
712.28	303.18
712.61	301.95
712.95	300.87
713.28	299.80
713.61	298.61
713.95	297.44
714.28	296.38
714.61	295.32
714.95	294.31
715.28	293.28
715.61	292.23
715.95	291.26
716.28	290.28
716.61	289.30
716.95	288.31
717.28	287.31
717.61	286.30
717.94	285.38
718.28	284.33
718.61	283.44
718.94	282.56
719.27	281.75
719.61	280.91
719.94	280.04
720.27	279.03
720.60	278.15
720.94	277.33
721.27	276.54
721.60	275.82
721.93	275.06
722.27	274.38
722.60	273.74
722.93	273.01
723.26	272.36
723.59	271.65
723.93	271.02
724.26	270.35
724.59	269.70
724.92	269.11
725.25	268.59
725.59	267.99
725.92	267.44
726.25	266.83
726.58	266.24
726.91	265.64
727.24	265.14
727.57	264.59
727.91	263.98
728.24	263.44
728.57	262.83
728.90	262.29
729.23	261.67
729.56	261.22
729.89	260.68
730.22	260.10
730.55	259.57
730.89	259.01
731.22	258.46
731.55	257.91
731.88	257.35
732.21	256.77
732.54	256.24
732.87	255.70
733.20	255.22
733.53	254.73
733.86	254.25
734.19	253.71
734.52	253.27
734.85	252.97
735.18	252.48
735.51	252.11
735.84	251.64
736.17	251.23
736.50	250.63
736.83	250.46
737.16	250.08
737.49	249.65
737.82	249.19
738.15	248.82
738.48	248.45
738.81	248.05
739.14	247.61
739.47	247.18
739.80	246.84
740.13	246.49
740.46	246.09
740.79	245.70
741.12	245.34
741.45	244.93
741.78	244.52
742.11	244.24
742.44	243.84
742.77	243.55
743.10	243.17
743.43	242.84
743.75	242.26
744.08	242.16
744.41	241.83
744.74	241.54
745.07	241.17
745.40	240.84
745.73	240.60
746.06	240.29
746.39	240.00
746.71	239.63
747.04	239.26
747.37	238.93
747.70	238.64
748.03	238.34
748.36	238.09
748.68	237.77
749.01	237.40
749.34	237.12
749.67	236.78
750.00	236.55
750.33	236.44
750.65	236.20
750.98	235.68
751.31	235.44
751.64	235.20
751.97	235.07
752.29	234.84
752.62	234.50
752.95	234.21
753.28	233.95
753.60	233.72
753.93	233.51
754.26	233.28
754.59	233.03
754.91	232.76
755.24	232.50
755.57	232.23
755.90	232.03
756.22	231.80
756.55	231.61
756.88	231.35
757.20	231.02
757.53	230.73
757.86	230.53
758.19	230.33
758.51	230.10
758.84	229.77
759.17	229.56
759.49	229.41
759.82	229.38
760.15	229.22
760.47	229.02
760.80	228.77
761.13	228.65
761.45	228.45
761.78	228.30
762.11	228.11
762.43	227.92
762.76	227.72
763.08	227.57
763.41	227.40
763.74	227.23
764.06	227.05
764.39	226.94
764.71	226.78
765.04	226.62
765.37	226.51
765.69	226.36
766.02	226.20
766.34	226.00
766.67	225.76
767.00	225.62
767.32	225.63
767.65	225.62
767.97	225.44
768.30	225.34
768.62	225.20
768.95	225.04
769.27	224.96
769.60	224.87
769.92	224.68
770.25	224.49
770.57	224.35
770.90	224.24
771.22	224.05
771.55	223.93
771.87	223.81
772.20	223.66
772.52	223.73
772.85	223.88
773.17	223.78
773.50	223.65
773.82	223.54
774.15	223.31
774.47	223.09
774.80	222.97
775.12	222.84
775.45	222.77
775.77	222.68
776.09	222.58
776.42	222.49
776.74	222.51
777.07	222.43
777.39	222.34
777.72	222.27
778.04	222.19
778.36	222.07
778.69	222.01
779.01	221.93
779.33	221.65
779.66	221.28
779.98	221.19
780.31	221.14
780.63	221.15
780.95	221.09
781.28	221.02
781.60	220.94
781.92	220.87
782.25	220.80
782.57	220.77
782.89	220.68
783.22	220.59
783.54	220.47
783.86	220.41
784.19	220.35
784.51	220.31
784.83	220.26
785.16	220.22
785.48	220.16
785.80	220.10
786.12	220.08
786.45	220.04
786.77	219.97
787.09	219.90
787.42	219.75
787.74	219.69
788.06	219.63
788.38	219.57
788.71	219.49
789.03	219.41
789.35	219.36
789.67	219.28
789.99	219.28
790.32	219.18
790.64	219.13
790.96	219.24
791.28	219.11
791.61	219.04
791.93	219.00
792.25	218.93
792.57	219.02
792.89	218.93
793.21	218.88
793.54	218.83
793.86	218.75
794.18	218.70
794.50	218.59
794.82	218.55
795.14	218.52
795.47	218.52
795.79	218.52
796.11	218.45
796.43	218.41
796.75	218.31
797.07	218.31
797.39	218.25
797.71	218.06
798.04	218.04
798.36	218.04
798.68	218.01
799.00	217.99
799.32	217.84
799.64	217.89
799.96	217.87
800.28	217.90
800.60	217.85
800.92	217.85
801.24	217.85
801.56	217.81
801.89	217.76
802.21	217.76
802.53	217.68
802.85	217.71
803.17	217.76
803.49	217.71
803.81	217.64
804.13	217.62
804.45	217.59
804.77	217.56
805.09	217.49
805.41	217.42
805.73	217.37
806.05	217.27
806.37	217.19
806.69	217.15
807.01	217.09
807.33	217.08
807.65	216.98
807.97	217.02
808.28	216.96
808.60	216.95
808.92	216.84
809.24	216.95
809.56	216.86
809.88	216.77
810.20	216.76
810.52	216.77
810.84	216.70
811.16	216.64
811.48	216.60
811.80	216.66
812.12	216.61
812.43	216.61
812.75	216.64
813.07	216.58
813.39	216.53
813.71	216.47
814.03	216.47
814.35	216.45
814.67	216.33
814.98	216.31
815.30	216.30
815.62	216.27
815.94	216.11
816.26	216.08
816.58	216.06
816.89	216.07
817.21	215.99
817.53	215.97
817.85	215.96
818.17	215.95
818.48	215.82
818.80	215.87
819.12	215.79
819.44	215.72
819.76	215.69
820.07	215.66
820.39	215.62
820.71	215.61
821.03	215.61
821.34	215.61
821.66	215.61
821.98	215.59
822.30	215.58
822.61	215.71
822.93	215.67
823.25	215.64
823.57	215.60
823.88	215.64
824.20	215.66
824.52	215.70
824.83	215.67
825.15	215.68
825.47	215.65
825.79	215.67
826.10	215.65
826.42	215.63
826.74	215.64
827.05	215.64
827.37	215.63
827.69	215.59
828.00	215.60
828.32	215.59
828.64	215.55
828.95	215.64
829.27	215.56
829.58	215.54
829.90	215.55
830.22	215.57
830.53	215.52
830.85	215.49
831.17	215.43
831.48	215.42
831.80	215.42
832.11	215.40
832.43	215.39
832.75	215.39
833.06	215.51
833.38	215.49
833.69	215.49
834.01	215.47
834.32	215.49
834.64	215.46
834.96	215.46
835.27	215.47
835.59	215.40
835.90	215.34
836.22	215.31
836.53	215.27
836.85	215.24
837.16	215.41
837.48	215.41
837.79	215.44
838.11	215.44
838.42	215.43
838.74	215.42
839.05	215.38
839.37	215.37
839.68	215.22
840.00	215.21
840.31	215.20
840.63	215.17
840.94	215.13
841.26	215.09
841.57	215.05
841.88	215.03
842.20	215.01
842.51	214.96
842.83	214.97
843.14	215.13
843.46	215.12
843.77	214.99
844.08	214.96
844.40	214.88
844.71	214.85
845.03	214.83
845.34	214.79
845.65	214.79
845.97	214.78
846.28	214.81
846.60	214.81
846.91	214.76
847.22	214.76
847.54	214.80
847.85	214.80
848.16	214.77
848.48	214.78
848.79	214.81
849.10	214.83
849.42	214.86
849.73	214.66
850.04	214.65
850.36	214.58
850.67	214.63
850.98	214.64
851.30	214.62
851.61	214.60
851.92	214.63
852.23	214.66
852.55	214.64
852.86	214.61
853.17	214.62
853.49	214.66
853.80	214.71
854.11	214.70
854.42	214.74
854.74	214.71
855.05	214.72
855.36	214.59
855.67	214.61
855.99	214.60
856.30	214.87
856.61	214.85
856.92	214.86
857.23	214.85
857.55	214.82
857.86	214.83
858.17	214.88
858.48	214.86
858.79	214.81
859.11	214.83
859.42	214.83
859.73	214.79
860.04	214.78
860.35	214.72
860.66	214.70
860.98	214.68
861.29	214.72
861.60	214.71
861.91	214.76
862.22	214.75
862.53	214.70
862.84	214.44
863.16	214.49
863.47	214.44
863.78	214.38
864.09	214.41
864.40	214.43
864.71	214.41
865.02	214.41
865.33	214.42
865.64	214.40
865.95	214.43
866.27	214.59
866.58	214.59
866.89	214.64
867.20	214.60
867.51	214.54
867.82	214.53
868.13	214.58
868.44	214.53
868.75	214.54
869.06	214.55
869.37	214.57
869.68	214.50
869.99	214.56
870.30	214.61
870.61	214.63
870.92	214.61
871.23	214.55
871.54	214.60
871.85	214.65
872.16	214.69
872.47	214.67
872.78	214.49
873.09	214.52
873.40	214.46
873.71	214.49
874.02	214.53
874.33	214.48
874.64	214.43
874.95	214.50
875.26	214.44
875.56	214.43
875.87	214.43
876.18	214.42
876.49	214.60
876.80	214.51
877.11	214.45
877.42	214.44
877.73	214.51
878.04	214.44
878.35	214.42
878.66	214.39
878.96	214.37
879.27	214.39
879.58	214.35
879.89	214.34
880.20	214.38
880.51	214.32
880.82	214.37
881.12	214.38
881.43	214.33
881.74	214.31
882.05	214.32
882.36	214.34
882.67	214.35
882.97	214.10
883.28	214.13
883.59	214.14
883.90	214.14
884.21	214.14
884.51	214.11
884.82	214.06
885.13	214.07
885.44	214.05
885.74	214.07
886.05	214.03
886.36	214.05
886.67	213.99
886.98	214.14
887.28	214.13
887.59	214.11
887.90	214.10
888.20	214.11
888.51	214.14
888.82	214.09
889.13	214.14
889.43	214.33
889.74	214.32
890.05	214.31
890.35	214.33
890.66	214.29
890.97	214.28
891.28	214.28
891.58	214.28
891.89	214.25
892.20	214.23
892.50	214.23
892.81	214.21
893.12	214.20
893.42	214.10
893.73	214.10
894.04	214.10
894.34	214.12
894.65	214.12
894.95	214.10
895.26	214.12
895.57	214.19
895.87	213.96
896.18	214.01
896.48	214.04
896.79	214.02
897.10	214.08
897.40	214.10
897.71	214.13
898.01	214.10
898.32	214.12
898.63	214.11
898.93	214.12
899.24	214.12
899.54	214.11
899.85	214.10
900.15	214.10
900.46	214.12
900.76	214.15
901.07	214.17
901.38	214.14
901.68	214.17
901.99	214.06
902.29	214.09
902.60	214.06
902.90	214.02
903.21	214.02
903.51	214.00
903.82	214.03
904.12	214.03
904.43	214.05
904.73	214.03
905.03	214.04
905.34	214.28
905.64	214.28
905.95	214.28
906.25	214.28
906.56	214.28
906.86	214.24
907.17	214.22
907.47	214.21
907.77	214.19
908.08	214.13
908.38	214.17
908.69	214.23
908.99	214.28
909.30	214.29
909.60	214.26
909.90	214.25
910.21	214.22
910.51	214.20
910.81	214.19
911.12	214.23
911.42	214.24
911.73	214.00
912.03	214.03
912.33	214.08
912.64	214.03
912.94	214.02
913.24	213.99
913.55	214.00
913.85	213.98
914.15	214.05
914.46	214.07
914.76	214.04
915.06	213.97
915.37	213.92
915.67	213.92
915.97	213.93
916.27	213.89
916.58	213.92
916.88	213.89
917.18	213.88
917.49	214.04
917.79	214.00
918.09	214.06
918.39	214.08
918.70	214.05
919.00	214.10
919.30	214.22
919.60	214.21
919.91	214.16
920.21	214.19
920.51	214.11
920.81	214.10
921.12	214.13
921.42	214.14
921.72	214.16
922.02	214.18
922.32	214.19
922.63	214.20
922.93	214.27
923.23	214.28
923.53	214.25
923.83	214.08
924.13	214.11
924.44	214.08
924.74	214.12
925.04	214.17
925.34	214.13
925.64	214.00
925.94	214.02
926.24	214.16
926.55	214.13
926.85	214.18
927.15	214.15
927.45	214.14
927.75	214.16
928.05	214.16
928.35	214.14
928.65	214.19
928.95	214.20
929.26	214.13
929.56	214.18
929.86	214.21
930.16	214.23
930.46	214.21
930.76	214.23
931.06	214.12
931.36	214.10
931.66	214.12
931.96	214.13
932.26	214.16
932.56	214.08
932.86	214.08
933.16	214.09
933.46	214.11
933.76	214.08
934.06	214.11
934.36	214.19
934.66	214.16
934.96	214.12
935.26	214.14
935.56	214.16
935.86	214.12
936.16	214.06
936.46	214.02
936.76	213.99
937.06	213.99
937.36	213.99
937.66	213.97
937.96	213.98
938.26	213.96
938.56	213.95
938.86	213.93
939.16	213.98
939.46	214.01
939.76	214.00
940.06	213.97
940.35	213.92
940.65	213.81
940.95	213.83
941.25	213.78
941.55	213.71
941.85	213.69
942.15	213.72
942.45	213.80
942.75	213.80
943.04	213.84
943.34	213.84
943.64	213.86
943.94	213.86
944.24	213.85
944.54	213.85
944.84	213.86
945.13	213.84
945.43	213.84
945.73	213.81
946.03	213.80
946.33	213.80
946.62	213.79
946.92	213.79
947.22	213.83
947.52	213.85
947.82	213.91
948.11	213.90
948.41	213.86
948.71	213.82
949.01	213.85
949.31	213.81
949.60	213.81
949.90	213.80
950.20	213.78
950.50	213.76
950.79	213.77
951.09	213.79
951.39	213.79
951.69	213.72
951.98	213.78
952.28	213.82
952.58	213.85
952.87	213.82
953.17	213.84
953.47	213.81
953.76	213.79
954.06	213.75
954.36	213.75
954.66	213.74
954.95	213.80
955.25	213.82
955.55	213.82
955.84	213.79
956.14	213.81
956.44	213.84
956.73	213.82
957.03	213.84
957.32	213.82
957.62	213.81
957.92	213.87
958.21	213.78
958.51	214.02
958.81	214.01
959.10	214.05
959.40	214.11
959.69	214.15
959.99	214.20
960.29	214.19
960.58	214.14
960.88	214.20
961.17	214.13
961.47	214.14
961.76	214.16
962.06	214.19
962.36	214.17
962.65	214.15
962.95	214.17
963.24	214.11
963.54	214.12
963.83	214.15
964.13	214.12
964.42	214.10
964.72	213.90
965.01	213.95
965.31	213.94
965.60	213.90
965.90	214.01
966.19	213.98
966.49	214.01
966.78	214.01
967.08	214.00
967.37	214.04
967.67	213.98
967.96	213.97
968.26	213.96
968.55	213.99
968.85	214.00
969.14	214.01
969.43	214.02
969.73	213.99
970.02	213.95
970.32	213.95
970.61	213.99
970.91	213.93
971.20	213.88
971.49	213.87
971.79	213.88
972.08	213.72
972.38	213.71
972.67	213.71
972.96	213.77
973.26	213.75
973.55	213.79
973.85	213.79
974.14	213.80
974.43	213.80
974.73	213.77
975.02	213.73
975.31	213.74
975.61	213.75
975.90	213.76
976.19	213.77
976.49	213.78
976.78	213.78
977.07	213.77
977.37	213.78
977.66	213.80
977.95	213.75
978.24	213.79
978.54	213.83
978.83	213.80
979.12	213.77
979.42	213.79
979.71	213.73
980.00	213.73
980.29	213.77
980.59	213.73
980.88	213.78
981.17	213.80
981.46	213.80
981.76	213.83
982.05	213.87
982.34	213.88
982.63	213.87
982.93	213.89
983.22	213.90
983.51	213.92
983.80	213.94
984.09	213.99
984.39	213.98
984.68	213.94
984.97	213.96
985.26	213.95
985.55	213.94
985.85	213.92
986.14	213.98
986.43	214.02
986.72	214.04
987.01	213.98
987.30	213.97
987.59	213.96
987.89	213.93
988.18	213.86
988.47	213.83
988.76	213.83
989.05	213.79
989.34	213.82
989.63	213.86
989.92	213.80
990.22	213.76
990.51	213.76
990.80	213.77
991.09	213.79
991.38	213.79
991.67	213.77
991.96	213.77
992.25	213.75
992.54	213.66
992.83	213.64
993.12	213.64
993.41	213.69
993.70	213.76
993.99	213.78
994.28	213.83
994.58	213.84
994.87	213.81
995.16	213.81
995.45	213.78
995.74	213.71
996.03	213.75
996.32	213.79
996.61	213.81
996.90	213.81
997.19	213.77
997.48	213.78
997.77	213.79
998.06	213.76
998.34	213.73
998.63	213.77
998.92	213.79
999.21	213.82
999.50	213.80
999.79	213.74
1000.08	213.75
1000.37	213.75
1000.66	213.75
1000.95	213.83
1001.24	213.85
1001.53	213.88
1001.82	213.89
1002.11	213.86
1002.40	213.89
1002.68	213.93
1002.97	214.08
1003.26	214.07
1003.55	214.04
1003.84	214.05
1004.13	214.15
1004.42	214.16
1004.71	214.13
1004.99	214.14
1005.28	214.17
1005.57	214.17
1005.86	214.15
1006.15	214.11
1006.44	214.07
1006.72	214.08
1007.01	214.00
1007.30	213.97
1007.59	213.92
1007.88	213.92
1008.17	213.93
1008.45	213.88
1008.74	213.81
1009.03	213.72
1009.32	213.74
1009.60	213.75
1009.89	213.73
1010.18	213.61
1010.47	213.61
1010.76	213.64
1011.04	213.62
1011.33	213.61
1011.62	213.65
1011.91	213.66
1012.19	213.67
1012.48	213.72
1012.77	213.76
1013.05	213.89
1013.34	213.90
1013.63	213.92
1013.92	213.94
1014.20	213.91
1014.49	213.93
1014.78	213.98
1015.06	213.89
1015.35	213.87
1015.64	213.91
1015.92	213.94
1016.21	213.96
1016.50	213.97
1016.78	213.96
1017.07	213.97
1017.36	213.91
1017.64	213.87
1017.93	213.90
1018.22	213.91
1018.50	213.87
1018.79	213.84
1019.08	213.75
1019.36	213.72
1019.65	213.74
1019.93	213.76
1020.22	213.78
1020.51	213.86
1020.79	213.83
1021.08	214.00
1021.36	213.24
1021.65	213.81
1021.94	213.90
1022.22	212.96
1022.51	214.09
1022.79	214.33
1023.08	213.77
1023.36	215.99
1023.65	213.67
>>>>>End Processed Spectral Data<<<<<
