SpectraSuite Data File
++++++++++++++++++++++++++++++++++++
Date: Tue Jan 29 16:26:00 EST 2013
User: group
Dark Spectrum Present: No
Reference Spectrum Present: No
Number of Sampled Component Spectra: 1
Spectrometers: USB2E7196
Integration Time (usec): 65000 (USB2E7196)
Spectra Averaged: 100 (USB2E7196)
Boxcar Smoothing: 10 (USB2E7196)
Correct for Electrical Dark: No (USB2E7196)
Strobe/Lamp Enabled: No (USB2E7196)
Correct for Detector Non-linearity: No (USB2E7196)
Correct for Stray Light: No (USB2E7196)
Number of Pixels in Processed Spectrum: 2048
>>>>>Begin Processed Spectral Data<<<<<
339.09	0.00
339.48	202.56
339.86	203.42
340.24	205.13
340.63	206.76
341.01	211.48
341.39	209.83
341.78	211.04
342.16	212.45
342.54	212.13
342.93	201.54
343.31	211.73
343.69	212.27
344.07	212.76
344.46	213.20
344.84	213.58
345.22	213.75
345.60	213.99
345.99	214.19
346.37	214.31
346.75	214.44
347.13	214.50
347.52	214.53
347.90	214.68
348.28	214.74
348.66	214.79
349.05	214.75
349.43	214.85
349.81	214.86
350.19	214.91
350.57	215.02
350.96	215.07
351.34	215.16
351.72	215.26
352.10	215.36
352.48	215.44
352.87	215.49
353.25	215.54
353.63	215.58
354.01	215.60
354.39	215.68
354.77	215.75
355.15	215.89
355.54	215.95
355.92	215.94
356.30	215.99
356.68	216.20
357.06	216.28
357.44	216.27
357.82	216.36
358.20	216.40
358.58	216.42
358.97	216.51
359.35	216.62
359.73	216.69
360.11	216.73
360.49	216.78
360.87	216.81
361.25	216.88
361.63	217.02
362.01	217.04
362.39	217.03
362.77	217.10
363.15	217.12
363.53	217.16
363.91	217.20
364.29	217.22
364.67	217.04
365.05	217.07
365.43	217.12
365.81	217.15
366.19	217.27
366.57	217.37
366.95	217.37
367.33	217.31
367.71	217.31
368.09	217.36
368.47	217.33
368.85	217.33
369.23	217.33
369.61	217.23
369.99	217.33
370.37	217.37
370.75	217.45
371.13	217.39
371.51	217.36
371.89	217.37
372.27	217.36
372.65	217.37
373.03	217.32
373.41	217.29
373.78	217.21
374.16	217.10
374.54	217.02
374.92	216.96
375.30	216.92
375.68	216.86
376.06	216.83
376.44	216.79
376.82	216.75
377.19	216.68
377.57	216.63
377.95	216.52
378.33	216.42
378.71	216.25
379.09	216.22
379.47	216.19
379.84	216.12
380.22	216.05
380.60	215.94
380.98	215.91
381.36	215.85
381.73	215.82
382.11	215.81
382.49	215.79
382.87	215.73
383.25	215.71
383.62	215.90
384.00	215.84
384.38	215.81
384.76	215.83
385.13	215.89
385.51	215.87
385.89	215.80
386.27	215.81
386.64	215.81
387.02	215.79
387.40	215.74
387.78	215.73
388.15	215.73
388.53	215.71
388.91	215.66
389.29	215.63
389.66	215.66
390.04	215.57
390.42	215.56
390.79	215.52
391.17	215.47
391.55	215.23
391.92	215.18
392.30	215.20
392.68	215.17
393.05	215.16
393.43	215.12
393.81	215.17
394.18	215.11
394.56	215.13
394.94	215.13
395.31	215.14
395.69	215.19
396.06	215.23
396.44	215.27
396.82	215.27
397.19	215.43
397.57	215.41
397.95	215.49
398.32	215.47
398.70	215.54
399.07	215.62
399.45	215.64
399.82	215.70
400.20	215.72
400.58	215.79
400.95	215.77
401.33	215.92
401.70	216.16
402.08	216.25
402.45	216.33
402.83	216.49
403.20	216.61
403.58	216.69
403.95	216.85
404.33	217.01
404.71	217.17
405.08	217.43
405.46	217.60
405.83	217.80
406.21	218.00
406.58	218.26
406.96	218.51
407.33	218.82
407.70	219.12
408.08	219.59
408.45	219.96
408.83	220.37
409.20	220.70
409.58	220.94
409.95	221.42
410.33	221.92
410.70	222.32
411.08	222.87
411.45	223.49
411.82	224.05
412.20	224.74
412.57	225.60
412.95	226.15
413.32	226.98
413.69	227.81
414.07	228.73
414.44	229.72
414.82	230.71
415.19	231.87
415.56	233.07
415.94	234.24
416.31	235.59
416.68	236.98
417.06	238.58
417.43	240.10
417.81	241.84
418.18	243.59
418.55	245.52
418.93	247.54
419.30	249.60
419.67	251.83
420.04	254.09
420.42	256.45
420.79	259.27
421.16	262.12
421.54	265.01
421.91	267.99
422.28	271.05
422.66	274.32
423.03	277.55
423.40	280.93
423.77	284.54
424.15	288.21
424.52	292.03
424.89	296.19
425.26	300.28
425.64	304.17
426.01	308.46
426.38	312.94
426.75	317.49
427.13	322.18
427.50	327.13
427.87	332.31
428.24	337.43
428.61	342.40
428.99	347.87
429.36	353.88
429.73	359.73
430.10	365.55
430.47	371.58
430.85	377.89
431.22	384.59
431.59	391.63
431.96	398.48
432.33	405.94
432.70	413.13
433.08	421.61
433.45	429.58
433.82	437.54
434.19	446.39
434.56	455.06
434.93	463.35
435.30	471.61
435.68	480.65
436.05	489.64
436.42	498.50
436.79	506.61
437.16	515.32
437.53	524.56
437.90	533.58
438.27	542.55
438.64	551.70
439.01	560.12
439.38	567.64
439.75	574.88
440.13	583.27
440.50	591.25
440.87	597.69
441.24	604.32
441.61	611.65
441.98	617.00
442.35	623.29
442.72	629.71
443.09	635.73
443.46	639.53
443.83	642.05
444.20	644.23
444.57	647.37
444.94	648.81
445.31	650.28
445.68	651.75
446.05	652.32
446.42	651.46
446.79	650.53
447.16	649.47
447.53	648.72
447.90	645.39
448.27	642.03
448.64	637.33
449.01	634.01
449.37	628.13
449.74	622.44
450.11	615.44
450.48	607.94
450.85	600.47
451.22	593.95
451.59	587.85
451.96	582.02
452.33	574.12
452.70	567.09
453.07	558.59
453.43	550.01
453.80	541.75
454.17	533.89
454.54	526.39
454.91	518.28
455.28	510.31
455.65	502.94
456.02	495.45
456.38	489.20
456.75	481.41
457.12	474.83
457.49	468.35
457.86	462.28
458.23	456.97
458.59	451.10
458.96	445.18
459.33	439.93
459.70	434.60
460.07	430.40
460.43	425.47
460.80	420.93
461.17	416.96
461.54	412.81
461.91	408.82
462.27	404.69
462.64	401.27
463.01	397.49
463.38	393.77
463.74	390.17
464.11	386.93
464.48	384.06
464.85	380.99
465.21	378.63
465.58	376.02
465.95	372.91
466.32	370.32
466.68	367.73
467.05	365.10
467.42	362.57
467.78	359.90
468.15	357.36
468.52	355.49
468.88	353.04
469.25	350.82
469.62	348.98
469.98	347.07
470.35	345.26
470.72	343.54
471.08	341.78
471.45	340.28
471.82	338.77
472.18	337.09
472.55	335.91
472.92	334.51
473.28	333.30
473.65	332.16
474.02	331.02
474.38	330.14
474.75	329.40
475.11	328.59
475.48	328.02
475.85	327.54
476.21	327.04
476.58	326.65
476.94	326.40
477.31	326.14
477.67	325.86
478.04	325.72
478.41	325.71
478.77	325.88
479.14	325.83
479.50	325.91
479.87	326.22
480.23	326.53
480.60	326.76
480.96	327.06
481.33	327.67
481.69	328.27
482.06	328.75
482.42	329.27
482.79	329.85
483.15	330.64
483.52	331.61
483.88	332.46
484.25	333.45
484.61	334.48
484.98	335.51
485.34	336.83
485.71	338.17
486.07	339.64
486.44	341.00
486.80	342.61
487.17	344.33
487.53	346.20
487.90	348.06
488.26	350.12
488.62	352.29
488.99	354.29
489.35	356.49
489.72	358.90
490.08	361.39
490.44	363.98
490.81	366.67
491.17	369.36
491.54	372.44
491.90	375.48
492.26	378.72
492.63	382.21
492.99	385.74
493.36	389.42
493.72	393.27
494.08	397.29
494.45	401.54
494.81	405.87
495.17	410.31
495.54	415.03
495.90	419.88
496.26	424.80
496.63	430.05
496.99	435.46
497.35	441.03
497.72	446.92
498.08	452.89
498.44	459.06
498.80	465.51
499.17	472.03
499.53	478.80
499.89	485.79
500.26	492.74
500.62	499.87
500.98	507.34
501.34	514.84
501.71	522.67
502.07	530.53
502.43	538.66
502.79	546.91
503.16	555.34
503.52	564.07
503.88	572.86
504.24	581.86
504.60	590.99
504.97	600.31
505.33	609.59
505.69	619.49
506.05	629.44
506.41	639.38
506.78	649.44
507.14	659.76
507.50	670.24
507.86	681.11
508.22	691.92
508.59	702.69
508.95	713.91
509.31	725.25
509.67	736.82
510.03	748.29
510.39	760.08
510.75	772.04
511.12	783.92
511.48	796.14
511.84	808.59
512.20	820.97
512.56	833.74
512.92	846.68
513.28	859.45
513.64	872.31
514.00	885.23
514.37	898.30
514.73	911.46
515.09	924.64
515.45	937.50
515.81	950.64
516.17	964.08
516.53	977.46
516.89	990.68
517.25	1003.94
517.61	1017.58
517.97	1030.99
518.33	1044.28
518.69	1057.97
519.05	1071.68
519.41	1085.32
519.77	1099.29
520.13	1112.66
520.49	1125.95
520.85	1139.45
521.21	1152.94
521.57	1166.69
521.93	1179.94
522.29	1193.85
522.65	1207.53
523.01	1221.36
523.37	1234.77
523.73	1248.32
524.09	1261.56
524.45	1275.08
524.81	1288.58
525.17	1302.06
525.53	1315.33
525.89	1328.71
526.25	1341.89
526.61	1354.97
526.97	1368.25
527.33	1381.37
527.68	1394.82
528.04	1408.37
528.40	1421.59
528.76	1435.04
529.12	1448.08
529.48	1461.42
529.84	1473.80
530.20	1486.64
530.56	1499.32
530.91	1512.57
531.27	1525.40
531.63	1538.23
531.99	1551.11
532.35	1563.63
532.71	1576.07
533.07	1589.16
533.42	1601.58
533.78	1613.88
534.14	1626.04
534.50	1637.28
534.86	1648.97
535.21	1660.17
535.57	1671.73
535.93	1683.08
536.29	1694.32
536.65	1705.92
537.00	1717.03
537.36	1728.50
537.72	1739.61
538.08	1751.13
538.44	1762.29
538.79	1773.53
539.15	1784.57
539.51	1795.42
539.87	1806.76
540.22	1817.72
540.58	1828.66
540.94	1839.67
541.29	1850.11
541.65	1859.91
542.01	1870.58
542.37	1880.69
542.72	1890.98
543.08	1900.97
543.44	1911.58
543.79	1920.89
544.15	1930.35
544.51	1940.44
544.87	1950.43
545.22	1959.74
545.58	1968.69
545.94	1977.50
546.29	1986.04
546.65	1994.46
547.01	2002.78
547.36	2010.53
547.72	2018.33
548.07	2026.15
548.43	2033.86
548.79	2041.71
549.14	2050.03
549.50	2058.63
549.86	2066.61
550.21	2074.14
550.57	2081.70
550.92	2088.50
551.28	2096.13
551.64	2103.53
551.99	2111.14
552.35	2118.33
552.70	2125.25
553.06	2132.04
553.41	2138.50
553.77	2145.07
554.13	2151.55
554.48	2158.57
554.84	2165.88
555.19	2172.47
555.55	2178.92
555.90	2185.29
556.26	2192.17
556.61	2198.34
556.97	2203.05
557.32	2208.93
557.68	2215.22
558.03	2221.23
558.39	2226.60
558.74	2232.46
559.10	2238.10
559.45	2243.64
559.81	2249.33
560.16	2255.01
560.52	2260.96
560.87	2267.53
561.23	2273.57
561.58	2280.33
561.94	2285.67
562.29	2290.15
562.64	2296.36
563.00	2302.07
563.35	2307.65
563.71	2313.47
564.06	2319.04
564.42	2325.25
564.77	2330.44
565.12	2335.70
565.48	2340.73
565.83	2346.31
566.19	2351.81
566.54	2357.25
566.89	2361.96
567.25	2366.49
567.60	2372.14
567.96	2377.18
568.31	2381.74
568.66	2386.04
569.02	2389.75
569.37	2393.46
569.72	2398.04
570.08	2401.63
570.43	2404.70
570.78	2407.89
571.14	2410.43
571.49	2413.66
571.84	2417.11
572.20	2419.90
572.55	2423.04
572.90	2425.43
573.26	2428.35
573.61	2431.01
573.96	2433.15
574.31	2435.15
574.67	2437.12
575.02	2437.78
575.37	2439.27
575.72	2439.87
576.08	2441.25
576.43	2441.52
576.78	2442.07
577.13	2443.72
577.49	2444.75
577.84	2445.84
578.19	2447.21
578.54	2447.80
578.90	2448.62
579.25	2448.56
579.60	2448.58
579.95	2447.79
580.30	2447.96
580.66	2447.27
581.01	2445.59
581.36	2443.34
581.71	2441.88
582.06	2440.77
582.42	2440.20
582.77	2438.00
583.12	2436.57
583.47	2435.20
583.82	2434.66
584.17	2433.48
584.53	2431.43
584.88	2429.39
585.23	2427.56
585.58	2425.34
585.93	2423.36
586.28	2421.17
586.63	2418.75
586.98	2416.45
587.34	2414.56
587.69	2412.17
588.04	2410.12
588.39	2408.62
588.74	2406.15
589.09	2403.48
589.44	2400.19
589.79	2397.54
590.14	2395.73
590.49	2392.75
590.84	2388.96
591.19	2385.93
591.54	2382.78
591.89	2378.59
592.25	2375.34
592.60	2371.16
592.95	2366.82
593.30	2362.60
593.65	2358.24
594.00	2353.80
594.35	2350.86
594.70	2346.17
595.05	2341.62
595.40	2336.08
595.75	2330.29
596.10	2326.70
596.45	2322.01
596.80	2317.59
597.15	2312.50
597.50	2306.39
597.85	2301.47
598.19	2296.12
598.54	2290.26
598.89	2284.87
599.24	2280.38
599.59	2274.12
599.94	2268.28
600.29	2262.52
600.64	2256.51
600.99	2249.61
601.34	2244.03
601.69	2236.85
602.04	2230.36
602.39	2223.63
602.74	2217.59
603.08	2212.19
603.43	2205.47
603.78	2198.51
604.13	2191.40
604.48	2184.04
604.83	2177.96
605.18	2171.68
605.53	2164.83
605.87	2157.76
606.22	2150.91
606.57	2142.87
606.92	2134.91
607.27	2127.97
607.62	2121.35
607.96	2114.47
608.31	2107.94
608.66	2100.17
609.01	2092.75
609.36	2085.61
609.70	2077.78
610.05	2069.97
610.40	2061.54
610.75	2053.22
611.10	2045.43
611.44	2036.38
611.79	2027.67
612.14	2017.56
612.49	2006.83
612.83	1997.43
613.18	1988.01
613.53	1978.66
613.88	1968.98
614.22	1960.35
614.57	1950.24
614.92	1939.52
615.27	1929.06
615.61	1918.88
615.96	1909.14
616.31	1899.27
616.65	1889.72
617.00	1879.97
617.35	1870.10
617.70	1860.19
618.04	1850.06
618.39	1839.75
618.74	1829.98
619.08	1820.20
619.43	1811.51
619.78	1803.16
620.12	1794.52
620.47	1784.88
620.82	1774.44
621.16	1764.56
621.51	1754.46
621.85	1744.59
622.20	1733.96
622.55	1723.33
622.89	1713.30
623.24	1703.59
623.59	1693.76
623.93	1683.56
624.28	1673.64
624.62	1663.48
624.97	1653.25
625.32	1643.35
625.66	1634.47
626.01	1625.62
626.35	1616.10
626.70	1605.89
627.04	1595.71
627.39	1585.44
627.73	1576.05
628.08	1566.95
628.43	1557.35
628.77	1548.12
629.12	1539.20
629.46	1531.39
629.81	1523.03
630.15	1513.38
630.50	1503.38
630.84	1492.81
631.19	1482.98
631.53	1473.63
631.88	1463.37
632.22	1453.16
632.57	1443.76
632.91	1433.53
633.26	1423.60
633.60	1414.04
633.95	1404.76
634.29	1395.25
634.64	1385.87
634.98	1375.82
635.32	1366.54
635.67	1358.07
636.01	1348.69
636.36	1338.87
636.70	1329.21
637.05	1319.66
637.39	1310.76
637.73	1302.11
638.08	1294.52
638.42	1286.14
638.77	1277.24
639.11	1268.89
639.45	1261.01
639.80	1252.32
640.14	1243.49
640.49	1234.55
640.83	1225.60
641.17	1217.26
641.52	1209.02
641.86	1200.36
642.20	1192.44
642.55	1183.59
642.89	1174.52
643.23	1165.79
643.58	1157.63
643.92	1148.48
644.26	1139.82
644.61	1131.25
644.95	1122.24
645.29	1112.87
645.64	1103.59
645.98	1094.98
646.32	1087.04
646.66	1078.41
647.01	1070.00
647.35	1061.74
647.69	1053.33
648.04	1044.94
648.38	1036.04
648.72	1027.15
649.06	1018.59
649.41	1010.33
649.75	1002.37
650.09	994.43
650.43	986.28
650.78	977.83
651.12	970.07
651.46	962.51
651.80	955.15
652.14	947.86
652.49	940.28
652.83	932.82
653.17	925.09
653.51	917.31
653.85	909.99
654.20	902.57
654.54	895.05
654.88	887.71
655.22	880.33
655.56	873.23
655.90	866.34
656.25	859.55
656.59	852.57
656.93	845.41
657.27	838.18
657.61	831.17
657.95	824.89
658.29	818.93
658.64	812.71
658.98	806.19
659.32	799.50
659.66	793.18
660.00	786.83
660.34	780.74
660.68	774.55
661.02	768.17
661.36	762.14
661.70	756.22
662.05	750.45
662.39	744.89
662.73	739.40
663.07	734.00
663.41	728.34
663.75	722.48
664.09	716.79
664.43	711.28
664.77	705.91
665.11	700.09
665.45	694.15
665.79	688.29
666.13	682.55
666.47	677.01
666.81	671.49
667.15	665.95
667.49	660.62
667.83	655.40
668.17	650.11
668.51	644.94
668.85	640.01
669.19	635.06
669.53	630.03
669.87	624.79
670.21	619.91
670.55	615.10
670.89	610.70
671.23	606.34
671.57	601.92
671.91	597.49
672.25	593.26
672.58	589.03
672.92	584.89
673.26	580.88
673.60	576.98
673.94	573.13
674.28	569.59
674.62	565.82
674.96	561.91
675.30	558.33
675.64	554.64
675.97	550.89
676.31	547.23
676.65	543.60
676.99	540.13
677.33	536.24
677.67	532.59
678.01	528.62
678.34	524.91
678.68	521.33
679.02	517.68
679.36	513.89
679.70	510.18
680.04	506.54
680.37	503.06
680.71	499.69
681.05	496.45
681.39	493.08
681.73	489.85
682.06	486.89
682.40	483.70
682.74	480.46
683.08	477.27
683.42	474.06
683.75	471.00
684.09	467.99
684.43	465.19
684.77	462.20
685.10	459.37
685.44	456.39
685.78	453.47
686.12	450.67
686.45	447.95
686.79	445.24
687.13	442.69
687.46	440.02
687.80	437.31
688.14	434.43
688.48	431.76
688.81	429.06
689.15	426.35
689.49	423.71
689.82	421.13
690.16	418.49
690.50	416.01
690.83	413.47
691.17	410.84
691.51	408.29
691.84	406.01
692.18	403.72
692.52	401.49
692.85	399.29
693.19	397.12
693.52	394.93
693.86	392.69
694.20	390.48
694.53	388.29
694.87	386.07
695.21	383.88
695.54	381.66
695.88	379.46
696.21	377.20
696.55	375.05
696.88	372.96
697.22	370.99
697.56	369.08
697.89	367.17
698.23	365.41
698.56	363.56
698.90	361.76
699.23	359.83
699.57	357.95
699.90	356.06
700.24	354.20
700.58	352.46
700.91	350.78
701.25	349.15
701.58	347.52
701.92	345.91
702.25	344.28
702.59	342.65
702.92	341.11
703.26	339.56
703.59	338.05
703.93	336.76
704.26	335.27
704.60	333.73
704.93	332.19
705.26	330.69
705.60	329.22
705.93	327.71
706.27	326.34
706.60	325.03
706.94	323.79
707.27	322.39
707.61	320.99
707.94	319.62
708.27	318.14
708.61	316.67
708.94	315.24
709.28	313.96
709.61	312.70
709.94	311.46
710.28	310.22
710.61	309.10
710.95	307.65
711.28	306.57
711.61	305.39
711.95	304.25
712.28	303.03
712.61	301.85
712.95	300.78
713.28	299.71
713.61	298.59
713.95	297.42
714.28	296.42
714.61	295.41
714.95	294.39
715.28	293.34
715.61	292.30
715.95	291.39
716.28	290.41
716.61	289.43
716.95	288.41
717.28	287.45
717.61	286.41
717.94	285.51
718.28	284.45
718.61	283.54
718.94	282.65
719.27	281.77
719.61	280.95
719.94	280.06
720.27	279.09
720.60	278.19
720.94	277.39
721.27	276.63
721.60	275.91
721.93	275.14
722.27	274.51
722.60	273.85
722.93	273.10
723.26	272.44
723.59	271.77
723.93	271.15
724.26	270.53
724.59	269.90
724.92	269.30
725.25	268.80
725.59	268.20
725.92	267.65
726.25	267.10
726.58	266.48
726.91	265.84
727.24	265.32
727.57	264.76
727.91	264.12
728.24	263.52
728.57	262.89
728.90	262.34
729.23	261.69
729.56	261.27
729.89	260.74
730.22	260.15
730.55	259.62
730.89	259.06
731.22	258.51
731.55	258.01
731.88	257.46
732.21	256.86
732.54	256.34
732.87	255.80
733.20	255.28
733.53	254.82
733.86	254.38
734.19	253.87
734.52	253.43
734.85	253.13
735.18	252.65
735.51	252.31
735.84	251.86
736.17	251.50
736.50	250.91
736.83	250.73
737.16	250.33
737.49	249.92
737.82	249.48
738.15	249.10
738.48	248.74
738.81	248.36
739.14	247.97
739.47	247.58
739.80	247.21
740.13	246.89
740.46	246.46
740.79	246.07
741.12	245.71
741.45	245.35
741.78	244.91
742.11	244.65
742.44	244.23
742.77	243.98
743.10	243.63
743.43	243.29
743.75	242.73
744.08	242.63
744.41	242.26
744.74	241.93
745.07	241.57
745.40	241.21
745.73	240.98
746.06	240.64
746.39	240.37
746.71	240.05
747.04	239.67
747.37	239.38
747.70	239.10
748.03	238.78
748.36	238.53
748.68	238.21
749.01	237.82
749.34	237.54
749.67	237.17
750.00	236.90
750.33	236.76
750.65	236.51
750.98	235.98
751.31	235.75
751.64	235.54
751.97	235.41
752.29	235.19
752.62	234.83
752.95	234.57
753.28	234.28
753.60	234.00
753.93	233.82
754.26	233.59
754.59	233.30
754.91	233.07
755.24	232.78
755.57	232.58
755.90	232.39
756.22	232.12
756.55	231.89
756.88	231.62
757.20	231.27
757.53	231.00
757.86	230.80
758.19	230.61
758.51	230.39
758.84	230.05
759.17	229.80
759.49	229.63
759.82	229.54
760.15	229.36
760.47	229.19
760.80	228.93
761.13	228.78
761.45	228.62
761.78	228.43
762.11	228.27
762.43	228.06
762.76	227.88
763.08	227.77
763.41	227.59
763.74	227.46
764.06	227.31
764.39	227.15
764.71	226.97
765.04	226.80
765.37	226.66
765.69	226.51
766.02	226.39
766.34	226.24
766.67	226.02
767.00	225.91
767.32	225.90
767.65	225.92
767.97	225.78
768.30	225.66
768.62	225.55
768.95	225.39
769.27	225.27
769.60	225.16
769.92	224.98
770.25	224.86
770.57	224.71
770.90	224.58
771.22	224.44
771.55	224.37
771.87	224.24
772.20	224.12
772.52	224.19
772.85	224.30
773.17	224.19
773.50	224.08
773.82	223.96
774.15	223.73
774.47	223.48
774.80	223.36
775.12	223.24
775.45	223.13
775.77	223.05
776.09	222.97
776.42	222.86
776.74	222.85
777.07	222.74
777.39	222.66
777.72	222.56
778.04	222.55
778.36	222.43
778.69	222.37
779.01	222.30
779.33	222.05
779.66	221.76
779.98	221.67
780.31	221.56
780.63	221.58
780.95	221.56
781.28	221.50
781.60	221.42
781.92	221.32
782.25	221.23
782.57	221.16
782.89	221.09
783.22	221.02
783.54	220.88
783.86	220.79
784.19	220.75
784.51	220.74
784.83	220.63
785.16	220.53
785.48	220.43
785.80	220.40
786.12	220.34
786.45	220.28
786.77	220.24
787.09	220.18
787.42	220.03
787.74	219.95
788.06	219.92
788.38	219.91
788.71	219.87
789.03	219.85
789.35	219.80
789.67	219.72
789.99	219.69
790.32	219.63
790.64	219.65
790.96	219.74
791.28	219.59
791.61	219.51
791.93	219.51
792.25	219.51
792.57	219.57
792.89	219.49
793.21	219.44
793.54	219.37
793.86	219.31
794.18	219.27
794.50	219.21
794.82	219.11
795.14	219.04
795.47	219.01
795.79	218.98
796.11	218.93
796.43	218.86
796.75	218.81
797.07	218.78
797.39	218.72
797.71	218.55
798.04	218.55
798.36	218.54
798.68	218.50
799.00	218.47
799.32	218.32
799.64	218.32
799.96	218.27
800.28	218.27
800.60	218.24
800.92	218.21
801.24	218.18
801.56	218.16
801.89	218.12
802.21	218.12
802.53	218.06
802.85	218.05
803.17	218.13
803.49	218.08
803.81	217.99
804.13	217.93
804.45	217.85
804.77	217.81
805.09	217.80
805.41	217.72
805.73	217.62
806.05	217.54
806.37	217.50
806.69	217.49
807.01	217.45
807.33	217.44
807.65	217.34
807.97	217.41
808.28	217.39
808.60	217.36
808.92	217.30
809.24	217.40
809.56	217.34
809.88	217.26
810.20	217.25
810.52	217.31
810.84	217.26
811.16	217.22
811.48	217.19
811.80	217.21
812.12	217.22
812.43	217.25
812.75	217.20
813.07	217.15
813.39	217.09
813.71	217.00
814.03	216.94
814.35	216.94
814.67	216.81
814.98	216.77
815.30	216.73
815.62	216.66
815.94	216.51
816.26	216.50
816.58	216.42
816.89	216.41
817.21	216.32
817.53	216.32
817.85	216.29
818.17	216.27
818.48	216.18
818.80	216.15
819.12	216.11
819.44	216.05
819.76	216.02
820.07	216.01
820.39	216.01
820.71	216.04
821.03	216.02
821.34	215.99
821.66	216.00
821.98	216.01
822.30	215.99
822.61	216.09
822.93	216.03
823.25	216.01
823.57	215.96
823.88	216.04
824.20	216.05
824.52	216.09
824.83	216.08
825.15	216.07
825.47	216.08
825.79	216.08
826.10	216.05
826.42	216.02
826.74	216.03
827.05	216.02
827.37	216.01
827.69	216.00
828.00	215.98
828.32	215.97
828.64	215.96
828.95	216.05
829.27	215.98
829.58	215.99
829.90	216.04
830.22	216.05
830.53	215.97
830.85	215.93
831.17	215.85
831.48	215.84
831.80	215.83
832.11	215.80
832.43	215.77
832.75	215.79
833.06	215.94
833.38	215.86
833.69	215.80
834.01	215.82
834.32	215.80
834.64	215.78
834.96	215.75
835.27	215.70
835.59	215.63
835.90	215.56
836.22	215.53
836.53	215.50
836.85	215.45
837.16	215.63
837.48	215.62
837.79	215.70
838.11	215.73
838.42	215.72
838.74	215.74
839.05	215.75
839.37	215.78
839.68	215.65
840.00	215.66
840.31	215.73
840.63	215.73
840.94	215.71
841.26	215.68
841.57	215.66
841.88	215.71
842.20	215.69
842.51	215.67
842.83	215.65
843.14	215.84
843.46	215.87
843.77	215.74
844.08	215.71
844.40	215.64
844.71	215.61
845.03	215.59
845.34	215.56
845.65	215.52
845.97	215.51
846.28	215.48
846.60	215.51
846.91	215.47
847.22	215.42
847.54	215.45
847.85	215.48
848.16	215.46
848.48	215.39
848.79	215.48
849.10	215.50
849.42	215.55
849.73	215.30
850.04	215.28
850.36	215.20
850.67	215.25
850.98	215.24
851.30	215.19
851.61	215.14
851.92	215.15
852.23	215.24
852.55	215.24
852.86	215.29
853.17	215.28
853.49	215.30
853.80	215.32
854.11	215.35
854.42	215.38
854.74	215.37
855.05	215.38
855.36	215.27
855.67	215.27
855.99	215.28
856.30	215.58
856.61	215.55
856.92	215.56
857.23	215.54
857.55	215.51
857.86	215.53
858.17	215.59
858.48	215.56
858.79	215.49
859.11	215.53
859.42	215.47
859.73	215.44
860.04	215.45
860.35	215.38
860.66	215.30
860.98	215.29
861.29	215.33
861.60	215.30
861.91	215.34
862.22	215.31
862.53	215.23
862.84	214.95
863.16	215.01
863.47	214.99
863.78	214.97
864.09	214.97
864.40	214.98
864.71	214.95
865.02	214.97
865.33	214.92
865.64	214.88
865.95	214.90
866.27	215.03
866.58	215.01
866.89	215.05
867.20	215.05
867.51	214.99
867.82	214.96
868.13	215.03
868.44	214.98
868.75	215.02
869.06	215.02
869.37	215.03
869.68	214.94
869.99	214.96
870.30	214.96
870.61	215.00
870.92	214.98
871.23	214.97
871.54	215.01
871.85	215.07
872.16	215.08
872.47	215.02
872.78	214.88
873.09	214.91
873.40	214.91
873.71	214.91
874.02	214.92
874.33	214.89
874.64	214.86
874.95	214.88
875.26	214.84
875.56	214.86
875.87	214.89
876.18	214.92
876.49	215.12
876.80	215.11
877.11	215.07
877.42	215.07
877.73	215.07
878.04	215.01
878.35	215.00
878.66	215.02
878.96	215.06
879.27	215.09
879.58	215.04
879.89	215.02
880.20	215.08
880.51	215.05
880.82	215.06
881.12	215.07
881.43	215.06
881.74	215.01
882.05	215.02
882.36	215.00
882.67	215.00
882.97	214.79
883.28	214.78
883.59	214.76
883.90	214.77
884.21	214.81
884.51	214.80
884.82	214.73
885.13	214.76
885.44	214.73
885.74	214.70
886.05	214.69
886.36	214.71
886.67	214.63
886.98	214.77
887.28	214.78
887.59	214.78
887.90	214.77
888.20	214.80
888.51	214.84
888.82	214.81
889.13	214.81
889.43	214.96
889.74	214.93
890.05	214.95
890.35	214.94
890.66	214.85
890.97	214.81
891.28	214.85
891.58	214.81
891.89	214.84
892.20	214.83
892.50	214.84
892.81	214.82
893.12	214.84
893.42	214.72
893.73	214.70
894.04	214.69
894.34	214.67
894.65	214.69
894.95	214.65
895.26	214.66
895.57	214.73
895.87	214.54
896.18	214.60
896.48	214.62
896.79	214.62
897.10	214.67
897.40	214.72
897.71	214.69
898.01	214.67
898.32	214.65
898.63	214.63
898.93	214.64
899.24	214.66
899.54	214.64
899.85	214.62
900.15	214.61
900.46	214.59
900.76	214.62
901.07	214.58
901.38	214.57
901.68	214.58
901.99	214.49
902.29	214.53
902.60	214.52
902.90	214.49
903.21	214.48
903.51	214.46
903.82	214.47
904.12	214.47
904.43	214.50
904.73	214.50
905.03	214.50
905.34	214.70
905.64	214.66
905.95	214.66
906.25	214.66
906.56	214.68
906.86	214.69
907.17	214.68
907.47	214.67
907.77	214.64
908.08	214.60
908.38	214.63
908.69	214.62
908.99	214.64
909.30	214.68
909.60	214.66
909.90	214.68
910.21	214.62
910.51	214.58
910.81	214.58
911.12	214.59
911.42	214.61
911.73	214.39
912.03	214.42
912.33	214.48
912.64	214.46
912.94	214.44
913.24	214.39
913.55	214.36
913.85	214.36
914.15	214.40
914.46	214.45
914.76	214.38
915.06	214.37
915.37	214.35
915.67	214.35
915.97	214.37
916.27	214.33
916.58	214.37
916.88	214.41
917.18	214.40
917.49	214.51
917.79	214.49
918.09	214.49
918.39	214.54
918.70	214.51
919.00	214.53
919.30	214.63
919.60	214.65
919.91	214.64
920.21	214.64
920.51	214.61
920.81	214.60
921.12	214.67
921.42	214.65
921.72	214.66
922.02	214.63
922.32	214.66
922.63	214.66
922.93	214.73
923.23	214.70
923.53	214.70
923.83	214.58
924.13	214.58
924.44	214.60
924.74	214.61
925.04	214.65
925.34	214.64
925.64	214.56
925.94	214.56
926.24	214.70
926.55	214.71
926.85	214.72
927.15	214.70
927.45	214.68
927.75	214.68
928.05	214.66
928.35	214.62
928.65	214.63
928.95	214.65
929.26	214.57
929.56	214.62
929.86	214.64
930.16	214.62
930.46	214.64
930.76	214.64
931.06	214.54
931.36	214.50
931.66	214.52
931.96	214.52
932.26	214.56
932.56	214.44
932.86	214.41
933.16	214.40
933.46	214.38
933.76	214.36
934.06	214.42
934.36	214.51
934.66	214.55
934.96	214.54
935.26	214.57
935.56	214.62
935.86	214.56
936.16	214.52
936.46	214.48
936.76	214.47
937.06	214.44
937.36	214.46
937.66	214.47
937.96	214.46
938.26	214.44
938.56	214.41
938.86	214.43
939.16	214.50
939.46	214.54
939.76	214.60
940.06	214.60
940.35	214.55
940.65	214.43
940.95	214.42
941.25	214.39
941.55	214.35
941.85	214.33
942.15	214.38
942.45	214.41
942.75	214.45
943.04	214.46
943.34	214.50
943.64	214.48
943.94	214.43
944.24	214.42
944.54	214.41
944.84	214.43
945.13	214.41
945.43	214.38
945.73	214.34
946.03	214.28
946.33	214.25
946.62	214.27
946.92	214.28
947.22	214.32
947.52	214.32
947.82	214.35
948.11	214.33
948.41	214.27
948.71	214.21
949.01	214.18
949.31	214.12
949.60	214.14
949.90	214.18
950.20	214.15
950.50	214.15
950.79	214.15
951.09	214.18
951.39	214.17
951.69	214.10
951.98	214.15
952.28	214.16
952.58	214.15
952.87	214.10
953.17	214.12
953.47	214.07
953.76	214.05
954.06	214.01
954.36	213.98
954.66	214.00
954.95	214.08
955.25	214.15
955.55	214.21
955.84	214.15
956.14	214.15
956.44	214.18
956.73	214.18
957.03	214.20
957.32	214.17
957.62	214.16
957.92	214.24
958.21	214.22
958.51	214.53
958.81	214.55
959.10	214.59
959.40	214.63
959.69	214.66
959.99	214.69
960.29	214.70
960.58	214.69
960.88	214.79
961.17	214.74
961.47	214.71
961.76	214.67
962.06	214.72
962.36	214.71
962.65	214.71
962.95	214.70
963.24	214.69
963.54	214.70
963.83	214.70
964.13	214.69
964.42	214.67
964.72	214.46
965.01	214.48
965.31	214.47
965.60	214.42
965.90	214.53
966.19	214.49
966.49	214.50
966.78	214.52
967.08	214.50
967.37	214.52
967.67	214.48
967.96	214.52
968.26	214.52
968.55	214.53
968.85	214.56
969.14	214.55
969.43	214.55
969.73	214.55
970.02	214.53
970.32	214.50
970.61	214.45
970.91	214.39
971.20	214.34
971.49	214.33
971.79	214.36
972.08	214.21
972.38	214.26
972.67	214.20
972.96	214.20
973.26	214.14
973.55	214.18
973.85	214.16
974.14	214.15
974.43	214.15
974.73	214.12
975.02	214.07
975.31	214.06
975.61	214.06
975.90	214.06
976.19	214.06
976.49	214.08
976.78	214.11
977.07	214.11
977.37	214.12
977.66	214.11
977.95	214.10
978.24	214.13
978.54	214.15
978.83	214.21
979.12	214.21
979.42	214.20
979.71	214.15
980.00	214.18
980.29	214.19
980.59	214.14
980.88	214.22
981.17	214.26
981.46	214.28
981.76	214.27
982.05	214.31
982.34	214.33
982.63	214.33
982.93	214.32
983.22	214.37
983.51	214.38
983.80	214.46
984.09	214.48
984.39	214.46
984.68	214.42
984.97	214.41
985.26	214.39
985.55	214.40
985.85	214.38
986.14	214.37
986.43	214.42
986.72	214.40
987.01	214.31
987.30	214.30
987.59	214.26
987.89	214.27
988.18	214.20
988.47	214.17
988.76	214.16
989.05	214.17
989.34	214.14
989.63	214.19
989.92	214.14
990.22	214.10
990.51	214.11
990.80	214.11
991.09	214.11
991.38	214.13
991.67	214.12
991.96	214.11
992.25	214.14
992.54	214.08
992.83	214.11
993.12	214.12
993.41	214.14
993.70	214.24
993.99	214.27
994.28	214.30
994.58	214.35
994.87	214.34
995.16	214.35
995.45	214.31
995.74	214.23
996.03	214.28
996.32	214.31
996.61	214.36
996.90	214.35
997.19	214.36
997.48	214.39
997.77	214.39
998.06	214.39
998.34	214.37
998.63	214.38
998.92	214.37
999.21	214.42
999.50	214.41
999.79	214.35
1000.08	214.37
1000.37	214.36
1000.66	214.34
1000.95	214.38
1001.24	214.39
1001.53	214.42
1001.82	214.40
1002.11	214.35
1002.40	214.37
1002.68	214.40
1002.97	214.55
1003.26	214.52
1003.55	214.49
1003.84	214.50
1004.13	214.60
1004.42	214.58
1004.71	214.57
1004.99	214.56
1005.28	214.59
1005.57	214.59
1005.86	214.57
1006.15	214.53
1006.44	214.50
1006.72	214.53
1007.01	214.48
1007.30	214.46
1007.59	214.44
1007.88	214.45
1008.17	214.42
1008.45	214.41
1008.74	214.34
1009.03	214.24
1009.32	214.25
1009.60	214.25
1009.89	214.26
1010.18	214.16
1010.47	214.16
1010.76	214.16
1011.04	214.15
1011.33	214.15
1011.62	214.17
1011.91	214.19
1012.19	214.21
1012.48	214.21
1012.77	214.18
1013.05	214.30
1013.34	214.32
1013.63	214.31
1013.92	214.34
1014.20	214.36
1014.49	214.32
1014.78	214.36
1015.06	214.26
1015.35	214.25
1015.64	214.27
1015.92	214.27
1016.21	214.30
1016.50	214.29
1016.78	214.30
1017.07	214.33
1017.36	214.30
1017.64	214.26
1017.93	214.24
1018.22	214.23
1018.50	214.27
1018.79	214.26
1019.08	214.14
1019.36	214.14
1019.65	214.12
1019.93	214.14
1020.22	214.18
1020.51	214.27
1020.79	214.20
1021.08	214.22
1021.36	214.47
1021.65	213.97
1021.94	213.90
1022.22	214.42
1022.51	213.27
1022.79	214.81
1023.08	214.53
1023.36	216.11
1023.65	213.53
>>>>>End Processed Spectral Data<<<<<
