SpectraSuite Data File
++++++++++++++++++++++++++++++++++++
Date: Tue Jan 29 16:01:34 EST 2013
User: group
Dark Spectrum Present: No
Reference Spectrum Present: No
Number of Sampled Component Spectra: 1
Spectrometers: USB2E7196
Integration Time (usec): 65000 (USB2E7196)
Spectra Averaged: 100 (USB2E7196)
Boxcar Smoothing: 10 (USB2E7196)
Correct for Electrical Dark: No (USB2E7196)
Strobe/Lamp Enabled: No (USB2E7196)
Correct for Detector Non-linearity: No (USB2E7196)
Correct for Stray Light: No (USB2E7196)
Number of Pixels in Processed Spectrum: 2048
>>>>>Begin Processed Spectral Data<<<<<
339.09	0.00
339.48	203.01
339.86	204.65
340.24	205.60
340.63	206.58
341.01	210.90
341.39	209.93
341.78	211.21
342.16	212.97
342.54	212.90
342.93	201.92
343.31	212.13
343.69	212.68
344.07	213.08
344.46	213.51
344.84	213.91
345.22	214.12
345.60	214.34
345.99	214.53
346.37	214.63
346.75	214.72
347.13	214.76
347.52	214.81
347.90	214.90
348.28	214.94
348.66	215.00
349.05	214.98
349.43	215.02
349.81	215.08
350.19	215.15
350.57	215.20
350.96	215.30
351.34	215.38
351.72	215.43
352.10	215.58
352.48	215.63
352.87	215.67
353.25	215.70
353.63	215.80
354.01	215.87
354.39	215.95
354.77	216.01
355.15	216.16
355.54	216.23
355.92	216.25
356.30	216.32
356.68	216.53
357.06	216.62
357.44	216.67
357.82	216.74
358.20	216.81
358.58	216.88
358.97	216.95
359.35	217.08
359.73	217.19
360.11	217.25
360.49	217.35
360.87	217.45
361.25	217.56
361.63	217.66
362.01	217.74
362.39	217.80
362.77	217.89
363.15	217.93
363.53	217.97
363.91	218.02
364.29	218.03
364.67	217.86
365.05	217.86
365.43	217.93
365.81	218.00
366.19	218.12
366.57	218.26
366.95	218.29
367.33	218.28
367.71	218.27
368.09	218.34
368.47	218.35
368.85	218.32
369.23	218.35
369.61	218.28
369.99	218.35
370.37	218.38
370.75	218.49
371.13	218.39
371.51	218.34
371.89	218.34
372.27	218.33
372.65	218.35
373.03	218.33
373.41	218.30
373.78	218.23
374.16	218.07
374.54	217.94
374.92	217.86
375.30	217.79
375.68	217.72
376.06	217.65
376.44	217.60
376.82	217.59
377.19	217.55
377.57	217.50
377.95	217.37
378.33	217.27
378.71	217.08
379.09	217.12
379.47	217.12
379.84	217.04
380.22	216.96
380.60	216.89
380.98	216.86
381.36	216.78
381.73	216.70
382.11	216.72
382.49	216.68
382.87	216.62
383.25	216.57
383.62	216.80
384.00	216.72
384.38	216.66
384.76	216.66
385.13	216.70
385.51	216.65
385.89	216.61
386.27	216.58
386.64	216.58
387.02	216.52
387.40	216.44
387.78	216.45
388.15	216.44
388.53	216.38
388.91	216.33
389.29	216.31
389.66	216.32
390.04	216.28
390.42	216.28
390.79	216.25
391.17	216.24
391.55	216.00
391.92	215.99
392.30	216.03
392.68	215.96
393.05	215.91
393.43	215.96
393.81	215.94
394.18	215.91
394.56	215.87
394.94	215.89
395.31	215.88
395.69	215.94
396.06	216.01
396.44	216.05
396.82	216.09
397.19	216.21
397.57	216.22
397.95	216.28
398.32	216.23
398.70	216.33
399.07	216.43
399.45	216.47
399.82	216.51
400.20	216.50
400.58	216.55
400.95	216.53
401.33	216.61
401.70	216.82
402.08	216.88
402.45	216.99
402.83	217.13
403.20	217.22
403.58	217.32
403.95	217.43
404.33	217.58
404.71	217.75
405.08	218.01
405.46	218.15
405.83	218.31
406.21	218.53
406.58	218.78
406.96	218.93
407.33	219.18
407.70	219.47
408.08	219.94
408.45	220.29
408.83	220.69
409.20	221.01
409.58	221.30
409.95	221.76
410.33	222.24
410.70	222.67
411.08	223.22
411.45	223.73
411.82	224.30
412.20	224.97
412.57	225.72
412.95	226.28
413.32	227.06
413.69	227.88
414.07	228.75
414.44	229.69
414.82	230.70
415.19	231.83
415.56	233.01
415.94	234.15
416.31	235.51
416.68	236.84
417.06	238.41
417.43	239.91
417.81	241.62
418.18	243.31
418.55	245.17
418.93	247.16
419.30	249.22
419.67	251.35
420.04	253.56
420.42	255.85
420.79	258.55
421.16	261.29
421.54	264.10
421.91	266.98
422.28	269.93
422.66	273.11
423.03	276.23
423.40	279.46
423.77	282.91
424.15	286.40
424.52	290.11
424.89	294.13
425.26	298.06
425.64	301.74
426.01	305.91
426.38	310.24
426.75	314.60
427.13	319.12
427.50	323.92
427.87	328.93
428.24	333.95
428.61	338.80
428.99	344.11
429.36	349.88
429.73	355.57
430.10	361.22
430.47	367.12
430.85	373.18
431.22	379.65
431.59	386.50
431.96	393.08
432.33	400.31
432.70	407.28
433.08	415.45
433.45	423.27
433.82	430.99
434.19	439.51
434.56	447.92
434.93	456.02
435.30	464.05
435.68	472.84
436.05	481.50
436.42	490.05
436.79	497.91
437.16	506.30
437.53	515.20
437.90	524.08
438.27	532.62
438.64	541.56
439.01	549.80
439.38	557.09
439.75	564.14
440.13	572.26
440.50	579.88
440.87	586.09
441.24	592.54
441.61	599.50
441.98	604.70
442.35	610.80
442.72	616.85
443.09	622.61
443.46	626.21
443.83	628.59
444.20	630.69
444.57	633.64
444.94	635.04
445.31	636.42
445.68	637.69
446.05	638.27
446.42	637.42
446.79	636.40
447.16	635.34
447.53	634.59
447.90	631.31
448.27	628.10
448.64	623.63
449.01	620.31
449.37	614.72
449.74	609.20
450.11	602.46
450.48	595.30
450.85	588.09
451.22	581.81
451.59	575.94
451.96	570.30
452.33	562.77
452.70	555.96
453.07	547.79
453.43	539.49
453.80	531.51
454.17	523.88
454.54	516.66
454.91	508.82
455.28	501.19
455.65	494.11
456.02	487.00
456.38	480.93
456.75	473.42
457.12	467.09
457.49	460.90
457.86	454.98
458.23	449.83
458.59	444.19
458.96	438.39
459.33	433.36
459.70	428.21
460.07	424.09
460.43	419.41
460.80	415.01
461.17	411.19
461.54	407.16
461.91	403.29
462.27	399.38
462.64	396.08
463.01	392.42
463.38	388.90
463.74	385.27
464.11	382.10
464.48	379.38
464.85	376.41
465.21	374.08
465.58	371.57
465.95	368.58
466.32	366.06
466.68	363.58
467.05	361.04
467.42	358.59
467.78	356.07
468.15	353.60
468.52	351.80
468.88	349.41
469.25	347.29
469.62	345.59
469.98	343.69
470.35	342.00
470.72	340.39
471.08	338.67
471.45	337.27
471.82	335.84
472.18	334.21
472.55	333.10
472.92	331.78
473.28	330.62
473.65	329.54
474.02	328.49
474.38	327.69
474.75	326.95
475.11	326.22
475.48	325.65
475.85	325.21
476.21	324.75
476.58	324.46
476.94	324.29
477.31	324.01
477.67	323.78
478.04	323.62
478.41	323.64
478.77	323.79
479.14	323.76
479.50	323.91
479.87	324.25
480.23	324.55
480.60	324.80
480.96	325.10
481.33	325.73
481.69	326.34
482.06	326.88
482.42	327.43
482.79	328.01
483.15	328.85
483.52	329.87
483.88	330.81
484.25	331.79
484.61	332.79
484.98	333.86
485.34	335.19
485.71	336.59
486.07	338.00
486.44	339.34
486.80	341.00
487.17	342.67
487.53	344.52
487.90	346.39
488.26	348.44
488.62	350.56
488.99	352.53
489.35	354.72
489.72	357.07
490.08	359.59
490.44	362.16
490.81	364.88
491.17	367.51
491.54	370.46
491.90	373.46
492.26	376.68
492.63	380.09
492.99	383.61
493.36	387.28
493.72	391.19
494.08	395.19
494.45	399.38
494.81	403.75
495.17	408.15
495.54	412.83
495.90	417.59
496.26	422.51
496.63	427.66
496.99	433.01
497.35	438.60
497.72	444.39
498.08	450.26
498.44	456.37
498.80	462.81
499.17	469.33
499.53	476.04
499.89	482.94
500.26	489.83
500.62	496.80
500.98	504.16
501.34	511.54
501.71	519.33
502.07	527.08
502.43	535.08
502.79	543.23
503.16	551.60
503.52	560.17
503.88	568.84
504.24	577.84
504.60	586.90
504.97	596.06
505.33	605.26
505.69	615.18
506.05	624.99
506.41	634.79
506.78	644.78
507.14	654.96
507.50	665.38
507.86	676.08
508.22	686.87
508.59	697.45
508.95	708.57
509.31	719.73
509.67	731.18
510.03	742.55
510.39	754.28
510.75	766.07
511.12	777.91
511.48	789.96
511.84	802.17
512.20	814.38
512.56	827.06
512.92	839.83
513.28	852.35
513.64	864.92
514.00	877.71
514.37	890.59
514.73	903.50
515.09	916.26
515.45	928.94
515.81	941.87
516.17	955.13
516.53	968.14
516.89	981.08
517.25	993.96
517.61	1007.38
517.97	1020.52
518.33	1033.61
518.69	1047.06
519.05	1060.61
519.41	1074.03
519.77	1087.72
520.13	1100.78
520.49	1113.74
520.85	1126.87
521.21	1140.15
521.57	1153.55
521.93	1166.50
522.29	1180.23
522.65	1193.81
523.01	1207.27
523.37	1220.23
523.73	1233.22
524.09	1246.14
524.45	1259.32
524.81	1272.72
525.17	1285.75
525.53	1298.72
525.89	1311.72
526.25	1324.48
526.61	1337.10
526.97	1349.90
527.33	1362.54
527.68	1375.71
528.04	1388.91
528.40	1401.72
528.76	1414.74
529.12	1427.32
529.48	1440.28
529.84	1452.12
530.20	1464.60
530.56	1476.98
530.91	1489.90
531.27	1502.55
531.63	1515.05
531.99	1527.47
532.35	1539.36
532.71	1551.49
533.07	1563.99
533.42	1575.83
533.78	1587.70
534.14	1599.39
534.50	1610.36
534.86	1621.79
535.21	1632.36
535.57	1643.52
535.93	1654.65
536.29	1665.52
536.65	1676.75
537.00	1687.50
537.36	1698.50
537.72	1709.18
538.08	1720.23
538.44	1730.83
538.79	1741.54
539.15	1752.07
539.51	1762.52
539.87	1773.54
540.22	1784.12
540.58	1794.84
540.94	1805.38
541.29	1815.37
541.65	1824.98
542.01	1835.38
542.37	1845.00
542.72	1854.82
543.08	1864.21
543.44	1874.36
543.79	1883.45
544.15	1892.47
544.51	1902.18
544.87	1911.82
545.22	1920.61
545.58	1929.16
545.94	1937.75
546.29	1946.09
546.65	1954.35
547.01	1962.41
547.36	1969.91
547.72	1977.31
548.07	1984.70
548.43	1992.24
548.79	1999.88
549.14	2007.72
549.50	2015.68
549.86	2023.33
550.21	2030.58
550.57	2038.13
550.92	2044.60
551.28	2051.74
551.64	2059.01
551.99	2066.22
552.35	2073.11
552.70	2079.62
553.06	2086.10
553.41	2092.29
553.77	2098.64
554.13	2104.75
554.48	2111.48
554.84	2118.33
555.19	2124.58
555.55	2130.95
555.90	2137.14
556.26	2143.66
556.61	2149.45
556.97	2154.19
557.32	2160.01
557.68	2166.28
558.03	2171.84
558.39	2177.07
558.74	2182.87
559.10	2188.29
559.45	2193.82
559.81	2199.36
560.16	2205.12
560.52	2211.04
560.87	2217.39
561.23	2223.36
561.58	2229.98
561.94	2235.26
562.29	2240.20
562.64	2246.52
563.00	2251.82
563.35	2257.45
563.71	2263.38
564.06	2269.08
564.42	2275.16
564.77	2280.27
565.12	2285.47
565.48	2290.83
565.83	2296.32
566.19	2301.99
566.54	2307.49
566.89	2312.08
567.25	2316.65
567.60	2322.31
567.96	2327.53
568.31	2332.14
568.66	2336.30
569.02	2340.12
569.37	2343.95
569.72	2348.22
570.08	2351.69
570.43	2355.04
570.78	2358.28
571.14	2360.91
571.49	2364.08
571.84	2367.62
572.20	2370.52
572.55	2373.65
572.90	2375.85
573.26	2379.07
573.61	2381.53
573.96	2383.64
574.31	2385.74
574.67	2387.99
575.02	2389.03
575.37	2390.45
575.72	2391.53
576.08	2393.30
576.43	2393.95
576.78	2394.81
577.13	2396.81
577.49	2398.20
577.84	2399.76
578.19	2401.33
578.54	2402.24
578.90	2403.58
579.25	2403.82
579.60	2404.19
579.95	2403.85
580.30	2404.45
580.66	2403.85
581.01	2402.48
581.36	2400.66
581.71	2399.53
582.06	2398.71
582.42	2398.15
582.77	2396.29
583.12	2394.85
583.47	2393.84
583.82	2393.43
584.17	2392.32
584.53	2390.30
584.88	2388.54
585.23	2386.50
585.58	2384.43
585.93	2382.31
586.28	2380.21
586.63	2378.00
586.98	2375.72
587.34	2374.11
587.69	2371.88
588.04	2370.21
588.39	2368.79
588.74	2366.44
589.09	2364.04
589.44	2361.16
589.79	2358.76
590.14	2357.17
590.49	2354.46
590.84	2350.83
591.19	2347.93
591.54	2344.74
591.89	2340.83
592.25	2337.67
592.60	2333.82
592.95	2329.81
593.30	2325.85
593.65	2321.46
594.00	2317.27
594.35	2314.48
594.70	2309.77
595.05	2305.42
595.40	2299.97
595.75	2294.72
596.10	2291.12
596.45	2286.29
596.80	2281.74
597.15	2276.65
597.50	2270.84
597.85	2266.01
598.19	2260.84
598.54	2255.08
598.89	2250.23
599.24	2245.77
599.59	2239.81
599.94	2234.31
600.29	2228.54
600.64	2222.87
600.99	2216.52
601.34	2211.21
601.69	2204.19
602.04	2197.94
602.39	2191.34
602.74	2185.49
603.08	2180.00
603.43	2173.60
603.78	2166.94
604.13	2159.89
604.48	2152.86
604.83	2146.81
605.18	2140.52
605.53	2133.65
605.87	2126.78
606.22	2119.99
606.57	2112.23
606.92	2104.45
607.27	2097.45
607.62	2090.98
607.96	2083.82
608.31	2077.31
608.66	2069.48
609.01	2062.07
609.36	2055.02
609.70	2047.38
610.05	2039.65
610.40	2031.38
610.75	2023.25
611.10	2015.74
611.44	2007.18
611.79	1998.45
612.14	1988.45
612.49	1978.05
612.83	1968.85
613.18	1959.72
613.53	1950.40
613.88	1940.85
614.22	1932.25
614.57	1922.38
614.92	1911.76
615.27	1901.97
615.61	1891.91
615.96	1882.23
616.31	1872.68
616.65	1863.41
617.00	1853.46
617.35	1843.76
617.70	1833.98
618.04	1823.75
618.39	1813.31
618.74	1803.63
619.08	1794.05
619.43	1785.40
619.78	1777.26
620.12	1768.51
620.47	1758.75
620.82	1748.41
621.16	1738.69
621.51	1728.66
621.85	1718.73
622.20	1708.27
622.55	1697.54
622.89	1687.67
623.24	1678.06
623.59	1668.31
623.93	1658.18
624.28	1648.70
624.62	1638.54
624.97	1628.23
625.32	1618.72
625.66	1610.01
626.01	1601.10
626.35	1591.74
626.70	1581.62
627.04	1571.36
627.39	1561.25
627.73	1551.85
628.08	1542.84
628.43	1533.18
628.77	1523.90
629.12	1514.99
629.46	1507.14
629.81	1498.73
630.15	1489.07
630.50	1479.12
630.84	1468.67
631.19	1458.69
631.53	1449.11
631.88	1438.89
632.22	1428.85
632.57	1419.40
632.91	1409.25
633.26	1399.36
633.60	1389.73
633.95	1380.40
634.29	1371.07
634.64	1361.75
634.98	1351.93
635.32	1342.69
635.67	1334.13
636.01	1324.93
636.36	1315.12
636.70	1305.54
637.05	1296.16
637.39	1287.19
637.73	1278.56
638.08	1271.03
638.42	1262.66
638.77	1253.85
639.11	1245.59
639.45	1237.74
639.80	1228.98
640.14	1220.22
640.49	1211.26
640.83	1202.41
641.17	1194.28
641.52	1185.92
641.86	1177.28
642.20	1169.34
642.55	1160.64
642.89	1151.76
643.23	1143.03
643.58	1134.94
643.92	1125.85
644.26	1117.16
644.61	1108.78
644.95	1100.00
645.29	1090.60
645.64	1081.42
645.98	1073.06
646.32	1065.10
646.66	1056.63
647.01	1048.36
647.35	1040.16
647.69	1031.77
648.04	1023.44
648.38	1014.49
648.72	1005.87
649.06	997.39
649.41	989.17
649.75	981.14
650.09	973.28
650.43	965.26
650.78	957.12
651.12	949.55
651.46	942.19
651.80	934.93
652.14	927.62
652.49	920.13
652.83	912.91
653.17	905.14
653.51	897.63
653.85	890.41
654.20	883.07
654.54	875.57
654.88	868.48
655.22	861.28
655.56	854.38
655.90	847.48
656.25	840.79
656.59	833.87
656.93	826.94
657.27	819.78
657.61	812.91
657.95	806.82
658.29	800.96
658.64	794.82
658.98	788.36
659.32	781.80
659.66	775.61
660.00	769.32
660.34	763.47
660.68	757.35
661.02	751.09
661.36	745.27
661.70	739.46
662.05	733.79
662.39	728.38
662.73	723.04
663.07	717.75
663.41	712.31
663.75	706.73
664.09	701.21
664.43	695.92
664.77	690.60
665.11	684.74
665.45	678.81
665.79	673.05
666.13	667.41
666.47	662.01
666.81	656.59
667.15	651.27
667.49	645.99
667.83	640.80
668.17	635.64
668.51	630.56
668.85	625.79
669.19	620.94
669.53	616.00
669.87	610.93
670.21	606.27
670.55	601.50
670.89	597.13
671.23	592.89
671.57	588.51
671.91	584.24
672.25	580.19
672.58	576.15
672.92	572.17
673.26	568.29
673.60	564.49
673.94	560.77
674.28	557.11
674.62	553.45
674.96	549.73
675.30	546.20
675.64	542.64
675.97	539.10
676.31	535.57
676.65	531.96
676.99	528.55
677.33	524.73
677.67	521.19
678.01	517.40
678.34	513.67
678.68	510.22
679.02	506.67
679.36	503.05
679.70	499.47
680.04	496.02
680.37	492.65
680.71	489.36
681.05	486.22
681.39	483.16
681.73	480.02
682.06	477.00
682.40	474.00
682.74	470.80
683.08	467.64
683.42	464.52
683.75	461.63
684.09	458.64
684.43	455.88
684.77	452.96
685.10	450.14
685.44	447.37
685.78	444.51
686.12	441.79
686.45	439.07
686.79	436.43
687.13	433.89
687.46	431.34
687.80	428.72
688.14	425.96
688.48	423.34
688.81	420.76
689.15	418.30
689.49	415.73
689.82	413.30
690.16	410.78
690.50	408.36
690.83	405.92
691.17	403.47
691.51	401.09
691.84	398.94
692.18	396.79
692.52	394.59
692.85	392.46
693.19	390.36
693.52	388.26
693.86	386.14
694.20	384.01
694.53	381.89
694.87	379.73
695.21	377.61
695.54	375.47
695.88	373.33
696.21	371.15
696.55	369.06
696.88	367.03
697.22	365.11
697.56	363.28
697.89	361.44
698.23	359.72
698.56	357.95
698.90	356.18
699.23	354.25
699.57	352.45
699.90	350.66
700.24	348.92
700.58	347.20
700.91	345.55
701.25	344.03
701.58	342.45
701.92	340.95
702.25	339.39
702.59	337.84
702.92	336.31
703.26	334.80
703.59	333.41
703.93	332.19
704.26	330.75
704.60	329.25
704.93	327.77
705.26	326.31
705.60	324.86
705.93	323.40
706.27	322.14
706.60	320.89
706.94	319.69
707.27	318.33
707.61	317.03
707.94	315.73
708.27	314.23
708.61	312.86
708.94	311.50
709.28	310.29
709.61	309.10
709.94	307.94
710.28	306.77
710.61	305.55
710.95	304.12
711.28	303.04
711.61	301.92
711.95	300.84
712.28	299.65
712.61	298.54
712.95	297.50
713.28	296.52
713.61	295.41
713.95	294.27
714.28	293.29
714.61	292.27
714.95	291.25
715.28	290.28
715.61	289.25
715.95	288.31
716.28	287.39
716.61	286.43
716.95	285.50
717.28	284.55
717.61	283.67
717.94	282.82
718.28	281.86
718.61	280.98
718.94	280.09
719.27	279.30
719.61	278.46
719.94	277.62
720.27	276.67
720.60	275.86
720.94	275.10
721.27	274.36
721.60	273.70
721.93	273.02
722.27	272.40
722.60	271.80
722.93	271.14
723.26	270.47
723.59	269.79
723.93	269.18
724.26	268.59
724.59	267.93
724.92	267.39
725.25	266.88
725.59	266.32
725.92	265.81
726.25	265.27
726.58	264.74
726.91	264.17
727.24	263.62
727.57	263.05
727.91	262.48
728.24	261.95
728.57	261.37
728.90	260.83
729.23	260.19
729.56	259.75
729.89	259.16
730.22	258.62
730.55	258.06
730.89	257.55
731.22	257.05
731.55	256.57
731.88	256.04
732.21	255.52
732.54	255.02
732.87	254.55
733.20	254.04
733.53	253.58
733.86	253.12
734.19	252.67
734.52	252.28
734.85	252.01
735.18	251.52
735.51	251.13
735.84	250.72
736.17	250.37
736.50	249.86
736.83	249.76
737.16	249.34
737.49	249.00
737.82	248.59
738.15	248.24
738.48	247.84
738.81	247.46
739.14	247.04
739.47	246.62
739.80	246.27
740.13	245.94
740.46	245.58
740.79	245.21
741.12	244.87
741.45	244.51
741.78	244.08
742.11	243.85
742.44	243.49
742.77	243.18
743.10	242.84
743.43	242.47
743.75	241.91
744.08	241.87
744.41	241.54
744.74	241.17
745.07	240.77
745.40	240.54
745.73	240.33
746.06	240.01
746.39	239.77
746.71	239.43
747.04	239.08
747.37	238.75
747.70	238.47
748.03	238.20
748.36	237.99
748.68	237.67
749.01	237.31
749.34	237.03
749.67	236.75
750.00	236.52
750.33	236.43
750.65	236.17
750.98	235.68
751.31	235.43
751.64	235.24
751.97	235.10
752.29	234.83
752.62	234.48
752.95	234.27
753.28	234.00
753.60	233.73
753.93	233.60
754.26	233.39
754.59	233.12
754.91	232.87
755.24	232.62
755.57	232.42
755.90	232.25
756.22	232.04
756.55	231.80
756.88	231.54
757.20	231.21
757.53	230.96
757.86	230.74
758.19	230.59
758.51	230.37
758.84	230.14
759.17	229.94
759.49	229.78
759.82	229.71
760.15	229.61
760.47	229.46
760.80	229.20
761.13	229.06
761.45	228.90
761.78	228.72
762.11	228.52
762.43	228.33
762.76	228.08
763.08	227.92
763.41	227.80
763.74	227.66
764.06	227.49
764.39	227.35
764.71	227.23
765.04	227.05
765.37	226.90
765.69	226.76
766.02	226.62
766.34	226.48
766.67	226.24
767.00	226.10
767.32	226.07
767.65	226.04
767.97	225.89
768.30	225.78
768.62	225.66
768.95	225.53
769.27	225.38
769.60	225.36
769.92	225.20
770.25	225.05
770.57	224.89
770.90	224.81
771.22	224.68
771.55	224.56
771.87	224.46
772.20	224.34
772.52	224.38
772.85	224.52
773.17	224.40
773.50	224.28
773.82	224.15
774.15	223.94
774.47	223.73
774.80	223.62
775.12	223.52
775.45	223.46
775.77	223.40
776.09	223.32
776.42	223.22
776.74	223.21
777.07	223.11
777.39	223.08
777.72	222.96
778.04	222.90
778.36	222.78
778.69	222.71
779.01	222.65
779.33	222.38
779.66	222.08
779.98	221.98
780.31	221.91
780.63	221.91
780.95	221.90
781.28	221.86
781.60	221.78
781.92	221.70
782.25	221.62
782.57	221.57
782.89	221.50
783.22	221.42
783.54	221.29
783.86	221.25
784.19	221.15
784.51	221.12
784.83	221.04
785.16	221.01
785.48	220.93
785.80	220.87
786.12	220.85
786.45	220.76
786.77	220.77
787.09	220.70
787.42	220.58
787.74	220.50
788.06	220.45
788.38	220.38
788.71	220.34
789.03	220.29
789.35	220.23
789.67	220.15
789.99	220.10
790.32	220.02
790.64	220.00
790.96	220.09
791.28	219.99
791.61	219.95
791.93	219.90
792.25	219.86
792.57	219.95
792.89	219.86
793.21	219.84
793.54	219.74
793.86	219.68
794.18	219.63
794.50	219.57
794.82	219.52
795.14	219.49
795.47	219.45
795.79	219.40
796.11	219.35
796.43	219.32
796.75	219.31
797.07	219.30
797.39	219.26
797.71	219.13
798.04	219.09
798.36	219.06
798.68	219.04
799.00	219.01
799.32	218.88
799.64	218.89
799.96	218.88
800.28	218.85
800.60	218.85
800.92	218.80
801.24	218.73
801.56	218.68
801.89	218.65
802.21	218.65
802.53	218.57
802.85	218.53
803.17	218.58
803.49	218.47
803.81	218.41
804.13	218.31
804.45	218.25
804.77	218.25
805.09	218.21
805.41	218.14
805.73	218.09
806.05	217.98
806.37	217.95
806.69	217.90
807.01	217.89
807.33	217.85
807.65	217.78
807.97	217.85
808.28	217.83
808.60	217.79
808.92	217.76
809.24	217.90
809.56	217.86
809.88	217.80
810.20	217.78
810.52	217.78
810.84	217.77
811.16	217.74
811.48	217.68
811.80	217.74
812.12	217.69
812.43	217.68
812.75	217.67
813.07	217.63
813.39	217.59
813.71	217.54
814.03	217.50
814.35	217.50
814.67	217.38
814.98	217.35
815.30	217.35
815.62	217.25
815.94	217.07
816.26	217.09
816.58	217.00
816.89	217.03
817.21	217.01
817.53	217.00
817.85	216.98
818.17	216.99
818.48	216.90
818.80	216.94
819.12	216.92
819.44	216.88
819.76	216.85
820.07	216.82
820.39	216.82
820.71	216.78
821.03	216.75
821.34	216.74
821.66	216.75
821.98	216.75
822.30	216.79
822.61	216.92
822.93	216.87
823.25	216.88
823.57	216.80
823.88	216.81
824.20	216.79
824.52	216.82
824.83	216.79
825.15	216.76
825.47	216.76
825.79	216.73
826.10	216.70
826.42	216.67
826.74	216.69
827.05	216.65
827.37	216.64
827.69	216.67
828.00	216.64
828.32	216.61
828.64	216.60
828.95	216.68
829.27	216.67
829.58	216.67
829.90	216.68
830.22	216.71
830.53	216.64
830.85	216.62
831.17	216.55
831.48	216.53
831.80	216.53
832.11	216.48
832.43	216.45
832.75	216.43
833.06	216.57
833.38	216.48
833.69	216.49
834.01	216.51
834.32	216.47
834.64	216.45
834.96	216.44
835.27	216.39
835.59	216.30
835.90	216.17
836.22	216.15
836.53	216.08
836.85	216.06
837.16	216.27
837.48	216.25
837.79	216.33
838.11	216.37
838.42	216.35
838.74	216.36
839.05	216.35
839.37	216.37
839.68	216.22
840.00	216.25
840.31	216.28
840.63	216.27
840.94	216.25
841.26	216.26
841.57	216.29
841.88	216.31
842.20	216.27
842.51	216.25
842.83	216.25
843.14	216.47
843.46	216.46
843.77	216.34
844.08	216.30
844.40	216.23
844.71	216.20
845.03	216.18
845.34	216.15
845.65	216.13
845.97	216.13
846.28	216.15
846.60	216.15
846.91	216.08
847.22	216.08
847.54	216.11
847.85	216.12
848.16	216.07
848.48	216.04
848.79	216.12
849.10	216.16
849.42	216.15
849.73	215.95
850.04	215.95
850.36	215.86
850.67	215.91
850.98	215.89
851.30	215.88
851.61	215.84
851.92	215.87
852.23	215.95
852.55	215.96
852.86	215.95
853.17	215.96
853.49	216.00
853.80	216.00
854.11	215.99
854.42	215.99
854.74	215.94
855.05	215.94
855.36	215.83
855.67	215.81
855.99	215.82
856.30	216.04
856.61	216.06
856.92	216.06
857.23	216.06
857.55	216.04
857.86	216.04
858.17	216.07
858.48	216.00
858.79	215.94
859.11	215.93
859.42	215.93
859.73	215.88
860.04	215.86
860.35	215.79
860.66	215.75
860.98	215.71
861.29	215.76
861.60	215.74
861.91	215.77
862.22	215.76
862.53	215.70
862.84	215.45
863.16	215.49
863.47	215.45
863.78	215.42
864.09	215.44
864.40	215.46
864.71	215.47
865.02	215.52
865.33	215.50
865.64	215.47
865.95	215.46
866.27	215.62
866.58	215.60
866.89	215.62
867.20	215.64
867.51	215.61
867.82	215.60
868.13	215.67
868.44	215.62
868.75	215.63
869.06	215.70
869.37	215.75
869.68	215.66
869.99	215.68
870.30	215.68
870.61	215.66
870.92	215.63
871.23	215.60
871.54	215.64
871.85	215.73
872.16	215.73
872.47	215.72
872.78	215.59
873.09	215.60
873.40	215.60
873.71	215.61
874.02	215.63
874.33	215.62
874.64	215.56
874.95	215.58
875.26	215.56
875.56	215.50
875.87	215.47
876.18	215.50
876.49	215.70
876.80	215.70
877.11	215.70
877.42	215.72
877.73	215.70
878.04	215.64
878.35	215.55
878.66	215.59
878.96	215.59
879.27	215.59
879.58	215.59
879.89	215.57
880.20	215.63
880.51	215.64
880.82	215.63
881.12	215.66
881.43	215.62
881.74	215.60
882.05	215.63
882.36	215.63
882.67	215.63
882.97	215.41
883.28	215.39
883.59	215.36
883.90	215.35
884.21	215.40
884.51	215.39
884.82	215.38
885.13	215.33
885.44	215.28
885.74	215.25
886.05	215.23
886.36	215.21
886.67	215.13
886.98	215.21
887.28	215.20
887.59	215.17
887.90	215.21
888.20	215.22
888.51	215.24
888.82	215.20
889.13	215.19
889.43	215.36
889.74	215.34
890.05	215.36
890.35	215.33
890.66	215.30
890.97	215.31
891.28	215.27
891.58	215.28
891.89	215.30
892.20	215.28
892.50	215.29
892.81	215.29
893.12	215.32
893.42	215.22
893.73	215.25
894.04	215.26
894.34	215.25
894.65	215.24
894.95	215.20
895.26	215.21
895.57	215.30
895.87	215.09
896.18	215.13
896.48	215.12
896.79	215.15
897.10	215.19
897.40	215.19
897.71	215.23
898.01	215.22
898.32	215.25
898.63	215.28
898.93	215.29
899.24	215.29
899.54	215.24
899.85	215.26
900.15	215.22
900.46	215.21
900.76	215.23
901.07	215.21
901.38	215.20
901.68	215.23
901.99	215.15
902.29	215.18
902.60	215.16
902.90	215.14
903.21	215.11
903.51	215.09
903.82	215.14
904.12	215.13
904.43	215.14
904.73	215.12
905.03	215.14
905.34	215.33
905.64	215.33
905.95	215.36
906.25	215.36
906.56	215.37
906.86	215.39
907.17	215.35
907.47	215.38
907.77	215.38
908.08	215.35
908.38	215.36
908.69	215.41
908.99	215.44
909.30	215.47
909.60	215.46
909.90	215.47
910.21	215.43
910.51	215.41
910.81	215.43
911.12	215.43
911.42	215.42
911.73	215.23
912.03	215.23
912.33	215.26
912.64	215.24
912.94	215.21
913.24	215.19
913.55	215.19
913.85	215.15
914.15	215.19
914.46	215.20
914.76	215.19
915.06	215.13
915.37	215.09
915.67	215.09
915.97	215.09
916.27	215.04
916.58	215.06
916.88	215.05
917.18	215.02
917.49	215.17
917.79	215.15
918.09	215.16
918.39	215.21
918.70	215.20
919.00	215.19
919.30	215.29
919.60	215.30
919.91	215.32
920.21	215.36
920.51	215.33
920.81	215.31
921.12	215.34
921.42	215.34
921.72	215.40
922.02	215.40
922.32	215.45
922.63	215.47
922.93	215.55
923.23	215.56
923.53	215.53
923.83	215.38
924.13	215.41
924.44	215.39
924.74	215.40
925.04	215.43
925.34	215.45
925.64	215.36
925.94	215.35
926.24	215.42
926.55	215.39
926.85	215.38
927.15	215.40
927.45	215.40
927.75	215.41
928.05	215.38
928.35	215.38
928.65	215.38
928.95	215.37
929.26	215.31
929.56	215.37
929.86	215.40
930.16	215.37
930.46	215.35
930.76	215.38
931.06	215.31
931.36	215.27
931.66	215.33
931.96	215.35
932.26	215.37
932.56	215.33
932.86	215.37
933.16	215.39
933.46	215.34
933.76	215.33
934.06	215.35
934.36	215.42
934.66	215.40
934.96	215.42
935.26	215.46
935.56	215.47
935.86	215.40
936.16	215.38
936.46	215.43
936.76	215.44
937.06	215.42
937.36	215.43
937.66	215.44
937.96	215.40
938.26	215.36
938.56	215.32
938.86	215.28
939.16	215.31
939.46	215.35
939.76	215.40
940.06	215.38
940.35	215.34
940.65	215.22
940.95	215.25
941.25	215.17
941.55	215.12
941.85	215.14
942.15	215.19
942.45	215.26
942.75	215.23
943.04	215.23
943.34	215.27
943.64	215.25
943.94	215.21
944.24	215.18
944.54	215.20
944.84	215.20
945.13	215.16
945.43	215.12
945.73	215.09
946.03	215.08
946.33	215.04
946.62	215.05
946.92	215.06
947.22	215.10
947.52	215.12
947.82	215.14
948.11	215.06
948.41	215.00
948.71	214.92
949.01	214.89
949.31	214.87
949.60	214.84
949.90	214.88
950.20	214.86
950.50	214.87
950.79	214.85
951.09	214.93
951.39	214.96
951.69	214.94
951.98	214.99
952.28	215.00
952.58	215.00
952.87	214.98
953.17	214.98
953.47	214.93
953.76	214.92
954.06	214.86
954.36	214.88
954.66	214.88
954.95	214.95
955.25	214.97
955.55	215.02
955.84	214.99
956.14	215.01
956.44	215.01
956.73	214.97
957.03	214.98
957.32	214.94
957.62	214.90
957.92	214.96
958.21	214.89
958.51	215.13
958.81	215.16
959.10	215.21
959.40	215.25
959.69	215.30
959.99	215.33
960.29	215.35
960.58	215.33
960.88	215.42
961.17	215.38
961.47	215.41
961.76	215.36
962.06	215.39
962.36	215.35
962.65	215.39
962.95	215.43
963.24	215.41
963.54	215.40
963.83	215.44
964.13	215.41
964.42	215.36
964.72	215.16
965.01	215.18
965.31	215.13
965.60	215.11
965.90	215.21
966.19	215.16
966.49	215.16
966.78	215.19
967.08	215.17
967.37	215.19
967.67	215.16
967.96	215.19
968.26	215.21
968.55	215.23
968.85	215.22
969.14	215.23
969.43	215.24
969.73	215.22
970.02	215.22
970.32	215.21
970.61	215.21
970.91	215.18
971.20	215.14
971.49	215.12
971.79	215.11
972.08	214.95
972.38	214.97
972.67	214.98
972.96	214.98
973.26	214.94
973.55	215.00
973.85	215.01
974.14	214.97
974.43	214.97
974.73	214.95
975.02	214.93
975.31	214.92
975.61	214.92
975.90	214.91
976.19	214.84
976.49	214.82
976.78	214.87
977.07	214.82
977.37	214.86
977.66	214.88
977.95	214.86
978.24	214.86
978.54	214.89
978.83	214.87
979.12	214.85
979.42	214.87
979.71	214.79
980.00	214.74
980.29	214.77
980.59	214.73
980.88	214.79
981.17	214.80
981.46	214.81
981.76	214.81
982.05	214.89
982.34	214.94
982.63	214.96
982.93	214.96
983.22	215.04
983.51	215.05
983.80	215.08
984.09	215.13
984.39	215.12
984.68	215.11
984.97	215.14
985.26	215.13
985.55	215.13
985.85	215.10
986.14	215.17
986.43	215.17
986.72	215.16
987.01	215.08
987.30	215.05
987.59	215.03
987.89	215.06
988.18	214.98
988.47	214.96
988.76	214.90
989.05	214.89
989.34	214.84
989.63	214.85
989.92	214.81
990.22	214.76
990.51	214.75
990.80	214.74
991.09	214.70
991.38	214.72
991.67	214.68
991.96	214.68
992.25	214.66
992.54	214.62
992.83	214.63
993.12	214.61
993.41	214.64
993.70	214.67
993.99	214.67
994.28	214.70
994.58	214.75
994.87	214.76
995.16	214.74
995.45	214.74
995.74	214.67
996.03	214.67
996.32	214.74
996.61	214.81
996.90	214.79
997.19	214.82
997.48	214.79
997.77	214.78
998.06	214.79
998.34	214.79
998.63	214.81
998.92	214.79
999.21	214.82
999.50	214.81
999.79	214.81
1000.08	214.83
1000.37	214.83
1000.66	214.78
1000.95	214.84
1001.24	214.88
1001.53	214.89
1001.82	214.90
1002.11	214.89
1002.40	214.88
1002.68	214.88
1002.97	215.01
1003.26	215.02
1003.55	215.03
1003.84	215.05
1004.13	215.12
1004.42	215.08
1004.71	215.08
1004.99	215.07
1005.28	215.15
1005.57	215.15
1005.86	215.08
1006.15	215.06
1006.44	215.04
1006.72	215.08
1007.01	215.05
1007.30	215.02
1007.59	215.02
1007.88	215.02
1008.17	215.04
1008.45	214.99
1008.74	214.91
1009.03	214.83
1009.32	214.77
1009.60	214.76
1009.89	214.75
1010.18	214.67
1010.47	214.70
1010.76	214.73
1011.04	214.71
1011.33	214.70
1011.62	214.74
1011.91	214.77
1012.19	214.77
1012.48	214.76
1012.77	214.75
1013.05	214.86
1013.34	214.86
1013.63	214.86
1013.92	214.88
1014.20	214.86
1014.49	214.90
1014.78	214.93
1015.06	214.86
1015.35	214.89
1015.64	214.94
1015.92	214.99
1016.21	214.98
1016.50	215.00
1016.78	215.01
1017.07	215.05
1017.36	215.02
1017.64	214.95
1017.93	214.98
1018.22	214.98
1018.50	214.98
1018.79	214.96
1019.08	214.84
1019.36	214.87
1019.65	214.86
1019.93	214.91
1020.22	214.95
1020.51	215.04
1020.79	215.03
1021.08	214.91
1021.36	214.31
1021.65	214.52
1021.94	214.66
1022.22	215.19
1022.51	214.81
1022.79	215.91
1023.08	215.25
1023.36	217.18
1023.65	214.51
>>>>>End Processed Spectral Data<<<<<
