SpectraSuite Data File
++++++++++++++++++++++++++++++++++++
Date: Tue Jan 29 16:48:46 EST 2013
User: group
Dark Spectrum Present: No
Reference Spectrum Present: No
Number of Sampled Component Spectra: 1
Spectrometers: USB2E7196
Integration Time (usec): 65000 (USB2E7196)
Spectra Averaged: 100 (USB2E7196)
Boxcar Smoothing: 10 (USB2E7196)
Correct for Electrical Dark: No (USB2E7196)
Strobe/Lamp Enabled: No (USB2E7196)
Correct for Detector Non-linearity: No (USB2E7196)
Correct for Stray Light: No (USB2E7196)
Number of Pixels in Processed Spectrum: 2048
>>>>>Begin Processed Spectral Data<<<<<
339.09	0.00
339.48	201.36
339.86	203.07
340.24	204.39
340.63	206.14
341.01	209.75
341.39	209.03
341.78	209.97
342.16	211.40
342.54	211.36
342.93	200.82
343.31	210.97
343.69	211.51
344.07	211.97
344.46	212.44
344.84	212.85
345.22	213.04
345.60	213.31
345.99	213.53
346.37	213.69
346.75	213.81
347.13	213.91
347.52	213.98
347.90	214.10
348.28	214.12
348.66	214.23
349.05	214.21
349.43	214.25
349.81	214.33
350.19	214.42
350.57	214.48
350.96	214.58
351.34	214.68
351.72	214.78
352.10	214.89
352.48	214.95
352.87	215.00
353.25	215.05
353.63	215.09
354.01	215.10
354.39	215.15
354.77	215.26
355.15	215.37
355.54	215.41
355.92	215.42
356.30	215.49
356.68	215.68
357.06	215.79
357.44	215.85
357.82	215.90
358.20	215.95
358.58	216.01
358.97	216.07
359.35	216.20
359.73	216.32
360.11	216.38
360.49	216.45
360.87	216.48
361.25	216.55
361.63	216.63
362.01	216.70
362.39	216.74
362.77	216.78
363.15	216.80
363.53	216.84
363.91	216.87
364.29	216.87
364.67	216.69
365.05	216.72
365.43	216.74
365.81	216.79
366.19	216.90
366.57	216.97
366.95	217.00
367.33	216.91
367.71	216.90
368.09	216.93
368.47	216.91
368.85	216.91
369.23	216.99
369.61	216.93
369.99	217.00
370.37	217.04
370.75	217.12
371.13	217.05
371.51	216.99
371.89	216.99
372.27	217.01
372.65	216.99
373.03	216.94
373.41	216.91
373.78	216.84
374.16	216.68
374.54	216.59
374.92	216.50
375.30	216.47
375.68	216.39
376.06	216.34
376.44	216.30
376.82	216.28
377.19	216.22
377.57	216.19
377.95	216.08
378.33	215.98
378.71	215.80
379.09	215.80
379.47	215.79
379.84	215.74
380.22	215.67
380.60	215.63
380.98	215.59
381.36	215.54
381.73	215.48
382.11	215.51
382.49	215.49
382.87	215.44
383.25	215.41
383.62	215.63
384.00	215.56
384.38	215.54
384.76	215.55
385.13	215.58
385.51	215.56
385.89	215.50
386.27	215.47
386.64	215.48
387.02	215.43
387.40	215.39
387.78	215.36
388.15	215.34
388.53	215.27
388.91	215.23
389.29	215.18
389.66	215.17
390.04	215.10
390.42	215.10
390.79	215.11
391.17	215.09
391.55	214.85
391.92	214.83
392.30	214.82
392.68	214.75
393.05	214.70
393.43	214.68
393.81	214.68
394.18	214.64
394.56	214.66
394.94	214.69
395.31	214.67
395.69	214.75
396.06	214.79
396.44	214.84
396.82	214.85
397.19	215.00
397.57	215.02
397.95	215.08
398.32	215.03
398.70	215.06
399.07	215.17
399.45	215.17
399.82	215.21
400.20	215.23
400.58	215.26
400.95	215.23
401.33	215.34
401.70	215.54
402.08	215.66
402.45	215.75
402.83	215.88
403.20	216.01
403.58	216.09
403.95	216.24
404.33	216.37
404.71	216.50
405.08	216.73
405.46	216.87
405.83	217.05
406.21	217.30
406.58	217.56
406.96	217.74
407.33	218.06
407.70	218.37
408.08	218.85
408.45	219.26
408.83	219.69
409.20	220.04
409.58	220.31
409.95	220.79
410.33	221.27
410.70	221.69
411.08	222.25
411.45	222.81
411.82	223.41
412.20	224.13
412.57	224.99
412.95	225.58
413.32	226.42
413.69	227.26
414.07	228.14
414.44	229.12
414.82	230.14
415.19	231.35
415.56	232.54
415.94	233.73
416.31	235.12
416.68	236.55
417.06	238.15
417.43	239.71
417.81	241.44
418.18	243.23
418.55	245.16
418.93	247.20
419.30	249.33
419.67	251.54
420.04	253.81
420.42	256.23
420.79	259.04
421.16	261.88
421.54	264.83
421.91	267.88
422.28	270.98
422.66	274.27
423.03	277.50
423.40	280.83
423.77	284.45
424.15	288.08
424.52	291.92
424.89	296.11
425.26	300.22
425.64	304.18
426.01	308.49
426.38	312.99
426.75	317.57
427.13	322.38
427.50	327.40
427.87	332.66
428.24	337.88
428.61	342.82
428.99	348.35
429.36	354.37
429.73	360.24
430.10	366.14
430.47	372.24
430.85	378.62
431.22	385.43
431.59	392.57
431.96	399.45
432.33	407.01
432.70	414.26
433.08	422.81
433.45	430.85
433.82	438.91
434.19	447.84
434.56	456.62
434.93	464.91
435.30	473.17
435.68	482.29
436.05	491.33
436.42	500.39
436.79	508.57
437.16	517.36
437.53	526.65
437.90	535.85
438.27	544.94
438.64	554.13
439.01	562.69
439.38	570.35
439.75	577.74
440.13	586.16
440.50	594.16
440.87	600.67
441.24	607.38
441.61	614.73
441.98	620.18
442.35	626.51
442.72	632.91
443.09	639.02
443.46	642.80
443.83	645.31
444.20	647.47
444.57	650.68
444.94	652.20
445.31	653.76
445.68	655.18
446.05	655.77
446.42	655.07
446.79	654.14
447.16	653.03
447.53	652.25
447.90	648.92
448.27	645.72
448.64	641.10
449.01	637.80
449.37	631.95
449.74	626.23
450.11	619.36
450.48	611.99
450.85	604.51
451.22	597.97
451.59	591.84
451.96	586.02
452.33	578.09
452.70	570.95
453.07	562.39
453.43	553.74
453.80	545.39
454.17	537.30
454.54	529.69
454.91	521.47
455.28	513.47
455.65	506.01
456.02	498.42
456.38	491.96
456.75	484.01
457.12	477.31
457.49	470.81
457.86	464.51
458.23	459.05
458.59	453.11
458.96	447.12
459.33	441.77
459.70	436.34
460.07	432.03
460.43	427.10
460.80	422.48
461.17	418.44
461.54	414.21
461.91	410.18
462.27	406.04
462.64	402.61
463.01	398.77
463.38	395.09
463.74	391.37
464.11	388.14
464.48	385.31
464.85	382.23
465.21	379.72
465.58	377.10
465.95	373.95
466.32	371.27
466.68	368.63
467.05	366.05
467.42	363.53
467.78	360.83
468.15	358.27
468.52	356.38
468.88	353.89
469.25	351.66
469.62	349.85
469.98	347.89
470.35	346.05
470.72	344.36
471.08	342.51
471.45	340.96
471.82	339.38
472.18	337.68
472.55	336.44
472.92	335.07
473.28	333.79
473.65	332.61
474.02	331.53
474.38	330.65
474.75	329.82
475.11	328.94
475.48	328.33
475.85	327.81
476.21	327.31
476.58	326.94
476.94	326.69
477.31	326.38
477.67	326.11
478.04	325.95
478.41	325.88
478.77	326.04
479.14	326.02
479.50	326.21
479.87	326.53
480.23	326.88
480.60	327.09
480.96	327.42
481.33	328.02
481.69	328.59
482.06	329.11
482.42	329.56
482.79	330.20
483.15	330.99
483.52	331.99
483.88	332.86
484.25	333.81
484.61	334.80
484.98	335.85
485.34	337.14
485.71	338.50
486.07	339.95
486.44	341.26
486.80	342.89
487.17	344.52
487.53	346.33
487.90	348.21
488.26	350.26
488.62	352.40
488.99	354.42
489.35	356.54
489.72	358.90
490.08	361.50
490.44	364.04
490.81	366.74
491.17	369.42
491.54	372.38
491.90	375.40
492.26	378.66
492.63	382.07
492.99	385.56
493.36	389.22
493.72	393.06
494.08	397.10
494.45	401.29
494.81	405.66
495.17	410.07
495.54	414.72
495.90	419.51
496.26	424.43
496.63	429.63
496.99	434.98
497.35	440.61
497.72	446.40
498.08	452.35
498.44	458.48
498.80	464.89
499.17	471.35
499.53	478.05
499.89	484.99
500.26	491.98
500.62	499.10
500.98	506.47
501.34	513.94
501.71	521.68
502.07	529.52
502.43	537.51
502.79	545.67
503.16	554.11
503.52	562.67
503.88	571.34
504.24	580.25
504.60	589.37
504.97	598.61
505.33	607.86
505.69	617.70
506.05	627.54
506.41	637.39
506.78	647.43
507.14	657.63
507.50	667.97
507.86	678.64
508.22	689.37
508.59	700.01
508.95	711.11
509.31	722.25
509.67	733.64
510.03	744.99
510.39	756.66
510.75	768.44
511.12	780.30
511.48	792.49
511.84	804.74
512.20	816.95
512.56	829.50
512.92	842.32
513.28	854.95
513.64	867.69
514.00	880.56
514.37	893.53
514.73	906.72
515.09	919.80
515.45	932.68
515.81	945.78
516.17	959.21
516.53	972.45
516.89	985.66
517.25	998.90
517.61	1012.48
517.97	1025.94
518.33	1039.18
518.69	1052.75
519.05	1066.43
519.41	1080.11
519.77	1094.09
520.13	1107.31
520.49	1120.46
520.85	1133.85
521.21	1147.22
521.57	1160.83
521.93	1173.88
522.29	1187.61
522.65	1201.25
523.01	1214.91
523.37	1228.07
523.73	1241.38
524.09	1254.63
524.45	1268.06
524.81	1281.57
525.17	1294.86
525.53	1308.06
525.89	1321.41
526.25	1334.61
526.61	1347.42
526.97	1360.58
527.33	1373.70
527.68	1387.30
528.04	1400.89
528.40	1414.04
528.76	1427.48
529.12	1440.51
529.48	1453.92
529.84	1466.22
530.20	1478.98
530.56	1491.59
530.91	1504.95
531.27	1517.88
531.63	1530.59
531.99	1543.31
532.35	1555.62
532.71	1568.26
533.07	1581.22
533.42	1593.51
533.78	1605.73
534.14	1617.87
534.50	1629.22
534.86	1640.70
535.21	1651.58
535.57	1663.13
535.93	1674.52
536.29	1685.56
536.65	1697.08
537.00	1708.24
537.36	1719.80
537.72	1730.83
538.08	1742.27
538.44	1753.33
538.79	1764.52
539.15	1775.61
539.51	1786.64
539.87	1798.08
540.22	1808.93
540.58	1819.98
540.94	1830.93
541.29	1841.28
541.65	1851.18
542.01	1861.77
542.37	1871.92
542.72	1882.09
543.08	1891.89
543.44	1902.44
543.79	1911.90
544.15	1921.47
544.51	1931.33
544.87	1941.30
545.22	1950.62
545.58	1959.63
545.94	1968.66
546.29	1977.18
546.65	1985.49
547.01	1993.65
547.36	2001.29
547.72	2009.16
548.07	2016.79
548.43	2024.63
548.79	2032.50
549.14	2040.75
549.50	2049.21
549.86	2057.29
550.21	2064.99
550.57	2072.79
550.92	2079.70
551.28	2087.30
551.64	2094.48
551.99	2102.21
552.35	2109.31
552.70	2116.35
553.06	2123.08
553.41	2129.32
553.77	2135.86
554.13	2142.30
554.48	2149.39
554.84	2156.58
555.19	2163.05
555.55	2169.57
555.90	2175.77
556.26	2182.64
556.61	2188.81
556.97	2193.73
557.32	2199.57
557.68	2205.95
558.03	2211.71
558.39	2217.06
558.74	2223.05
559.10	2228.57
559.45	2234.02
559.81	2239.49
560.16	2244.98
560.52	2250.84
560.87	2257.28
561.23	2263.10
561.58	2269.73
561.94	2274.95
562.29	2279.54
562.64	2285.44
563.00	2290.83
563.35	2296.38
563.71	2302.15
564.06	2307.91
564.42	2313.80
564.77	2318.61
565.12	2323.76
565.48	2328.75
565.83	2334.05
566.19	2339.16
566.54	2344.42
566.89	2348.93
567.25	2353.44
567.60	2359.05
567.96	2364.05
568.31	2368.46
568.66	2372.72
569.02	2376.51
569.37	2380.23
569.72	2384.58
570.08	2388.09
570.43	2391.17
570.78	2394.20
571.14	2396.36
571.49	2399.17
571.84	2402.49
572.20	2405.32
572.55	2408.26
572.90	2410.48
573.26	2413.14
573.61	2415.73
573.96	2417.79
574.31	2419.74
574.67	2421.60
575.02	2422.16
575.37	2423.52
575.72	2424.02
576.08	2425.22
576.43	2425.27
576.78	2425.38
577.13	2426.83
577.49	2427.80
577.84	2428.77
578.19	2429.87
578.54	2430.52
578.90	2430.86
579.25	2430.61
579.60	2430.29
579.95	2429.23
580.30	2429.11
580.66	2428.29
581.01	2426.38
581.36	2423.86
581.71	2422.36
582.06	2421.04
582.42	2419.96
582.77	2417.48
583.12	2415.68
583.47	2414.22
583.82	2413.51
584.17	2412.11
584.53	2409.77
584.88	2407.68
585.23	2405.58
585.58	2403.07
585.93	2400.97
586.28	2398.81
586.63	2396.18
586.98	2393.99
587.34	2391.81
587.69	2389.16
588.04	2386.78
588.39	2385.19
588.74	2382.59
589.09	2379.50
589.44	2376.04
589.79	2373.48
590.14	2371.38
590.49	2368.45
590.84	2364.42
591.19	2361.14
591.54	2357.75
591.89	2353.64
592.25	2350.18
592.60	2345.91
592.95	2341.67
593.30	2337.28
593.65	2332.81
594.00	2328.17
594.35	2324.97
594.70	2320.27
595.05	2315.78
595.40	2310.26
595.75	2304.27
596.10	2300.54
596.45	2295.72
596.80	2291.07
597.15	2285.73
597.50	2279.82
597.85	2274.70
598.19	2269.44
598.54	2263.42
598.89	2258.25
599.24	2253.49
599.59	2247.35
599.94	2241.43
600.29	2235.42
600.64	2229.45
600.99	2222.53
601.34	2217.04
601.69	2210.08
602.04	2203.76
602.39	2196.91
602.74	2190.90
603.08	2185.47
603.43	2178.92
603.78	2172.00
604.13	2165.03
604.48	2157.77
604.83	2151.46
605.18	2145.26
605.53	2138.40
605.87	2131.43
606.22	2124.61
606.57	2116.78
606.92	2108.75
607.27	2101.71
607.62	2095.20
607.96	2088.23
608.31	2081.77
608.66	2074.08
609.01	2066.41
609.36	2059.32
609.70	2051.76
610.05	2044.02
610.40	2035.71
610.75	2027.43
611.10	2019.88
611.44	2010.89
611.79	2002.09
612.14	1992.23
612.49	1981.49
612.83	1972.15
613.18	1962.92
613.53	1953.63
613.88	1944.06
614.22	1935.37
614.57	1925.58
614.92	1914.96
615.27	1904.66
615.61	1894.57
615.96	1884.84
616.31	1875.21
616.65	1865.74
617.00	1856.05
617.35	1846.49
617.70	1836.78
618.04	1826.82
618.39	1816.65
618.74	1807.11
619.08	1797.68
619.43	1789.09
619.78	1780.94
620.12	1772.31
620.47	1762.81
620.82	1752.51
621.16	1742.80
621.51	1732.91
621.85	1723.16
622.20	1712.90
622.55	1702.51
622.89	1692.71
623.24	1683.14
623.59	1673.36
623.93	1663.36
624.28	1653.49
624.62	1643.40
624.97	1633.23
625.32	1623.54
625.66	1614.70
626.01	1605.96
626.35	1596.60
626.70	1586.69
627.04	1576.92
627.39	1566.94
627.73	1557.68
628.08	1548.94
628.43	1539.38
628.77	1530.34
629.12	1521.59
629.46	1513.88
629.81	1505.54
630.15	1496.19
630.50	1486.53
630.84	1476.28
631.19	1466.48
631.53	1457.45
631.88	1447.38
632.22	1437.41
632.57	1427.96
632.91	1417.93
633.26	1408.23
633.60	1398.71
633.95	1389.41
634.29	1379.89
634.64	1370.72
634.98	1360.89
635.32	1351.62
635.67	1343.31
636.01	1334.11
636.36	1324.52
636.70	1314.98
637.05	1305.66
637.39	1296.83
637.73	1288.24
638.08	1280.71
638.42	1272.62
638.77	1263.87
639.11	1255.69
639.45	1247.98
639.80	1239.68
640.14	1231.03
640.49	1222.22
640.83	1213.54
641.17	1205.52
641.52	1197.44
641.86	1188.95
642.20	1181.24
642.55	1172.67
642.89	1164.00
643.23	1155.40
643.58	1147.29
643.92	1138.32
644.26	1129.73
644.61	1121.24
644.95	1112.45
645.29	1103.33
645.64	1094.22
645.98	1085.76
646.32	1078.07
646.66	1069.59
647.01	1061.38
647.35	1053.33
647.69	1045.11
648.04	1036.90
648.38	1028.09
648.72	1019.40
649.06	1010.96
649.41	1002.78
649.75	994.93
650.09	986.96
650.43	979.02
650.78	970.63
651.12	962.99
651.46	955.61
651.80	948.38
652.14	941.19
652.49	933.71
652.83	926.45
653.17	918.88
653.51	911.07
653.85	903.85
654.20	896.58
654.54	889.14
654.88	881.94
655.22	874.71
655.56	867.73
655.90	860.90
656.25	854.31
656.59	847.49
656.93	840.54
657.27	833.46
657.61	826.50
657.95	820.49
658.29	814.61
658.64	808.57
658.98	802.17
659.32	795.62
659.66	789.36
660.00	782.99
660.34	776.84
660.68	770.80
661.02	764.53
661.36	758.55
661.70	752.79
662.05	747.09
662.39	741.71
662.73	736.30
663.07	730.92
663.41	725.23
663.75	719.50
664.09	713.74
664.43	708.31
664.77	702.97
665.11	697.16
665.45	691.25
665.79	685.38
666.13	679.70
666.47	674.27
666.81	668.90
667.15	663.53
667.49	658.40
667.83	653.16
668.17	647.90
668.51	642.82
668.85	637.88
669.19	633.00
669.53	627.88
669.87	622.72
670.21	617.97
670.55	613.26
670.89	608.74
671.23	604.39
671.57	599.99
671.91	595.73
672.25	591.63
672.58	587.54
672.92	583.46
673.26	579.55
673.60	575.69
673.94	571.85
674.28	568.21
674.62	564.49
674.96	560.75
675.30	557.25
675.64	553.59
675.97	549.96
676.31	546.32
676.65	542.74
676.99	539.38
677.33	535.48
677.67	531.86
678.01	528.06
678.34	524.46
678.68	520.95
679.02	517.30
679.36	513.55
679.70	509.87
680.04	506.38
680.37	502.90
680.71	499.49
681.05	496.28
681.39	493.01
681.73	489.72
682.06	486.68
682.40	483.52
682.74	480.27
683.08	477.08
683.42	473.84
683.75	470.84
684.09	467.70
684.43	464.92
684.77	461.92
685.10	459.00
685.44	456.05
685.78	453.03
686.12	450.19
686.45	447.44
686.79	444.75
687.13	442.17
687.46	439.53
687.80	436.83
688.14	433.90
688.48	431.23
688.81	428.51
689.15	425.93
689.49	423.34
689.82	420.81
690.16	418.15
690.50	415.71
690.83	413.20
691.17	410.69
691.51	408.16
691.84	405.86
692.18	403.65
692.52	401.41
692.85	399.29
693.19	397.16
693.52	394.95
693.86	392.70
694.20	390.42
694.53	388.20
694.87	385.94
695.21	383.83
695.54	381.66
695.88	379.48
696.21	377.21
696.55	375.05
696.88	372.94
697.22	370.93
697.56	368.99
697.89	367.04
698.23	365.22
698.56	363.42
698.90	361.65
699.23	359.72
699.57	357.82
699.90	355.90
700.24	354.03
700.58	352.30
700.91	350.62
701.25	349.04
701.58	347.43
701.92	345.88
702.25	344.26
702.59	342.60
702.92	341.05
703.26	339.49
703.59	337.99
703.93	336.68
704.26	335.27
704.60	333.76
704.93	332.29
705.26	330.82
705.60	329.31
705.93	327.75
706.27	326.39
706.60	325.11
706.94	323.90
707.27	322.53
707.61	321.15
707.94	319.78
708.27	318.25
708.61	316.80
708.94	315.40
709.28	314.10
709.61	312.85
709.94	311.63
710.28	310.40
710.61	309.21
710.95	307.82
711.28	306.71
711.61	305.48
711.95	304.32
712.28	303.09
712.61	301.91
712.95	300.86
713.28	299.83
713.61	298.67
713.95	297.47
714.28	296.43
714.61	295.38
714.95	294.33
715.28	293.30
715.61	292.25
715.95	291.26
716.28	290.29
716.61	289.33
716.95	288.30
717.28	287.36
717.61	286.34
717.94	285.42
718.28	284.36
718.61	283.50
718.94	282.58
719.27	281.72
719.61	280.91
719.94	280.02
720.27	279.01
720.60	278.14
720.94	277.34
721.27	276.59
721.60	275.88
721.93	275.18
722.27	274.50
722.60	273.85
722.93	273.12
723.26	272.42
723.59	271.71
723.93	271.07
724.26	270.37
724.59	269.72
724.92	269.09
725.25	268.54
725.59	267.92
725.92	267.37
726.25	266.78
726.58	266.16
726.91	265.55
727.24	265.02
727.57	264.44
727.91	263.77
728.24	263.19
728.57	262.61
728.90	262.03
729.23	261.39
729.56	260.93
729.89	260.37
730.22	259.78
730.55	259.22
730.89	258.66
731.22	258.17
731.55	257.66
731.88	257.14
732.21	256.58
732.54	256.02
732.87	255.52
733.20	255.00
733.53	254.54
733.86	254.08
734.19	253.58
734.52	253.17
734.85	252.92
735.18	252.40
735.51	252.01
735.84	251.56
736.17	251.15
736.50	250.62
736.83	250.45
737.16	250.08
737.49	249.67
737.82	249.26
738.15	248.87
738.48	248.44
738.81	248.02
739.14	247.57
739.47	247.20
739.80	246.79
740.13	246.46
740.46	246.05
740.79	245.63
741.12	245.23
741.45	244.87
741.78	244.38
742.11	244.12
742.44	243.66
742.77	243.35
743.10	242.99
743.43	242.64
743.75	242.07
744.08	241.97
744.41	241.63
744.74	241.29
745.07	240.88
745.40	240.62
745.73	240.36
746.06	240.06
746.39	239.78
746.71	239.41
747.04	239.04
747.37	238.68
747.70	238.46
748.03	238.17
748.36	237.86
748.68	237.55
749.01	237.20
749.34	236.92
749.67	236.64
750.00	236.38
750.33	236.24
750.65	235.94
750.98	235.39
751.31	235.16
751.64	234.92
751.97	234.82
752.29	234.54
752.62	234.20
752.95	233.94
753.28	233.64
753.60	233.41
753.93	233.26
754.26	233.03
754.59	232.70
754.91	232.45
755.24	232.23
755.57	231.99
755.90	231.71
756.22	231.48
756.55	231.25
756.88	231.01
757.20	230.68
757.53	230.45
757.86	230.26
758.19	230.06
758.51	229.87
758.84	229.54
759.17	229.31
759.49	229.12
759.82	229.03
760.15	228.87
760.47	228.67
760.80	228.38
761.13	228.25
761.45	228.04
761.78	227.84
762.11	227.65
762.43	227.49
762.76	227.33
763.08	227.15
763.41	226.99
763.74	226.86
764.06	226.69
764.39	226.56
764.71	226.39
765.04	226.21
765.37	226.03
765.69	225.90
766.02	225.80
766.34	225.66
766.67	225.46
767.00	225.36
767.32	225.35
767.65	225.37
767.97	225.25
768.30	225.13
768.62	225.02
768.95	224.92
769.27	224.80
769.60	224.71
769.92	224.59
770.25	224.39
770.57	224.19
770.90	224.06
771.22	223.91
771.55	223.79
771.87	223.69
772.20	223.53
772.52	223.56
772.85	223.67
773.17	223.58
773.50	223.48
773.82	223.30
774.15	223.07
774.47	222.83
774.80	222.69
775.12	222.62
775.45	222.52
775.77	222.37
776.09	222.25
776.42	222.16
776.74	222.15
777.07	222.09
777.39	222.00
777.72	221.88
778.04	221.84
778.36	221.75
778.69	221.66
779.01	221.60
779.33	221.35
779.66	221.03
779.98	220.91
780.31	220.81
780.63	220.86
780.95	220.84
781.28	220.75
781.60	220.68
781.92	220.62
782.25	220.55
782.57	220.49
782.89	220.43
783.22	220.34
783.54	220.23
783.86	220.15
784.19	220.10
784.51	220.11
784.83	220.00
785.16	219.96
785.48	219.90
785.80	219.85
786.12	219.79
786.45	219.73
786.77	219.69
787.09	219.59
787.42	219.46
787.74	219.41
788.06	219.35
788.38	219.30
788.71	219.20
789.03	219.15
789.35	219.12
789.67	219.05
789.99	219.03
790.32	218.95
790.64	218.92
790.96	219.05
791.28	218.94
791.61	218.88
791.93	218.84
792.25	218.76
792.57	218.85
792.89	218.78
793.21	218.77
793.54	218.73
793.86	218.69
794.18	218.64
794.50	218.55
794.82	218.51
795.14	218.48
795.47	218.51
795.79	218.46
796.11	218.39
796.43	218.37
796.75	218.30
797.07	218.24
797.39	218.20
797.71	217.98
798.04	218.00
798.36	217.96
798.68	217.91
799.00	217.91
799.32	217.83
799.64	217.86
799.96	217.81
800.28	217.80
800.60	217.74
800.92	217.72
801.24	217.69
801.56	217.68
801.89	217.65
802.21	217.60
802.53	217.56
802.85	217.58
803.17	217.62
803.49	217.56
803.81	217.53
804.13	217.50
804.45	217.48
804.77	217.45
805.09	217.43
805.41	217.37
805.73	217.30
806.05	217.17
806.37	217.08
806.69	217.04
807.01	217.02
807.33	217.01
807.65	216.94
807.97	216.98
808.28	216.96
808.60	216.91
808.92	216.87
809.24	216.98
809.56	216.86
809.88	216.75
810.20	216.76
810.52	216.75
810.84	216.66
811.16	216.63
811.48	216.54
811.80	216.59
812.12	216.62
812.43	216.65
812.75	216.68
813.07	216.65
813.39	216.61
813.71	216.54
814.03	216.52
814.35	216.49
814.67	216.42
814.98	216.37
815.30	216.35
815.62	216.32
815.94	216.15
816.26	216.18
816.58	216.15
816.89	216.13
817.21	216.09
817.53	216.11
817.85	216.09
818.17	216.12
818.48	216.04
818.80	216.03
819.12	215.95
819.44	215.90
819.76	215.88
820.07	215.90
820.39	215.89
820.71	215.90
821.03	215.86
821.34	215.81
821.66	215.80
821.98	215.78
822.30	215.72
822.61	215.82
822.93	215.78
823.25	215.76
823.57	215.70
823.88	215.73
824.20	215.74
824.52	215.76
824.83	215.69
825.15	215.62
825.47	215.57
825.79	215.56
826.10	215.49
826.42	215.44
826.74	215.42
827.05	215.41
827.37	215.39
827.69	215.36
828.00	215.38
828.32	215.40
828.64	215.36
828.95	215.48
829.27	215.43
829.58	215.39
829.90	215.40
830.22	215.44
830.53	215.36
830.85	215.29
831.17	215.23
831.48	215.26
831.80	215.29
832.11	215.30
832.43	215.27
832.75	215.30
833.06	215.41
833.38	215.38
833.69	215.39
834.01	215.38
834.32	215.37
834.64	215.34
834.96	215.31
835.27	215.33
835.59	215.24
835.90	215.17
836.22	215.17
836.53	215.14
836.85	215.09
837.16	215.29
837.48	215.29
837.79	215.33
838.11	215.33
838.42	215.28
838.74	215.28
839.05	215.27
839.37	215.22
839.68	215.11
840.00	215.08
840.31	215.08
840.63	215.04
840.94	215.01
841.26	214.99
841.57	214.98
841.88	214.99
842.20	214.98
842.51	214.98
842.83	215.00
843.14	215.17
843.46	215.20
843.77	215.09
844.08	215.06
844.40	215.00
844.71	214.98
845.03	214.99
845.34	214.96
845.65	214.95
845.97	214.97
846.28	214.96
846.60	214.99
846.91	214.93
847.22	214.91
847.54	214.95
847.85	214.92
848.16	214.90
848.48	214.84
848.79	214.90
849.10	214.86
849.42	214.87
849.73	214.65
850.04	214.62
850.36	214.52
850.67	214.60
850.98	214.58
851.30	214.60
851.61	214.59
851.92	214.59
852.23	214.65
852.55	214.66
852.86	214.65
853.17	214.64
853.49	214.70
853.80	214.73
854.11	214.71
854.42	214.76
854.74	214.71
855.05	214.74
855.36	214.60
855.67	214.63
855.99	214.63
856.30	214.88
856.61	214.87
856.92	214.89
857.23	214.86
857.55	214.82
857.86	214.80
858.17	214.83
858.48	214.79
858.79	214.72
859.11	214.72
859.42	214.71
859.73	214.66
860.04	214.62
860.35	214.57
860.66	214.55
860.98	214.55
861.29	214.59
861.60	214.56
861.91	214.61
862.22	214.59
862.53	214.54
862.84	214.31
863.16	214.34
863.47	214.28
863.78	214.26
864.09	214.27
864.40	214.31
864.71	214.29
865.02	214.31
865.33	214.29
865.64	214.23
865.95	214.24
866.27	214.41
866.58	214.39
866.89	214.45
867.20	214.41
867.51	214.37
867.82	214.34
868.13	214.41
868.44	214.39
868.75	214.38
869.06	214.39
869.37	214.38
869.68	214.37
869.99	214.41
870.30	214.44
870.61	214.48
870.92	214.40
871.23	214.40
871.54	214.44
871.85	214.49
872.16	214.52
872.47	214.51
872.78	214.39
873.09	214.43
873.40	214.39
873.71	214.44
874.02	214.43
874.33	214.42
874.64	214.36
874.95	214.40
875.26	214.36
875.56	214.33
875.87	214.31
876.18	214.29
876.49	214.48
876.80	214.42
877.11	214.37
877.42	214.41
877.73	214.37
878.04	214.31
878.35	214.31
878.66	214.31
878.96	214.29
879.27	214.26
879.58	214.24
879.89	214.23
880.20	214.29
880.51	214.30
880.82	214.30
881.12	214.31
881.43	214.27
881.74	214.27
882.05	214.30
882.36	214.29
882.67	214.30
882.97	214.09
883.28	214.08
883.59	214.06
883.90	214.03
884.21	214.07
884.51	214.10
884.82	214.05
885.13	214.08
885.44	214.06
885.74	214.06
886.05	214.04
886.36	214.03
886.67	213.94
886.98	214.03
887.28	214.06
887.59	214.06
887.90	214.06
888.20	214.05
888.51	214.07
888.82	214.04
889.13	214.08
889.43	214.25
889.74	214.25
890.05	214.26
890.35	214.27
890.66	214.23
890.97	214.19
891.28	214.18
891.58	214.16
891.89	214.17
892.20	214.14
892.50	214.11
892.81	214.09
893.12	214.11
893.42	214.03
893.73	214.01
894.04	214.02
894.34	214.02
894.65	214.01
894.95	213.98
895.26	214.02
895.57	214.07
895.87	213.89
896.18	213.95
896.48	213.97
896.79	213.97
897.10	214.00
897.40	214.03
897.71	214.06
898.01	214.05
898.32	214.08
898.63	214.08
898.93	214.10
899.24	214.11
899.54	214.08
899.85	214.05
900.15	214.04
900.46	214.02
900.76	214.05
901.07	214.07
901.38	214.06
901.68	214.07
901.99	213.98
902.29	213.98
902.60	213.96
902.90	213.96
903.21	213.94
903.51	213.94
903.82	213.97
904.12	214.01
904.43	214.01
904.73	214.01
905.03	214.03
905.34	214.20
905.64	214.20
905.95	214.24
906.25	214.24
906.56	214.25
906.86	214.28
907.17	214.25
907.47	214.26
907.77	214.27
908.08	214.23
908.38	214.25
908.69	214.26
908.99	214.25
909.30	214.23
909.60	214.25
909.90	214.27
910.21	214.15
910.51	214.08
910.81	214.12
911.12	214.12
911.42	214.13
911.73	213.93
912.03	213.96
912.33	213.97
912.64	213.97
912.94	213.95
913.24	213.93
913.55	213.91
913.85	213.89
914.15	213.89
914.46	213.93
914.76	213.89
915.06	213.87
915.37	213.84
915.67	213.88
915.97	213.89
916.27	213.80
916.58	213.87
916.88	213.88
917.18	213.83
917.49	213.95
917.79	213.95
918.09	213.99
918.39	214.03
918.70	214.00
919.00	214.00
919.30	214.11
919.60	214.04
919.91	214.05
920.21	214.06
920.51	214.01
920.81	214.00
921.12	214.02
921.42	214.02
921.72	214.03
922.02	214.03
922.32	214.06
922.63	214.10
922.93	214.19
923.23	214.20
923.53	214.17
923.83	214.05
924.13	214.04
924.44	214.02
924.74	214.04
925.04	214.09
925.34	214.11
925.64	214.00
925.94	214.03
926.24	214.12
926.55	214.10
926.85	214.14
927.15	214.16
927.45	214.18
927.75	214.15
928.05	214.16
928.35	214.14
928.65	214.16
928.95	214.17
929.26	214.08
929.56	214.14
929.86	214.18
930.16	214.17
930.46	214.18
930.76	214.22
931.06	214.10
931.36	214.05
931.66	214.07
931.96	214.12
932.26	214.12
932.56	214.03
932.86	214.04
933.16	214.03
933.46	213.98
933.76	213.92
934.06	214.01
934.36	214.06
934.66	214.06
934.96	214.04
935.26	214.04
935.56	214.08
935.86	214.04
936.16	214.05
936.46	214.03
936.76	213.98
937.06	213.92
937.36	213.93
937.66	213.92
937.96	213.88
938.26	213.81
938.56	213.79
938.86	213.79
939.16	213.83
939.46	213.86
939.76	213.89
940.06	213.91
940.35	213.82
940.65	213.73
940.95	213.73
941.25	213.67
941.55	213.63
941.85	213.63
942.15	213.60
942.45	213.64
942.75	213.61
943.04	213.64
943.34	213.69
943.64	213.68
943.94	213.65
944.24	213.68
944.54	213.71
944.84	213.72
945.13	213.68
945.43	213.64
945.73	213.63
946.03	213.57
946.33	213.59
946.62	213.59
946.92	213.59
947.22	213.60
947.52	213.63
947.82	213.66
948.11	213.62
948.41	213.62
948.71	213.54
949.01	213.58
949.31	213.59
949.60	213.58
949.90	213.60
950.20	213.63
950.50	213.60
950.79	213.61
951.09	213.67
951.39	213.67
951.69	213.64
951.98	213.70
952.28	213.73
952.58	213.68
952.87	213.69
953.17	213.75
953.47	213.70
953.76	213.68
954.06	213.64
954.36	213.58
954.66	213.57
954.95	213.64
955.25	213.62
955.55	213.64
955.84	213.63
956.14	213.63
956.44	213.61
956.73	213.63
957.03	213.64
957.32	213.65
957.62	213.67
957.92	213.75
958.21	213.71
958.51	213.95
958.81	214.00
959.10	214.03
959.40	214.05
959.69	214.07
959.99	214.10
960.29	214.15
960.58	214.18
960.88	214.25
961.17	214.21
961.47	214.23
961.76	214.20
962.06	214.21
962.36	214.19
962.65	214.22
962.95	214.21
963.24	214.17
963.54	214.13
963.83	214.12
964.13	214.07
964.42	214.00
964.72	213.85
965.01	213.86
965.31	213.83
965.60	213.81
965.90	213.94
966.19	213.90
966.49	213.88
966.78	213.89
967.08	213.87
967.37	213.86
967.67	213.82
967.96	213.87
968.26	213.89
968.55	213.91
968.85	213.88
969.14	213.89
969.43	213.91
969.73	213.91
970.02	213.88
970.32	213.86
970.61	213.87
970.91	213.76
971.20	213.73
971.49	213.68
971.79	213.66
972.08	213.55
972.38	213.55
972.67	213.57
972.96	213.60
973.26	213.56
973.55	213.64
973.85	213.64
974.14	213.56
974.43	213.57
974.73	213.54
975.02	213.51
975.31	213.50
975.61	213.47
975.90	213.43
976.19	213.45
976.49	213.47
976.78	213.49
977.07	213.51
977.37	213.51
977.66	213.56
977.95	213.55
978.24	213.54
978.54	213.59
978.83	213.55
979.12	213.52
979.42	213.51
979.71	213.48
980.00	213.44
980.29	213.49
980.59	213.46
980.88	213.55
981.17	213.55
981.46	213.55
981.76	213.56
982.05	213.63
982.34	213.65
982.63	213.68
982.93	213.70
983.22	213.77
983.51	213.76
983.80	213.79
984.09	213.78
984.39	213.73
984.68	213.70
984.97	213.72
985.26	213.71
985.55	213.75
985.85	213.69
986.14	213.79
986.43	213.81
986.72	213.78
987.01	213.67
987.30	213.70
987.59	213.71
987.89	213.71
988.18	213.67
988.47	213.68
988.76	213.64
989.05	213.60
989.34	213.55
989.63	213.62
989.92	213.57
990.22	213.60
990.51	213.64
990.80	213.61
991.09	213.64
991.38	213.64
991.67	213.61
991.96	213.61
992.25	213.58
992.54	213.54
992.83	213.56
993.12	213.57
993.41	213.59
993.70	213.64
993.99	213.71
994.28	213.73
994.58	213.75
994.87	213.73
995.16	213.74
995.45	213.70
995.74	213.66
996.03	213.68
996.32	213.72
996.61	213.77
996.90	213.81
997.19	213.79
997.48	213.82
997.77	213.81
998.06	213.85
998.34	213.82
998.63	213.80
998.92	213.79
999.21	213.83
999.50	213.81
999.79	213.77
1000.08	213.72
1000.37	213.73
1000.66	213.69
1000.95	213.75
1001.24	213.78
1001.53	213.85
1001.82	213.84
1002.11	213.79
1002.40	213.78
1002.68	213.81
1002.97	213.96
1003.26	213.91
1003.55	213.90
1003.84	213.91
1004.13	213.95
1004.42	213.93
1004.71	213.95
1004.99	213.92
1005.28	213.96
1005.57	213.93
1005.86	213.88
1006.15	213.86
1006.44	213.82
1006.72	213.85
1007.01	213.78
1007.30	213.75
1007.59	213.70
1007.88	213.66
1008.17	213.70
1008.45	213.69
1008.74	213.61
1009.03	213.48
1009.32	213.50
1009.60	213.48
1009.89	213.46
1010.18	213.40
1010.47	213.39
1010.76	213.40
1011.04	213.42
1011.33	213.41
1011.62	213.46
1011.91	213.45
1012.19	213.47
1012.48	213.49
1012.77	213.48
1013.05	213.61
1013.34	213.60
1013.63	213.60
1013.92	213.63
1014.20	213.62
1014.49	213.61
1014.78	213.62
1015.06	213.56
1015.35	213.55
1015.64	213.59
1015.92	213.63
1016.21	213.62
1016.50	213.66
1016.78	213.67
1017.07	213.71
1017.36	213.67
1017.64	213.63
1017.93	213.66
1018.22	213.66
1018.50	213.61
1018.79	213.61
1019.08	213.51
1019.36	213.54
1019.65	213.52
1019.93	213.59
1020.22	213.58
1020.51	213.66
1020.79	213.62
1021.08	213.62
1021.36	212.89
1021.65	213.38
1021.94	213.73
1022.22	213.70
1022.51	213.04
1022.79	214.73
1023.08	213.35
1023.36	215.85
1023.65	212.77
>>>>>End Processed Spectral Data<<<<<
