SpectraSuite Data File
++++++++++++++++++++++++++++++++++++
Date: Tue Jan 29 16:49:46 EST 2013
User: group
Dark Spectrum Present: No
Reference Spectrum Present: No
Number of Sampled Component Spectra: 1
Spectrometers: USB2E7196
Integration Time (usec): 65000 (USB2E7196)
Spectra Averaged: 100 (USB2E7196)
Boxcar Smoothing: 10 (USB2E7196)
Correct for Electrical Dark: No (USB2E7196)
Strobe/Lamp Enabled: No (USB2E7196)
Correct for Detector Non-linearity: No (USB2E7196)
Correct for Stray Light: No (USB2E7196)
Number of Pixels in Processed Spectrum: 2048
>>>>>Begin Processed Spectral Data<<<<<
339.09	0.00
339.48	201.52
339.86	203.14
340.24	204.07
340.63	205.99
341.01	209.98
341.39	208.66
341.78	210.21
342.16	211.60
342.54	211.10
342.93	200.93
343.31	211.06
343.69	211.61
344.07	212.09
344.46	212.56
344.84	212.96
345.22	213.15
345.60	213.41
345.99	213.60
346.37	213.73
346.75	213.88
347.13	213.99
347.52	214.07
347.90	214.20
348.28	214.24
348.66	214.34
349.05	214.34
349.43	214.41
349.81	214.47
350.19	214.51
350.57	214.60
350.96	214.71
351.34	214.85
351.72	214.97
352.10	215.07
352.48	215.13
352.87	215.18
353.25	215.27
353.63	215.34
354.01	215.42
354.39	215.46
354.77	215.52
355.15	215.64
355.54	215.66
355.92	215.64
356.30	215.72
356.68	215.88
357.06	215.95
357.44	215.97
357.82	216.00
358.20	216.08
358.58	216.14
358.97	216.19
359.35	216.30
359.73	216.37
360.11	216.43
360.49	216.50
360.87	216.55
361.25	216.61
361.63	216.70
362.01	216.72
362.39	216.75
362.77	216.84
363.15	216.85
363.53	216.88
363.91	216.96
364.29	216.96
364.67	216.79
365.05	216.82
365.43	216.87
365.81	216.92
366.19	217.02
366.57	217.08
366.95	217.08
367.33	216.99
367.71	217.02
368.09	217.07
368.47	217.07
368.85	217.06
369.23	217.10
369.61	217.02
369.99	217.10
370.37	217.15
370.75	217.20
371.13	217.10
371.51	217.06
371.89	217.05
372.27	217.04
372.65	217.02
373.03	217.00
373.41	216.95
373.78	216.91
374.16	216.74
374.54	216.62
374.92	216.57
375.30	216.51
375.68	216.40
376.06	216.32
376.44	216.27
376.82	216.23
377.19	216.17
377.57	216.09
377.95	216.00
378.33	215.95
378.71	215.78
379.09	215.80
379.47	215.79
379.84	215.69
380.22	215.62
380.60	215.54
380.98	215.50
381.36	215.42
381.73	215.33
382.11	215.37
382.49	215.36
382.87	215.30
383.25	215.24
383.62	215.46
384.00	215.37
384.38	215.36
384.76	215.35
385.13	215.37
385.51	215.38
385.89	215.31
386.27	215.28
386.64	215.31
387.02	215.27
387.40	215.24
387.78	215.26
388.15	215.22
388.53	215.18
388.91	215.13
389.29	215.10
389.66	215.12
390.04	215.04
390.42	215.02
390.79	215.02
391.17	215.06
391.55	214.81
391.92	214.85
392.30	214.85
392.68	214.81
393.05	214.79
393.43	214.79
393.81	214.79
394.18	214.73
394.56	214.73
394.94	214.76
395.31	214.74
395.69	214.81
396.06	214.85
396.44	214.92
396.82	214.95
397.19	215.08
397.57	215.10
397.95	215.20
398.32	215.16
398.70	215.25
399.07	215.29
399.45	215.33
399.82	215.34
400.20	215.36
400.58	215.41
400.95	215.39
401.33	215.47
401.70	215.69
402.08	215.80
402.45	215.88
402.83	216.01
403.20	216.10
403.58	216.16
403.95	216.30
404.33	216.43
404.71	216.60
405.08	216.88
405.46	217.05
405.83	217.23
406.21	217.47
406.58	217.64
406.96	217.88
407.33	218.17
407.70	218.50
408.08	218.97
408.45	219.34
408.83	219.76
409.20	220.10
409.58	220.37
409.95	220.85
410.33	221.31
410.70	221.76
411.08	222.34
411.45	222.92
411.82	223.50
412.20	224.21
412.57	225.02
412.95	225.59
413.32	226.42
413.69	227.29
414.07	228.20
414.44	229.23
414.82	230.26
415.19	231.41
415.56	232.61
415.94	233.82
416.31	235.23
416.68	236.64
417.06	238.27
417.43	239.81
417.81	241.53
418.18	243.34
418.55	245.29
418.93	247.32
419.30	249.45
419.67	251.68
420.04	254.00
420.42	256.35
420.79	259.17
421.16	261.96
421.54	264.83
421.91	267.84
422.28	270.99
422.66	274.30
423.03	277.57
423.40	280.93
423.77	284.51
424.15	288.21
424.52	292.07
424.89	296.26
425.26	300.41
425.64	304.36
426.01	308.64
426.38	313.10
426.75	317.69
427.13	322.43
427.50	327.40
427.87	332.63
428.24	337.89
428.61	342.87
428.99	348.44
429.36	354.48
429.73	360.39
430.10	366.24
430.47	372.32
430.85	378.63
431.22	385.38
431.59	392.57
431.96	399.43
432.33	406.94
432.70	414.21
433.08	422.75
433.45	430.86
433.82	438.98
434.19	447.89
434.56	456.65
434.93	465.03
435.30	473.39
435.68	482.57
436.05	491.57
436.42	500.60
436.79	508.78
437.16	517.61
437.53	526.98
437.90	536.15
438.27	545.15
438.64	554.48
439.01	563.05
439.38	570.65
439.75	577.99
440.13	586.49
440.50	594.55
440.87	600.99
441.24	607.65
441.61	614.93
441.98	620.36
442.35	626.69
442.72	633.13
443.09	639.19
443.46	642.94
443.83	645.54
444.20	647.77
444.57	650.96
444.94	652.47
445.31	653.87
445.68	655.30
446.05	655.98
446.42	655.20
446.79	654.35
447.16	653.30
447.53	652.56
447.90	649.14
448.27	645.81
448.64	641.16
449.01	637.82
449.37	631.96
449.74	626.29
450.11	619.40
450.48	611.94
450.85	604.47
451.22	598.01
451.59	591.81
451.96	585.93
452.33	578.07
452.70	570.93
453.07	562.42
453.43	553.80
453.80	545.46
454.17	537.41
454.54	529.71
454.91	521.46
455.28	513.44
455.65	506.07
456.02	498.51
456.38	492.16
456.75	484.25
457.12	477.59
457.49	471.01
457.86	464.79
458.23	459.30
458.59	453.29
458.96	447.14
459.33	441.79
459.70	436.34
460.07	432.00
460.43	427.05
460.80	422.43
461.17	418.35
461.54	414.16
461.91	410.06
462.27	405.95
462.64	402.48
463.01	398.68
463.38	394.92
463.74	391.19
464.11	387.99
464.48	385.09
464.85	382.06
465.21	379.64
465.58	376.97
465.95	373.85
466.32	371.30
466.68	368.72
467.05	366.11
467.42	363.57
467.78	360.86
468.15	358.29
468.52	356.38
468.88	353.86
469.25	351.60
469.62	349.81
469.98	347.84
470.35	345.98
470.72	344.28
471.08	342.51
471.45	341.00
471.82	339.39
472.18	337.71
472.55	336.48
472.92	335.08
473.28	333.86
473.65	332.68
474.02	331.52
474.38	330.64
474.75	329.90
475.11	329.05
475.48	328.44
475.85	327.97
476.21	327.47
476.58	327.13
476.94	326.86
477.31	326.53
477.67	326.23
478.04	326.10
478.41	326.05
478.77	326.20
479.14	326.16
479.50	326.27
479.87	326.57
480.23	326.90
480.60	327.15
480.96	327.42
481.33	328.05
481.69	328.60
482.06	329.08
482.42	329.54
482.79	330.14
483.15	330.96
483.52	331.88
483.88	332.73
484.25	333.69
484.61	334.65
484.98	335.67
485.34	337.00
485.71	338.35
486.07	339.76
486.44	341.07
486.80	342.66
487.17	344.33
487.53	346.12
487.90	347.96
488.26	349.96
488.62	352.12
488.99	354.13
489.35	356.30
489.72	358.75
490.08	361.28
490.44	363.81
490.81	366.49
491.17	369.25
491.54	372.27
491.90	375.27
492.26	378.58
492.63	382.00
492.99	385.48
493.36	389.19
493.72	393.07
494.08	397.08
494.45	401.28
494.81	405.66
495.17	410.12
495.54	414.80
495.90	419.56
496.26	424.44
496.63	429.62
496.99	435.03
497.35	440.52
497.72	446.26
498.08	452.23
498.44	458.32
498.80	464.73
499.17	471.16
499.53	477.90
499.89	484.76
500.26	491.75
500.62	498.88
500.98	506.19
501.34	513.63
501.71	521.36
502.07	529.14
502.43	537.10
502.79	545.34
503.16	553.71
503.52	562.38
503.88	571.12
504.24	580.11
504.60	589.15
504.97	598.36
505.33	607.66
505.69	617.44
506.05	627.31
506.41	637.12
506.78	647.13
507.14	657.33
507.50	667.80
507.86	678.49
508.22	689.20
508.59	699.89
508.95	711.01
509.31	722.15
509.67	733.68
510.03	745.04
510.39	756.58
510.75	768.39
511.12	780.24
511.48	792.21
511.84	804.44
512.20	816.74
512.56	829.34
512.92	842.09
513.28	854.79
513.64	867.50
514.00	880.34
514.37	893.32
514.73	906.41
515.09	919.43
515.45	932.25
515.81	945.40
516.17	958.82
516.53	971.98
516.89	985.18
517.25	998.32
517.61	1011.91
517.97	1025.40
518.33	1038.60
518.69	1052.24
519.05	1066.00
519.41	1079.79
519.77	1093.71
520.13	1107.03
520.49	1120.27
520.85	1133.63
521.21	1146.96
521.57	1160.57
521.93	1173.62
522.29	1187.35
522.65	1200.83
523.01	1214.54
523.37	1227.63
523.73	1240.82
524.09	1254.08
524.45	1267.44
524.81	1280.96
525.17	1294.29
525.53	1307.52
525.89	1320.86
526.25	1334.02
526.61	1346.97
526.97	1360.08
527.33	1373.09
527.68	1386.72
528.04	1400.23
528.40	1413.44
528.76	1426.86
529.12	1439.78
529.48	1453.19
529.84	1465.59
530.20	1478.53
530.56	1491.16
530.91	1504.50
531.27	1517.46
531.63	1530.25
531.99	1543.12
532.35	1555.28
532.71	1567.80
533.07	1580.76
533.42	1593.11
533.78	1605.24
534.14	1617.33
534.50	1628.49
534.86	1640.17
535.21	1651.00
535.57	1662.56
535.93	1673.90
536.29	1685.09
536.65	1696.79
537.00	1707.89
537.36	1719.26
537.72	1730.35
538.08	1741.91
538.44	1753.00
538.79	1764.36
539.15	1775.38
539.51	1786.37
539.87	1797.89
540.22	1808.74
540.58	1819.74
540.94	1830.70
541.29	1841.11
541.65	1850.99
542.01	1861.65
542.37	1871.78
542.72	1882.06
543.08	1891.88
543.44	1902.54
543.79	1911.78
544.15	1921.33
544.51	1931.23
544.87	1941.19
545.22	1950.54
545.58	1959.44
545.94	1968.45
546.29	1976.82
546.65	1985.14
547.01	1993.25
547.36	2001.11
547.72	2008.94
548.07	2016.60
548.43	2024.36
548.79	2032.26
549.14	2040.48
549.50	2049.04
549.86	2056.98
550.21	2064.51
550.57	2072.29
550.92	2079.04
551.28	2086.66
551.64	2093.82
551.99	2101.41
552.35	2108.78
552.70	2115.61
553.06	2122.29
553.41	2128.41
553.77	2135.05
554.13	2141.60
554.48	2148.72
554.84	2155.83
555.19	2162.34
555.55	2168.77
555.90	2175.11
556.26	2181.91
556.61	2188.03
556.97	2192.83
557.32	2198.66
557.68	2204.96
558.03	2210.73
558.39	2216.15
558.74	2222.25
559.10	2227.80
559.45	2233.33
559.81	2238.72
560.16	2244.18
560.52	2249.99
560.87	2256.51
561.23	2262.27
561.58	2268.78
561.94	2273.90
562.29	2278.40
562.64	2284.47
563.00	2290.10
563.35	2295.72
563.71	2301.39
564.06	2307.10
564.42	2312.91
564.77	2317.89
565.12	2323.13
565.48	2328.22
565.83	2333.57
566.19	2338.70
566.54	2343.81
566.89	2348.25
567.25	2352.72
567.60	2358.33
567.96	2363.40
568.31	2367.67
568.66	2371.94
569.02	2375.72
569.37	2379.41
569.72	2383.85
570.08	2387.28
570.43	2390.15
570.78	2392.98
571.14	2395.37
571.49	2398.34
571.84	2401.79
572.20	2404.62
572.55	2407.43
572.90	2409.63
573.26	2412.26
573.61	2414.72
573.96	2417.01
574.31	2419.09
574.67	2420.94
575.02	2421.59
575.37	2422.89
575.72	2423.60
576.08	2424.99
576.43	2424.92
576.78	2425.24
577.13	2426.55
577.49	2427.55
577.84	2428.44
578.19	2429.51
578.54	2429.90
578.90	2430.38
579.25	2430.06
579.60	2429.70
579.95	2428.88
580.30	2428.68
580.66	2427.78
581.01	2425.98
581.36	2423.30
581.71	2421.69
582.06	2420.23
582.42	2419.16
582.77	2416.65
583.12	2414.79
583.47	2413.07
583.82	2412.38
584.17	2410.87
584.53	2408.63
584.88	2406.34
585.23	2404.38
585.58	2402.05
585.93	2399.83
586.28	2397.45
586.63	2394.81
586.98	2392.40
587.34	2390.15
587.69	2387.53
588.04	2385.43
588.39	2383.67
588.74	2381.04
589.09	2378.13
589.44	2374.83
589.79	2372.15
590.14	2370.10
590.49	2367.05
590.84	2363.12
591.19	2359.87
591.54	2356.63
591.89	2352.47
592.25	2349.09
592.60	2344.70
592.95	2340.45
593.30	2336.07
593.65	2331.64
594.00	2327.07
594.35	2323.98
594.70	2319.32
595.05	2314.82
595.40	2309.16
595.75	2303.45
596.10	2299.71
596.45	2294.79
596.80	2290.15
597.15	2285.00
597.50	2279.19
597.85	2274.32
598.19	2269.08
598.54	2263.30
598.89	2257.88
599.24	2253.09
599.59	2246.84
599.94	2240.94
600.29	2234.94
600.64	2229.10
600.99	2222.18
601.34	2216.79
601.69	2209.82
602.04	2203.29
602.39	2196.44
602.74	2190.30
603.08	2184.68
603.43	2178.16
603.78	2171.28
604.13	2164.14
604.48	2156.68
604.83	2150.31
605.18	2144.07
605.53	2137.24
605.87	2130.08
606.22	2123.41
606.57	2115.55
606.92	2107.62
607.27	2100.76
607.62	2094.05
607.96	2087.04
608.31	2080.53
608.66	2072.69
609.01	2065.04
609.36	2057.98
609.70	2050.40
610.05	2042.66
610.40	2034.44
610.75	2026.12
611.10	2018.33
611.44	2009.48
611.79	2000.87
612.14	1991.04
612.49	1980.33
612.83	1970.84
613.18	1961.63
613.53	1952.28
613.88	1942.69
614.22	1934.05
614.57	1924.20
614.92	1913.71
615.27	1903.45
615.61	1893.26
615.96	1883.68
616.31	1874.06
616.65	1864.71
617.00	1855.00
617.35	1845.41
617.70	1835.66
618.04	1825.83
618.39	1815.91
618.74	1806.49
619.08	1796.85
619.43	1788.16
619.78	1779.98
620.12	1771.48
620.47	1761.99
620.82	1751.82
621.16	1742.20
621.51	1732.35
621.85	1722.67
622.20	1712.44
622.55	1702.15
622.89	1692.31
623.24	1682.65
623.59	1672.91
623.93	1662.84
624.28	1653.10
624.62	1643.16
624.97	1633.00
625.32	1623.14
625.66	1614.20
626.01	1605.32
626.35	1596.05
626.70	1586.17
627.04	1576.19
627.39	1566.26
627.73	1557.06
628.08	1548.16
628.43	1538.65
628.77	1529.54
629.12	1520.64
629.46	1512.79
629.81	1504.46
630.15	1495.19
630.50	1485.49
630.84	1475.15
631.19	1465.37
631.53	1456.22
631.88	1446.17
632.22	1436.34
632.57	1427.09
632.91	1417.03
633.26	1407.33
633.60	1397.94
633.95	1388.65
634.29	1379.25
634.64	1369.97
634.98	1360.02
635.32	1350.94
635.67	1342.62
636.01	1333.47
636.36	1323.73
636.70	1314.34
637.05	1305.13
637.39	1296.31
637.73	1287.74
638.08	1280.34
638.42	1272.24
638.77	1263.54
639.11	1255.30
639.45	1247.62
639.80	1239.26
640.14	1230.70
640.49	1221.97
640.83	1213.18
641.17	1205.08
641.52	1197.05
641.86	1188.46
642.20	1180.85
642.55	1172.16
642.89	1163.36
643.23	1154.80
643.58	1146.88
643.92	1137.88
644.26	1129.22
644.61	1120.86
644.95	1112.14
645.29	1102.96
645.64	1093.90
645.98	1085.41
646.32	1077.54
646.66	1068.99
647.01	1060.78
647.35	1052.72
647.69	1044.43
648.04	1036.26
648.38	1027.51
648.72	1018.80
649.06	1010.51
649.41	1002.28
649.75	994.38
650.09	986.52
650.43	978.61
650.78	970.32
651.12	962.74
651.46	955.28
651.80	948.08
652.14	940.86
652.49	933.37
652.83	926.05
653.17	918.43
653.51	910.89
653.85	903.73
654.20	896.46
654.54	889.06
654.88	881.83
655.22	874.71
655.56	867.74
655.90	861.00
656.25	854.39
656.59	847.53
656.93	840.55
657.27	833.47
657.61	826.43
657.95	820.40
658.29	814.41
658.64	808.42
658.98	801.91
659.32	795.35
659.66	789.13
660.00	782.83
660.34	776.82
660.68	770.70
661.02	764.30
661.36	758.32
661.70	752.51
662.05	746.99
662.39	741.50
662.73	736.08
663.07	730.75
663.41	725.12
663.75	719.38
664.09	713.68
664.43	708.23
664.77	702.92
665.11	697.09
665.45	691.25
665.79	685.43
666.13	679.76
666.47	674.33
666.81	668.89
667.15	663.46
667.49	658.27
667.83	652.99
668.17	647.73
668.51	642.62
668.85	637.68
669.19	632.77
669.53	627.71
669.87	622.64
670.21	617.79
670.55	613.03
670.89	608.61
671.23	604.33
671.57	599.98
671.91	595.71
672.25	591.51
672.58	587.41
672.92	583.38
673.26	579.49
673.60	575.56
673.94	571.72
674.28	568.09
674.62	564.30
674.96	560.60
675.30	557.12
675.64	553.43
675.97	549.90
676.31	546.19
676.65	542.57
676.99	539.12
677.33	535.26
677.67	531.57
678.01	527.68
678.34	524.03
678.68	520.46
679.02	516.83
679.36	513.14
679.70	509.48
680.04	505.83
680.37	502.29
680.71	498.99
681.05	495.78
681.39	492.49
681.73	489.30
682.06	486.23
682.40	483.16
682.74	479.98
683.08	476.69
683.42	473.50
683.75	470.44
684.09	467.36
684.43	464.54
684.77	461.61
685.10	458.72
685.44	455.76
685.78	452.84
686.12	450.04
686.45	447.27
686.79	444.52
687.13	442.01
687.46	439.46
687.80	436.74
688.14	433.92
688.48	431.32
688.81	428.57
689.15	425.95
689.49	423.33
689.82	420.81
690.16	418.20
690.50	415.77
690.83	413.28
691.17	410.75
691.51	408.25
691.84	405.95
692.18	403.73
692.52	401.50
692.85	399.31
693.19	397.13
693.52	394.98
693.86	392.77
694.20	390.53
694.53	388.29
694.87	386.08
695.21	383.94
695.54	381.70
695.88	379.56
696.21	377.34
696.55	375.20
696.88	373.09
697.22	371.07
697.56	369.15
697.89	367.26
698.23	365.48
698.56	363.71
698.90	361.91
699.23	360.01
699.57	358.17
699.90	356.29
700.24	354.44
700.58	352.66
700.91	350.96
701.25	349.35
701.58	347.69
701.92	346.07
702.25	344.39
702.59	342.78
702.92	341.22
703.26	339.61
703.59	338.06
703.93	336.77
704.26	335.34
704.60	333.75
704.93	332.23
705.26	330.70
705.60	329.17
705.93	327.65
706.27	326.32
706.60	324.99
706.94	323.76
707.27	322.38
707.61	321.02
707.94	319.67
708.27	318.13
708.61	316.71
708.94	315.30
709.28	314.00
709.61	312.74
709.94	311.49
710.28	310.31
710.61	309.10
710.95	307.63
711.28	306.53
711.61	305.35
711.95	304.22
712.28	302.99
712.61	301.81
712.95	300.73
713.28	299.61
713.61	298.44
713.95	297.24
714.28	296.23
714.61	295.13
714.95	294.09
715.28	293.06
715.61	292.05
715.95	291.10
716.28	290.14
716.61	289.16
716.95	288.16
717.28	287.20
717.61	286.18
717.94	285.31
718.28	284.24
718.61	283.34
718.94	282.36
719.27	281.52
719.61	280.68
719.94	279.79
720.27	278.80
720.60	277.94
720.94	277.10
721.27	276.31
721.60	275.65
721.93	274.89
722.27	274.26
722.60	273.58
722.93	272.86
723.26	272.18
723.59	271.46
723.93	270.84
724.26	270.19
724.59	269.54
724.92	268.95
725.25	268.39
725.59	267.81
725.92	267.33
726.25	266.74
726.58	266.15
726.91	265.54
727.24	265.05
727.57	264.49
727.91	263.91
728.24	263.39
728.57	262.76
728.90	262.22
729.23	261.56
729.56	261.10
729.89	260.53
730.22	259.93
730.55	259.36
730.89	258.81
731.22	258.27
731.55	257.78
731.88	257.19
732.21	256.66
732.54	256.13
732.87	255.59
733.20	255.13
733.53	254.66
733.86	254.24
734.19	253.73
734.52	253.33
734.85	253.00
735.18	252.48
735.51	252.10
735.84	251.64
736.17	251.26
736.50	250.71
736.83	250.55
737.16	250.19
737.49	249.82
737.82	249.39
738.15	249.02
738.48	248.59
738.81	248.25
739.14	247.81
739.47	247.39
739.80	246.97
740.13	246.58
740.46	246.16
740.79	245.72
741.12	245.36
741.45	244.96
741.78	244.53
742.11	244.24
742.44	243.87
742.77	243.61
743.10	243.24
743.43	242.91
743.75	242.29
744.08	242.22
744.41	241.85
744.74	241.49
745.07	241.09
745.40	240.81
745.73	240.54
746.06	240.24
746.39	239.94
746.71	239.63
747.04	239.27
747.37	238.94
747.70	238.65
748.03	238.33
748.36	238.05
748.68	237.74
749.01	237.37
749.34	237.04
749.67	236.72
750.00	236.46
750.33	236.30
750.65	236.04
750.98	235.52
751.31	235.24
751.64	234.99
751.97	234.87
752.29	234.58
752.62	234.20
752.95	233.91
753.28	233.65
753.60	233.38
753.93	233.20
754.26	233.02
754.59	232.72
754.91	232.51
755.24	232.24
755.57	232.02
755.90	231.80
756.22	231.58
756.55	231.30
756.88	231.06
757.20	230.74
757.53	230.49
757.86	230.26
758.19	230.12
758.51	229.94
758.84	229.63
759.17	229.43
759.49	229.31
759.82	229.25
760.15	229.07
760.47	228.87
760.80	228.61
761.13	228.45
761.45	228.28
761.78	228.04
762.11	227.90
762.43	227.68
762.76	227.52
763.08	227.37
763.41	227.21
763.74	227.04
764.06	226.87
764.39	226.74
764.71	226.58
765.04	226.39
765.37	226.21
765.69	226.05
766.02	225.92
766.34	225.75
766.67	225.50
767.00	225.46
767.32	225.42
767.65	225.43
767.97	225.23
768.30	225.16
768.62	225.07
768.95	224.86
769.27	224.74
769.60	224.64
769.92	224.43
770.25	224.28
770.57	224.15
770.90	224.00
771.22	223.85
771.55	223.73
771.87	223.65
772.20	223.52
772.52	223.61
772.85	223.75
773.17	223.63
773.50	223.53
773.82	223.32
774.15	223.14
774.47	222.90
774.80	222.79
775.12	222.65
775.45	222.54
775.77	222.48
776.09	222.38
776.42	222.29
776.74	222.28
777.07	222.21
777.39	222.12
777.72	222.03
778.04	221.94
778.36	221.85
778.69	221.78
779.01	221.70
779.33	221.41
779.66	221.08
779.98	220.99
780.31	220.90
780.63	220.95
780.95	220.90
781.28	220.84
781.60	220.77
781.92	220.73
782.25	220.67
782.57	220.60
782.89	220.52
783.22	220.42
783.54	220.32
783.86	220.28
784.19	220.21
784.51	220.23
784.83	220.19
785.16	220.09
785.48	220.00
785.80	219.96
786.12	219.91
786.45	219.85
786.77	219.80
787.09	219.76
787.42	219.61
787.74	219.57
788.06	219.54
788.38	219.47
788.71	219.35
789.03	219.30
789.35	219.26
789.67	219.21
789.99	219.17
790.32	219.11
790.64	219.06
790.96	219.16
791.28	219.05
791.61	218.97
791.93	218.94
792.25	218.90
792.57	218.99
792.89	218.90
793.21	218.87
793.54	218.80
793.86	218.75
794.18	218.71
794.50	218.58
794.82	218.48
795.14	218.46
795.47	218.44
795.79	218.39
796.11	218.32
796.43	218.26
796.75	218.20
797.07	218.18
797.39	218.12
797.71	217.96
798.04	217.91
798.36	217.88
798.68	217.86
799.00	217.82
799.32	217.67
799.64	217.69
799.96	217.63
800.28	217.66
800.60	217.62
800.92	217.62
801.24	217.59
801.56	217.59
801.89	217.55
802.21	217.54
802.53	217.47
802.85	217.50
803.17	217.57
803.49	217.54
803.81	217.46
804.13	217.43
804.45	217.38
804.77	217.36
805.09	217.34
805.41	217.29
805.73	217.25
806.05	217.17
806.37	217.13
806.69	217.12
807.01	217.03
807.33	216.99
807.65	216.85
807.97	216.93
808.28	216.91
808.60	216.90
808.92	216.85
809.24	216.96
809.56	216.88
809.88	216.75
810.20	216.73
810.52	216.78
810.84	216.73
811.16	216.66
811.48	216.61
811.80	216.64
812.12	216.63
812.43	216.61
812.75	216.60
813.07	216.56
813.39	216.54
813.71	216.48
814.03	216.45
814.35	216.46
814.67	216.34
814.98	216.28
815.30	216.25
815.62	216.22
815.94	216.09
816.26	216.08
816.58	216.04
816.89	216.04
817.21	215.94
817.53	215.96
817.85	215.96
818.17	215.92
818.48	215.86
818.80	215.86
819.12	215.81
819.44	215.78
819.76	215.72
820.07	215.66
820.39	215.69
820.71	215.70
821.03	215.70
821.34	215.69
821.66	215.71
821.98	215.71
822.30	215.71
822.61	215.79
822.93	215.76
823.25	215.74
823.57	215.69
823.88	215.77
824.20	215.74
824.52	215.78
824.83	215.81
825.15	215.73
825.47	215.69
825.79	215.69
826.10	215.66
826.42	215.67
826.74	215.71
827.05	215.66
827.37	215.65
827.69	215.57
828.00	215.57
828.32	215.54
828.64	215.48
828.95	215.56
829.27	215.49
829.58	215.48
829.90	215.49
830.22	215.53
830.53	215.43
830.85	215.40
831.17	215.33
831.48	215.28
831.80	215.33
832.11	215.29
832.43	215.28
832.75	215.26
833.06	215.40
833.38	215.33
833.69	215.31
834.01	215.29
834.32	215.34
834.64	215.31
834.96	215.30
835.27	215.30
835.59	215.20
835.90	215.17
836.22	215.14
836.53	215.09
836.85	215.00
837.16	215.21
837.48	215.19
837.79	215.25
838.11	215.24
838.42	215.19
838.74	215.23
839.05	215.19
839.37	215.20
839.68	215.03
840.00	215.02
840.31	215.08
840.63	215.08
840.94	215.05
841.26	215.00
841.57	214.95
841.88	214.94
842.20	214.92
842.51	214.87
842.83	214.89
843.14	215.06
843.46	215.06
843.77	214.92
844.08	214.90
844.40	214.82
844.71	214.82
845.03	214.80
845.34	214.77
845.65	214.79
845.97	214.77
846.28	214.79
846.60	214.78
846.91	214.75
847.22	214.72
847.54	214.77
847.85	214.80
848.16	214.81
848.48	214.79
848.79	214.88
849.10	214.91
849.42	214.91
849.73	214.75
850.04	214.77
850.36	214.67
850.67	214.68
850.98	214.70
851.30	214.69
851.61	214.69
851.92	214.68
852.23	214.73
852.55	214.74
852.86	214.76
853.17	214.76
853.49	214.76
853.80	214.81
854.11	214.80
854.42	214.83
854.74	214.79
855.05	214.80
855.36	214.68
855.67	214.67
855.99	214.66
856.30	214.88
856.61	214.86
856.92	214.89
857.23	214.90
857.55	214.88
857.86	214.90
858.17	214.92
858.48	214.87
858.79	214.83
859.11	214.83
859.42	214.76
859.73	214.72
860.04	214.71
860.35	214.61
860.66	214.54
860.98	214.49
861.29	214.55
861.60	214.51
861.91	214.57
862.22	214.56
862.53	214.50
862.84	214.28
863.16	214.32
863.47	214.30
863.78	214.24
864.09	214.25
864.40	214.23
864.71	214.20
865.02	214.23
865.33	214.18
865.64	214.14
865.95	214.19
866.27	214.35
866.58	214.35
866.89	214.40
867.20	214.39
867.51	214.35
867.82	214.29
868.13	214.37
868.44	214.30
868.75	214.30
869.06	214.30
869.37	214.31
869.68	214.23
869.99	214.25
870.30	214.29
870.61	214.33
870.92	214.31
871.23	214.33
871.54	214.36
871.85	214.41
872.16	214.44
872.47	214.40
872.78	214.26
873.09	214.25
873.40	214.21
873.71	214.23
874.02	214.26
874.33	214.27
874.64	214.18
874.95	214.18
875.26	214.16
875.56	214.18
875.87	214.16
876.18	214.17
876.49	214.38
876.80	214.33
877.11	214.26
877.42	214.24
877.73	214.20
878.04	214.18
878.35	214.17
878.66	214.20
878.96	214.20
879.27	214.17
879.58	214.16
879.89	214.17
880.20	214.24
880.51	214.23
880.82	214.22
881.12	214.24
881.43	214.25
881.74	214.23
882.05	214.21
882.36	214.19
882.67	214.19
882.97	213.94
883.28	213.97
883.59	213.97
883.90	214.00
884.21	214.04
884.51	214.01
884.82	213.97
885.13	213.95
885.44	213.96
885.74	213.99
886.05	214.00
886.36	213.97
886.67	213.89
886.98	214.00
887.28	214.01
887.59	214.03
887.90	214.04
888.20	214.03
888.51	214.09
888.82	214.10
889.13	214.14
889.43	214.31
889.74	214.32
890.05	214.31
890.35	214.30
890.66	214.25
890.97	214.23
891.28	214.23
891.58	214.22
891.89	214.20
892.20	214.16
892.50	214.14
892.81	214.14
893.12	214.15
893.42	214.04
893.73	214.08
894.04	214.05
894.34	214.07
894.65	214.08
894.95	214.05
895.26	214.06
895.57	214.14
895.87	213.98
896.18	214.01
896.48	214.02
896.79	214.01
897.10	214.06
897.40	214.12
897.71	214.16
898.01	214.14
898.32	214.17
898.63	214.15
898.93	214.15
899.24	214.18
899.54	214.16
899.85	214.17
900.15	214.10
900.46	214.13
900.76	214.12
901.07	214.11
901.38	214.11
901.68	214.13
901.99	214.01
902.29	213.98
902.60	213.95
902.90	213.97
903.21	213.99
903.51	213.98
903.82	213.99
904.12	213.98
904.43	213.99
904.73	213.98
905.03	214.02
905.34	214.24
905.64	214.23
905.95	214.23
906.25	214.19
906.56	214.21
906.86	214.17
907.17	214.15
907.47	214.16
907.77	214.15
908.08	214.10
908.38	214.11
908.69	214.16
908.99	214.20
909.30	214.17
909.60	214.18
909.90	214.18
910.21	214.15
910.51	214.07
910.81	214.08
911.12	214.07
911.42	214.07
911.73	213.84
912.03	213.83
912.33	213.89
912.64	213.92
912.94	213.88
913.24	213.85
913.55	213.86
913.85	213.87
914.15	213.89
914.46	213.93
914.76	213.92
915.06	213.89
915.37	213.85
915.67	213.82
915.97	213.76
916.27	213.73
916.58	213.71
916.88	213.74
917.18	213.72
917.49	213.85
917.79	213.84
918.09	213.87
918.39	213.91
918.70	213.88
919.00	213.88
919.30	214.01
919.60	214.03
919.91	213.98
920.21	214.01
920.51	213.94
920.81	213.92
921.12	213.95
921.42	213.95
921.72	213.94
922.02	213.97
922.32	214.02
922.63	214.00
922.93	214.09
923.23	214.11
923.53	214.11
923.83	213.99
924.13	214.01
924.44	214.01
924.74	214.05
925.04	214.11
925.34	214.11
925.64	213.99
925.94	213.95
926.24	214.11
926.55	214.08
926.85	214.14
927.15	214.14
927.45	214.13
927.75	214.13
928.05	214.16
928.35	214.15
928.65	214.19
928.95	214.21
929.26	214.15
929.56	214.17
929.86	214.19
930.16	214.15
930.46	214.11
930.76	214.11
931.06	214.01
931.36	213.94
931.66	213.94
931.96	213.95
932.26	214.03
932.56	213.91
932.86	213.93
933.16	213.93
933.46	213.94
933.76	213.91
934.06	213.96
934.36	214.01
934.66	214.06
934.96	213.99
935.26	214.01
935.56	214.02
935.86	213.95
936.16	213.93
936.46	213.94
936.76	213.92
937.06	213.86
937.36	213.88
937.66	213.88
937.96	213.89
938.26	213.87
938.56	213.80
938.86	213.77
939.16	213.79
939.46	213.79
939.76	213.77
940.06	213.77
940.35	213.70
940.65	213.59
940.95	213.55
941.25	213.51
941.55	213.47
941.85	213.45
942.15	213.53
942.45	213.58
942.75	213.59
943.04	213.60
943.34	213.66
943.64	213.66
943.94	213.65
944.24	213.67
944.54	213.69
944.84	213.72
945.13	213.72
945.43	213.72
945.73	213.69
946.03	213.68
946.33	213.66
946.62	213.67
946.92	213.66
947.22	213.67
947.52	213.70
947.82	213.76
948.11	213.76
948.41	213.67
948.71	213.61
949.01	213.66
949.31	213.65
949.60	213.63
949.90	213.66
950.20	213.65
950.50	213.63
950.79	213.59
951.09	213.62
951.39	213.63
951.69	213.57
951.98	213.63
952.28	213.64
952.58	213.63
952.87	213.63
953.17	213.68
953.47	213.63
953.76	213.64
954.06	213.61
954.36	213.57
954.66	213.60
954.95	213.67
955.25	213.62
955.55	213.64
955.84	213.62
956.14	213.62
956.44	213.64
956.73	213.62
957.03	213.65
957.32	213.67
957.62	213.63
957.92	213.68
958.21	213.67
958.51	213.91
958.81	213.93
959.10	213.95
959.40	213.98
959.69	214.00
959.99	214.03
960.29	214.00
960.58	213.99
960.88	214.06
961.17	214.01
961.47	214.07
961.76	214.05
962.06	214.10
962.36	214.08
962.65	214.13
962.95	214.15
963.24	214.15
963.54	214.14
963.83	214.21
964.13	214.18
964.42	214.12
964.72	213.98
965.01	214.00
965.31	213.99
965.60	213.95
965.90	214.10
966.19	214.03
966.49	214.03
966.78	214.03
967.08	214.04
967.37	214.05
967.67	213.97
967.96	214.02
968.26	214.02
968.55	214.03
968.85	213.97
969.14	213.94
969.43	213.93
969.73	213.89
970.02	213.84
970.32	213.81
970.61	213.82
970.91	213.72
971.20	213.67
971.49	213.67
971.79	213.70
972.08	213.55
972.38	213.61
972.67	213.61
972.96	213.66
973.26	213.60
973.55	213.66
973.85	213.68
974.14	213.64
974.43	213.64
974.73	213.61
975.02	213.63
975.31	213.63
975.61	213.64
975.90	213.63
976.19	213.62
976.49	213.66
976.78	213.68
977.07	213.67
977.37	213.66
977.66	213.69
977.95	213.64
978.24	213.65
978.54	213.69
978.83	213.68
979.12	213.65
979.42	213.64
979.71	213.59
980.00	213.55
980.29	213.58
980.59	213.54
980.88	213.63
981.17	213.60
981.46	213.60
981.76	213.58
982.05	213.66
982.34	213.65
982.63	213.65
982.93	213.62
983.22	213.68
983.51	213.72
983.80	213.71
984.09	213.76
984.39	213.74
984.68	213.70
984.97	213.71
985.26	213.71
985.55	213.74
985.85	213.70
986.14	213.74
986.43	213.77
986.72	213.77
987.01	213.66
987.30	213.66
987.59	213.65
987.89	213.66
988.18	213.58
988.47	213.59
988.76	213.60
989.05	213.60
989.34	213.57
989.63	213.61
989.92	213.58
990.22	213.55
990.51	213.52
990.80	213.52
991.09	213.53
991.38	213.55
991.67	213.51
991.96	213.51
992.25	213.51
992.54	213.44
992.83	213.42
993.12	213.41
993.41	213.46
993.70	213.55
993.99	213.60
994.28	213.63
994.58	213.67
994.87	213.62
995.16	213.62
995.45	213.59
995.74	213.56
996.03	213.61
996.32	213.62
996.61	213.69
996.90	213.67
997.19	213.67
997.48	213.66
997.77	213.63
998.06	213.64
998.34	213.65
998.63	213.69
998.92	213.71
999.21	213.76
999.50	213.75
999.79	213.67
1000.08	213.64
1000.37	213.65
1000.66	213.60
1000.95	213.66
1001.24	213.69
1001.53	213.71
1001.82	213.68
1002.11	213.65
1002.40	213.68
1002.68	213.72
1002.97	213.88
1003.26	213.82
1003.55	213.80
1003.84	213.82
1004.13	213.89
1004.42	213.86
1004.71	213.86
1004.99	213.84
1005.28	213.89
1005.57	213.88
1005.86	213.89
1006.15	213.85
1006.44	213.82
1006.72	213.86
1007.01	213.82
1007.30	213.83
1007.59	213.80
1007.88	213.80
1008.17	213.80
1008.45	213.75
1008.74	213.65
1009.03	213.51
1009.32	213.55
1009.60	213.54
1009.89	213.52
1010.18	213.41
1010.47	213.41
1010.76	213.38
1011.04	213.39
1011.33	213.35
1011.62	213.36
1011.91	213.35
1012.19	213.37
1012.48	213.38
1012.77	213.37
1013.05	213.47
1013.34	213.46
1013.63	213.45
1013.92	213.47
1014.20	213.43
1014.49	213.42
1014.78	213.44
1015.06	213.43
1015.35	213.42
1015.64	213.44
1015.92	213.51
1016.21	213.54
1016.50	213.56
1016.78	213.58
1017.07	213.61
1017.36	213.60
1017.64	213.54
1017.93	213.56
1018.22	213.53
1018.50	213.53
1018.79	213.53
1019.08	213.45
1019.36	213.47
1019.65	213.48
1019.93	213.53
1020.22	213.56
1020.51	213.68
1020.79	213.64
1021.08	213.10
1021.36	213.19
1021.65	213.54
1021.94	213.47
1022.22	214.02
1022.51	213.51
1022.79	214.65
1023.08	213.45
1023.36	215.77
1023.65	212.60
>>>>>End Processed Spectral Data<<<<<
