SpectraSuite Data File
++++++++++++++++++++++++++++++++++++
Date: Tue Jan 29 16:37:56 EST 2013
User: group
Dark Spectrum Present: No
Reference Spectrum Present: No
Number of Sampled Component Spectra: 1
Spectrometers: USB2E7196
Integration Time (usec): 65000 (USB2E7196)
Spectra Averaged: 100 (USB2E7196)
Boxcar Smoothing: 10 (USB2E7196)
Correct for Electrical Dark: No (USB2E7196)
Strobe/Lamp Enabled: No (USB2E7196)
Correct for Detector Non-linearity: No (USB2E7196)
Correct for Stray Light: No (USB2E7196)
Number of Pixels in Processed Spectrum: 2048
>>>>>Begin Processed Spectral Data<<<<<
339.09	0.00
339.48	201.87
339.86	203.54
340.24	204.41
340.63	205.71
341.01	210.68
341.39	208.84
341.78	209.97
342.16	211.09
342.54	211.72
342.93	200.97
343.31	211.15
343.69	211.69
344.07	212.14
344.46	212.62
344.84	213.05
345.22	213.21
345.60	213.49
345.99	213.73
346.37	213.91
346.75	214.02
347.13	214.12
347.52	214.19
347.90	214.30
348.28	214.33
348.66	214.43
349.05	214.38
349.43	214.44
349.81	214.47
350.19	214.55
350.57	214.64
350.96	214.74
351.34	214.84
351.72	214.90
352.10	215.03
352.48	215.09
352.87	215.13
353.25	215.21
353.63	215.24
354.01	215.28
354.39	215.34
354.77	215.42
355.15	215.55
355.54	215.58
355.92	215.57
356.30	215.67
356.68	215.88
357.06	215.99
357.44	216.01
357.82	216.09
358.20	216.14
358.58	216.20
358.97	216.26
359.35	216.34
359.73	216.48
360.11	216.50
360.49	216.55
360.87	216.58
361.25	216.61
361.63	216.74
362.01	216.81
362.39	216.84
362.77	216.90
363.15	216.90
363.53	216.93
363.91	216.97
364.29	216.97
364.67	216.77
365.05	216.78
365.43	216.82
365.81	216.86
366.19	216.94
366.57	217.03
366.95	217.03
367.33	216.99
367.71	216.93
368.09	216.98
368.47	216.96
368.85	216.96
369.23	217.02
369.61	216.92
369.99	216.95
370.37	216.94
370.75	217.01
371.13	217.00
371.51	216.95
371.89	216.98
372.27	216.99
372.65	216.98
373.03	216.92
373.41	216.89
373.78	216.83
374.16	216.71
374.54	216.61
374.92	216.56
375.30	216.49
375.68	216.41
376.06	216.39
376.44	216.36
376.82	216.35
377.19	216.30
377.57	216.26
377.95	216.14
378.33	216.07
378.71	215.91
379.09	215.86
379.47	215.85
379.84	215.77
380.22	215.69
380.60	215.61
380.98	215.57
381.36	215.51
381.73	215.45
382.11	215.46
382.49	215.43
382.87	215.34
383.25	215.35
383.62	215.57
384.00	215.50
384.38	215.47
384.76	215.49
385.13	215.54
385.51	215.49
385.89	215.45
386.27	215.45
386.64	215.48
387.02	215.46
387.40	215.40
387.78	215.41
388.15	215.39
388.53	215.39
388.91	215.38
389.29	215.34
389.66	215.37
390.04	215.31
390.42	215.32
390.79	215.38
391.17	215.37
391.55	215.12
391.92	215.11
392.30	215.10
392.68	215.03
393.05	215.01
393.43	215.05
393.81	215.07
394.18	215.05
394.56	215.05
394.94	215.09
395.31	215.12
395.69	215.21
396.06	215.26
396.44	215.31
396.82	215.31
397.19	215.48
397.57	215.45
397.95	215.52
398.32	215.48
398.70	215.49
399.07	215.56
399.45	215.61
399.82	215.67
400.20	215.72
400.58	215.78
400.95	215.73
401.33	215.82
401.70	216.05
402.08	216.17
402.45	216.24
402.83	216.38
403.20	216.51
403.58	216.56
403.95	216.70
404.33	216.84
404.71	217.02
405.08	217.26
405.46	217.49
405.83	217.71
406.21	217.91
406.58	218.15
406.96	218.37
407.33	218.65
407.70	218.95
408.08	219.42
408.45	219.80
408.83	220.22
409.20	220.56
409.58	220.81
409.95	221.25
410.33	221.72
410.70	222.16
411.08	222.71
411.45	223.30
411.82	223.88
412.20	224.58
412.57	225.40
412.95	226.01
413.32	226.83
413.69	227.66
414.07	228.58
414.44	229.59
414.82	230.63
415.19	231.83
415.56	233.03
415.94	234.21
416.31	235.60
416.68	237.02
417.06	238.61
417.43	240.18
417.81	241.94
418.18	243.76
418.55	245.69
418.93	247.70
419.30	249.83
419.67	252.07
420.04	254.39
420.42	256.79
420.79	259.57
421.16	262.36
421.54	265.28
421.91	268.25
422.28	271.35
422.66	274.63
423.03	277.87
423.40	281.21
423.77	284.79
424.15	288.46
424.52	292.30
424.89	296.47
425.26	300.57
425.64	304.47
426.01	308.79
426.38	313.33
426.75	317.85
427.13	322.53
427.50	327.49
427.87	332.70
428.24	337.90
428.61	342.93
428.99	348.50
429.36	354.54
429.73	360.46
430.10	366.39
430.47	372.49
430.85	378.85
431.22	385.59
431.59	392.74
431.96	399.63
432.33	407.13
432.70	414.45
433.08	422.97
433.45	431.05
433.82	439.06
434.19	447.91
434.56	456.66
434.93	465.11
435.30	473.41
435.68	482.60
436.05	491.61
436.42	500.55
436.79	508.65
437.16	517.42
437.53	526.75
437.90	535.89
438.27	544.84
438.64	554.07
439.01	562.65
439.38	570.22
439.75	577.53
440.13	586.01
440.50	593.98
440.87	600.41
441.24	607.08
441.61	614.42
441.98	619.81
442.35	626.16
442.72	632.52
443.09	638.64
443.46	642.31
443.83	644.83
444.20	647.01
444.57	650.21
444.94	651.66
445.31	653.07
445.68	654.43
446.05	655.06
446.42	654.28
446.79	653.27
447.16	652.21
447.53	651.44
447.90	648.10
448.27	644.76
448.64	640.14
449.01	636.78
449.37	630.89
449.74	625.23
450.11	618.33
450.48	610.90
450.85	603.34
451.22	596.90
451.59	590.78
451.96	584.98
452.33	577.11
452.70	569.98
453.07	561.46
453.43	552.85
453.80	544.55
454.17	536.54
454.54	528.92
454.91	520.74
455.28	512.73
455.65	505.27
456.02	497.73
456.38	491.39
456.75	483.50
457.12	476.85
457.49	470.35
457.86	464.13
458.23	458.68
458.59	452.82
458.96	446.81
459.33	441.43
459.70	436.07
460.07	431.79
460.43	426.90
460.80	422.31
461.17	418.30
461.54	414.08
461.91	410.05
462.27	405.96
462.64	402.49
463.01	398.66
463.38	394.94
463.74	391.25
464.11	387.98
464.48	385.13
464.85	382.04
465.21	379.60
465.58	376.94
465.95	373.78
466.32	371.10
466.68	368.45
467.05	365.90
467.42	363.28
467.78	360.58
468.15	357.98
468.52	356.09
468.88	353.61
469.25	351.43
469.62	349.58
469.98	347.66
470.35	345.85
470.72	344.19
471.08	342.41
471.45	340.94
471.82	339.41
472.18	337.75
472.55	336.57
472.92	335.16
473.28	333.92
473.65	332.80
474.02	331.73
474.38	330.84
474.75	330.03
475.11	329.21
475.48	328.57
475.85	328.12
476.21	327.66
476.58	327.29
476.94	326.99
477.31	326.74
477.67	326.50
478.04	326.35
478.41	326.30
478.77	326.46
479.14	326.37
479.50	326.51
479.87	326.77
480.23	327.06
480.60	327.29
480.96	327.62
481.33	328.19
481.69	328.71
482.06	329.22
482.42	329.68
482.79	330.24
483.15	331.05
483.52	332.03
483.88	332.88
484.25	333.81
484.61	334.82
484.98	335.82
485.34	337.11
485.71	338.46
486.07	339.90
486.44	341.21
486.80	342.85
487.17	344.51
487.53	346.34
487.90	348.15
488.26	350.19
488.62	352.35
488.99	354.39
489.35	356.57
489.72	358.97
490.08	361.54
490.44	364.11
490.81	366.79
491.17	369.52
491.54	372.53
491.90	375.60
492.26	378.88
492.63	382.35
492.99	385.82
493.36	389.54
493.72	393.41
494.08	397.43
494.45	401.61
494.81	406.00
495.17	410.42
495.54	415.23
495.90	420.06
496.26	424.96
496.63	430.18
496.99	435.61
497.35	441.14
497.72	446.94
498.08	452.93
498.44	459.03
498.80	465.45
499.17	471.92
499.53	478.59
499.89	485.47
500.26	492.42
500.62	499.53
500.98	506.93
501.34	514.40
501.71	522.17
502.07	529.97
502.43	537.98
502.79	546.20
503.16	554.58
503.52	563.13
503.88	571.89
504.24	580.89
504.60	589.97
504.97	599.21
505.33	608.49
505.69	618.30
506.05	628.21
506.41	638.10
506.78	648.21
507.14	658.56
507.50	669.12
507.86	679.82
508.22	690.58
508.59	701.29
508.95	712.49
509.31	723.72
509.67	735.20
510.03	746.59
510.39	758.38
510.75	770.29
511.12	782.30
511.48	794.47
511.84	806.75
512.20	819.24
512.56	831.96
512.92	844.95
513.28	857.74
513.64	870.54
514.00	883.48
514.37	896.52
514.73	909.63
515.09	922.70
515.45	935.73
515.81	948.88
516.17	962.33
516.53	975.57
516.89	988.84
517.25	1002.13
517.61	1015.74
517.97	1029.18
518.33	1042.38
518.69	1055.87
519.05	1069.71
519.41	1083.42
519.77	1097.32
520.13	1110.64
520.49	1123.76
520.85	1137.21
521.21	1150.70
521.57	1164.40
521.93	1177.58
522.29	1191.45
522.65	1205.14
523.01	1218.78
523.37	1231.99
523.73	1245.42
524.09	1258.70
524.45	1272.20
524.81	1285.91
525.17	1299.34
525.53	1312.67
525.89	1326.03
526.25	1339.31
526.61	1352.31
526.97	1365.53
527.33	1378.49
527.68	1391.99
528.04	1405.63
528.40	1418.89
528.76	1432.34
529.12	1445.28
529.48	1458.73
529.84	1470.99
530.20	1483.90
530.56	1496.66
530.91	1510.12
531.27	1523.02
531.63	1535.87
531.99	1548.79
532.35	1560.99
532.71	1573.61
533.07	1586.49
533.42	1598.95
533.78	1611.22
534.14	1623.36
534.50	1634.66
534.86	1646.37
535.21	1657.44
535.57	1669.03
535.93	1680.34
536.29	1691.44
536.65	1703.19
537.00	1714.18
537.36	1725.74
537.72	1736.88
538.08	1748.37
538.44	1759.37
538.79	1770.65
539.15	1781.62
539.51	1792.50
539.87	1803.97
540.22	1814.83
540.58	1826.00
540.94	1836.95
541.29	1847.33
541.65	1857.18
542.01	1867.79
542.37	1877.99
542.72	1888.25
543.08	1898.15
543.44	1908.76
543.79	1918.25
544.15	1927.67
544.51	1937.69
544.87	1947.74
545.22	1956.96
545.58	1965.89
545.94	1974.86
546.29	1983.37
546.65	1991.90
547.01	2000.13
547.36	2007.98
547.72	2015.89
548.07	2023.41
548.43	2031.40
548.79	2039.45
549.14	2047.68
549.50	2056.27
549.86	2064.20
550.21	2071.83
550.57	2079.67
550.92	2086.56
551.28	2094.21
551.64	2101.55
551.99	2109.17
552.35	2116.39
552.70	2123.30
553.06	2130.12
553.41	2136.48
553.77	2143.07
554.13	2149.52
554.48	2156.68
554.84	2163.72
555.19	2170.16
555.55	2176.73
555.90	2182.86
556.26	2189.70
556.61	2195.83
556.97	2200.76
557.32	2206.47
557.68	2212.86
558.03	2218.56
558.39	2223.93
558.74	2229.77
559.10	2235.33
559.45	2240.94
559.81	2246.43
560.16	2252.12
560.52	2257.97
560.87	2264.35
561.23	2270.32
561.58	2276.97
561.94	2282.12
562.29	2286.66
562.64	2292.73
563.00	2298.39
563.35	2304.00
563.71	2309.76
564.06	2315.42
564.42	2321.27
564.77	2326.49
565.12	2331.81
565.48	2336.95
565.83	2342.39
566.19	2347.83
566.54	2353.12
566.89	2357.60
567.25	2362.28
567.60	2367.75
567.96	2372.81
568.31	2377.35
568.66	2381.59
569.02	2385.36
569.37	2389.08
569.72	2393.73
570.08	2397.30
570.43	2400.28
570.78	2403.32
571.14	2405.74
571.49	2408.77
571.84	2412.41
572.20	2415.25
572.55	2418.01
572.90	2420.24
573.26	2422.99
573.61	2425.45
573.96	2427.58
574.31	2429.68
574.67	2431.43
575.02	2432.18
575.37	2433.59
575.72	2434.27
576.08	2435.65
576.43	2435.68
576.78	2436.07
577.13	2437.50
577.49	2438.48
577.84	2439.45
578.19	2440.60
578.54	2441.12
578.90	2441.65
579.25	2441.20
579.60	2440.90
579.95	2440.13
580.30	2440.17
580.66	2439.34
581.01	2437.65
581.36	2435.11
581.71	2433.57
582.06	2432.26
582.42	2431.37
582.77	2428.98
583.12	2427.23
583.47	2425.55
583.82	2424.99
584.17	2423.75
584.53	2421.56
584.88	2419.41
585.23	2417.42
585.58	2415.12
585.93	2412.79
586.28	2410.64
586.63	2408.27
586.98	2406.07
587.34	2403.92
587.69	2401.31
588.04	2399.17
588.39	2397.63
588.74	2395.09
589.09	2392.28
589.44	2388.98
589.79	2386.38
590.14	2384.36
590.49	2381.53
590.84	2377.74
591.19	2374.41
591.54	2370.89
591.89	2366.70
592.25	2363.38
592.60	2359.11
592.95	2354.89
593.30	2350.67
593.65	2346.25
594.00	2341.67
594.35	2338.65
594.70	2333.97
595.05	2329.42
595.40	2323.93
595.75	2317.90
596.10	2314.17
596.45	2309.15
596.80	2304.48
597.15	2299.15
597.50	2293.26
597.85	2288.25
598.19	2283.03
598.54	2277.27
598.89	2271.99
599.24	2267.40
599.59	2261.20
599.94	2255.28
600.29	2249.24
600.64	2243.40
600.99	2236.37
601.34	2230.94
601.69	2223.81
602.04	2217.35
602.39	2210.51
602.74	2204.29
603.08	2198.76
603.43	2192.30
603.78	2185.56
604.13	2178.62
604.48	2171.30
604.83	2164.98
605.18	2158.67
605.53	2151.67
605.87	2144.49
606.22	2137.69
606.57	2129.64
606.92	2121.59
607.27	2114.69
607.62	2108.10
607.96	2100.98
608.31	2094.57
608.66	2086.72
609.01	2079.08
609.36	2071.92
609.70	2064.24
610.05	2056.41
610.40	2048.10
610.75	2039.65
611.10	2031.83
611.44	2022.79
611.79	2014.14
612.14	2004.27
612.49	1993.46
612.83	1984.13
613.18	1974.91
613.53	1965.50
613.88	1955.82
614.22	1947.21
614.57	1937.28
614.92	1926.49
615.27	1916.37
615.61	1906.22
615.96	1896.51
616.31	1886.84
616.65	1877.41
617.00	1867.54
617.35	1857.89
617.70	1848.19
618.04	1838.17
618.39	1827.90
618.74	1818.28
619.08	1808.55
619.43	1799.77
619.78	1791.56
620.12	1782.84
620.47	1773.28
620.82	1762.94
621.16	1753.22
621.51	1743.39
621.85	1733.54
622.20	1723.25
622.55	1712.56
622.89	1702.57
623.24	1692.90
623.59	1683.26
623.93	1673.09
624.28	1663.38
624.62	1653.49
624.97	1643.15
625.32	1633.27
625.66	1624.51
626.01	1615.70
626.35	1606.36
626.70	1596.35
627.04	1586.29
627.39	1576.27
627.73	1567.04
628.08	1558.14
628.43	1548.64
628.77	1539.32
629.12	1530.47
629.46	1522.69
629.81	1514.44
630.15	1504.98
630.50	1495.15
630.84	1484.59
631.19	1474.77
631.53	1465.56
631.88	1455.39
632.22	1445.45
632.57	1436.28
632.91	1426.05
633.26	1416.25
633.60	1406.76
633.95	1397.40
634.29	1387.92
634.64	1378.56
634.98	1368.57
635.32	1359.40
635.67	1350.96
636.01	1341.81
636.36	1331.99
636.70	1322.43
637.05	1313.08
637.39	1304.17
637.73	1295.64
638.08	1288.13
638.42	1279.94
638.77	1271.02
639.11	1262.66
639.45	1254.91
639.80	1246.30
640.14	1237.67
640.49	1228.90
640.83	1220.02
641.17	1211.88
641.52	1203.73
641.86	1195.17
642.20	1187.23
642.55	1178.58
642.89	1169.64
643.23	1160.93
643.58	1152.92
643.92	1143.85
644.26	1135.18
644.61	1126.78
644.95	1117.87
645.29	1108.52
645.64	1099.33
645.98	1090.81
646.32	1082.87
646.66	1074.27
647.01	1065.92
647.35	1057.77
647.69	1049.37
648.04	1041.11
648.38	1032.19
648.72	1023.36
649.06	1014.90
649.41	1006.72
649.75	998.65
650.09	990.72
650.43	982.79
650.78	974.39
651.12	966.68
651.46	959.17
651.80	951.80
652.14	944.43
652.49	936.99
652.83	929.67
653.17	922.05
653.51	914.40
653.85	907.27
654.20	900.05
654.54	892.59
654.88	885.29
655.22	877.94
655.56	871.03
655.90	864.32
656.25	857.65
656.59	850.73
656.93	843.76
657.27	836.61
657.61	829.46
657.95	823.41
658.29	817.51
658.64	811.36
658.98	804.92
659.32	798.38
659.66	792.12
660.00	785.74
660.34	779.66
660.68	773.54
661.02	767.02
661.36	760.96
661.70	755.09
662.05	749.41
662.39	743.94
662.73	738.44
663.07	732.87
663.41	727.24
663.75	721.55
664.09	715.78
664.43	710.35
664.77	704.99
665.11	699.20
665.45	693.26
665.79	687.41
666.13	681.66
666.47	676.17
666.81	670.64
667.15	665.19
667.49	659.88
667.83	654.62
668.17	649.33
668.51	644.23
668.85	639.24
669.19	634.31
669.53	629.27
669.87	624.19
670.21	619.52
670.55	614.74
670.89	610.19
671.23	605.89
671.57	601.50
671.91	597.24
672.25	592.93
672.58	588.72
672.92	584.65
673.26	580.76
673.60	576.82
673.94	573.02
674.28	569.41
674.62	565.71
674.96	561.93
675.30	558.44
675.64	554.74
675.97	551.20
676.31	547.55
676.65	543.87
676.99	540.39
677.33	536.52
677.67	532.82
678.01	528.98
678.34	525.28
678.68	521.64
679.02	517.96
679.36	514.30
679.70	510.63
680.04	506.98
680.37	503.44
680.71	500.13
681.05	496.88
681.39	493.55
681.73	490.36
682.06	487.28
682.40	484.19
682.74	480.97
683.08	477.63
683.42	474.45
683.75	471.44
684.09	468.31
684.43	465.45
684.77	462.52
685.10	459.62
685.44	456.71
685.78	453.80
686.12	450.99
686.45	448.22
686.79	445.57
687.13	442.99
687.46	440.31
687.80	437.53
688.14	434.62
688.48	431.94
688.81	429.17
689.15	426.53
689.49	423.83
689.82	421.25
690.16	418.65
690.50	416.14
690.83	413.57
691.17	411.05
691.51	408.49
691.84	406.19
692.18	403.93
692.52	401.65
692.85	399.50
693.19	397.32
693.52	395.09
693.86	392.80
694.20	390.62
694.53	388.45
694.87	386.22
695.21	384.12
695.54	381.93
695.88	379.73
696.21	377.49
696.55	375.37
696.88	373.32
697.22	371.28
697.56	369.35
697.89	367.48
698.23	365.70
698.56	363.87
698.90	362.08
699.23	360.15
699.57	358.26
699.90	356.35
700.24	354.50
700.58	352.72
700.91	351.04
701.25	349.47
701.58	347.83
701.92	346.23
702.25	344.57
702.59	342.98
702.92	341.46
703.26	339.84
703.59	338.31
703.93	337.02
704.26	335.60
704.60	334.07
704.93	332.52
705.26	330.96
705.60	329.48
705.93	327.94
706.27	326.63
706.60	325.36
706.94	324.11
707.27	322.74
707.61	321.40
707.94	320.06
708.27	318.52
708.61	317.05
708.94	315.67
709.28	314.37
709.61	313.06
709.94	311.79
710.28	310.60
710.61	309.37
710.95	307.89
711.28	306.79
711.61	305.59
711.95	304.47
712.28	303.31
712.61	302.11
712.95	301.03
713.28	299.93
713.61	298.73
713.95	297.55
714.28	296.50
714.61	295.44
714.95	294.38
715.28	293.31
715.61	292.30
715.95	291.33
716.28	290.36
716.61	289.41
716.95	288.43
717.28	287.51
717.61	286.57
717.94	285.66
718.28	284.62
718.61	283.72
718.94	282.82
719.27	281.92
719.61	281.10
719.94	280.21
720.27	279.26
720.60	278.40
720.94	277.60
721.27	276.82
721.60	276.10
721.93	275.37
722.27	274.74
722.60	274.06
722.93	273.31
723.26	272.62
723.59	271.86
723.93	271.21
724.26	270.51
724.59	269.84
724.92	269.24
725.25	268.69
725.59	268.06
725.92	267.49
726.25	266.92
726.58	266.32
726.91	265.69
727.24	265.08
727.57	264.52
727.91	263.87
728.24	263.30
728.57	262.69
728.90	262.12
729.23	261.47
729.56	261.01
729.89	260.52
730.22	259.89
730.55	259.33
730.89	258.75
731.22	258.25
731.55	257.72
731.88	257.18
732.21	256.61
732.54	256.09
732.87	255.57
733.20	255.04
733.53	254.52
733.86	254.08
734.19	253.62
734.52	253.19
734.85	252.94
735.18	252.44
735.51	252.06
735.84	251.61
736.17	251.23
736.50	250.68
736.83	250.47
737.16	250.13
737.49	249.72
737.82	249.33
738.15	248.95
738.48	248.61
738.81	248.23
739.14	247.80
739.47	247.40
739.80	247.00
740.13	246.67
740.46	246.30
740.79	245.88
741.12	245.51
741.45	245.16
741.78	244.69
742.11	244.42
742.44	244.01
742.77	243.72
743.10	243.36
743.43	242.99
743.75	242.42
744.08	242.35
744.41	242.02
744.74	241.69
745.07	241.30
745.40	240.93
745.73	240.66
746.06	240.37
746.39	240.08
746.71	239.76
747.04	239.40
747.37	239.07
747.70	238.81
748.03	238.52
748.36	238.24
748.68	237.91
749.01	237.54
749.34	237.26
749.67	236.96
750.00	236.71
750.33	236.61
750.65	236.36
750.98	235.81
751.31	235.59
751.64	235.33
751.97	235.19
752.29	234.92
752.62	234.58
752.95	234.30
753.28	234.01
753.60	233.76
753.93	233.59
754.26	233.37
754.59	233.06
754.91	232.78
755.24	232.50
755.57	232.30
755.90	232.08
756.22	231.85
756.55	231.60
756.88	231.32
757.20	230.96
757.53	230.68
757.86	230.50
758.19	230.29
758.51	230.07
758.84	229.75
759.17	229.58
759.49	229.42
759.82	229.35
760.15	229.21
760.47	229.01
760.80	228.77
761.13	228.62
761.45	228.46
761.78	228.30
762.11	228.15
762.43	227.94
762.76	227.77
763.08	227.62
763.41	227.44
763.74	227.31
764.06	227.13
764.39	227.01
764.71	226.82
765.04	226.68
765.37	226.53
765.69	226.41
766.02	226.25
766.34	226.10
766.67	225.87
767.00	225.74
767.32	225.74
767.65	225.75
767.97	225.58
768.30	225.46
768.62	225.36
768.95	225.23
769.27	225.10
769.60	225.03
769.92	224.87
770.25	224.74
770.57	224.59
770.90	224.49
771.22	224.37
771.55	224.25
771.87	224.13
772.20	223.99
772.52	224.06
772.85	224.15
773.17	224.07
773.50	223.95
773.82	223.85
774.15	223.62
774.47	223.36
774.80	223.26
775.12	223.16
775.45	223.03
775.77	222.93
776.09	222.88
776.42	222.77
776.74	222.74
777.07	222.66
777.39	222.57
777.72	222.43
778.04	222.37
778.36	222.26
778.69	222.20
779.01	222.16
779.33	221.90
779.66	221.60
779.98	221.52
780.31	221.46
780.63	221.46
780.95	221.40
781.28	221.33
781.60	221.22
781.92	221.14
782.25	221.04
782.57	220.97
782.89	220.87
783.22	220.77
783.54	220.66
783.86	220.62
784.19	220.57
784.51	220.58
784.83	220.46
785.16	220.39
785.48	220.33
785.80	220.27
786.12	220.20
786.45	220.17
786.77	220.10
787.09	220.02
787.42	219.86
787.74	219.81
788.06	219.76
788.38	219.71
788.71	219.67
789.03	219.63
789.35	219.61
789.67	219.52
789.99	219.46
790.32	219.36
790.64	219.31
790.96	219.40
791.28	219.29
791.61	219.22
791.93	219.19
792.25	219.13
792.57	219.21
792.89	219.07
793.21	219.02
793.54	218.94
793.86	218.84
794.18	218.80
794.50	218.70
794.82	218.64
795.14	218.62
795.47	218.60
795.79	218.55
796.11	218.44
796.43	218.40
796.75	218.40
797.07	218.39
797.39	218.34
797.71	218.12
798.04	218.11
798.36	218.12
798.68	218.08
799.00	218.05
799.32	217.91
799.64	217.97
799.96	217.94
800.28	217.96
800.60	217.93
800.92	217.92
801.24	217.89
801.56	217.89
801.89	217.84
802.21	217.82
802.53	217.76
802.85	217.80
803.17	217.85
803.49	217.75
803.81	217.71
804.13	217.64
804.45	217.64
804.77	217.60
805.09	217.59
805.41	217.51
805.73	217.45
806.05	217.36
806.37	217.31
806.69	217.23
807.01	217.18
807.33	217.19
807.65	217.08
807.97	217.20
808.28	217.14
808.60	217.13
808.92	217.07
809.24	217.16
809.56	217.09
809.88	217.00
810.20	216.96
810.52	217.00
810.84	216.96
811.16	216.89
811.48	216.87
811.80	216.87
812.12	216.87
812.43	216.90
812.75	216.91
813.07	216.84
813.39	216.86
813.71	216.79
814.03	216.71
814.35	216.71
814.67	216.54
814.98	216.49
815.30	216.45
815.62	216.42
815.94	216.26
816.26	216.24
816.58	216.18
816.89	216.22
817.21	216.14
817.53	216.13
817.85	216.13
818.17	216.10
818.48	216.02
818.80	216.04
819.12	216.01
819.44	215.94
819.76	215.90
820.07	215.87
820.39	215.86
820.71	215.88
821.03	215.88
821.34	215.88
821.66	215.92
821.98	215.92
822.30	215.91
822.61	216.02
822.93	215.99
823.25	215.97
823.57	215.93
823.88	215.96
824.20	215.95
824.52	215.97
824.83	215.91
825.15	215.89
825.47	215.84
825.79	215.81
826.10	215.80
826.42	215.83
826.74	215.85
827.05	215.83
827.37	215.81
827.69	215.78
828.00	215.75
828.32	215.73
828.64	215.69
828.95	215.77
829.27	215.71
829.58	215.72
829.90	215.75
830.22	215.73
830.53	215.64
830.85	215.61
831.17	215.51
831.48	215.52
831.80	215.51
832.11	215.50
832.43	215.47
832.75	215.46
833.06	215.56
833.38	215.47
833.69	215.44
834.01	215.41
834.32	215.39
834.64	215.41
834.96	215.38
835.27	215.36
835.59	215.25
835.90	215.16
836.22	215.13
836.53	215.08
836.85	215.07
837.16	215.26
837.48	215.24
837.79	215.31
838.11	215.33
838.42	215.30
838.74	215.31
839.05	215.28
839.37	215.25
839.68	215.08
840.00	215.09
840.31	215.15
840.63	215.14
840.94	215.13
841.26	215.05
841.57	215.03
841.88	215.05
842.20	215.00
842.51	215.00
842.83	215.00
843.14	215.20
843.46	215.24
843.77	215.10
844.08	215.12
844.40	215.06
844.71	215.01
845.03	214.98
845.34	214.95
845.65	214.92
845.97	214.93
846.28	214.98
846.60	214.99
846.91	214.93
847.22	214.95
847.54	214.97
847.85	215.02
848.16	215.00
848.48	214.98
848.79	215.08
849.10	215.10
849.42	215.13
849.73	214.94
850.04	214.87
850.36	214.83
850.67	214.83
850.98	214.84
851.30	214.88
851.61	214.88
851.92	214.89
852.23	214.95
852.55	214.97
852.86	214.95
853.17	214.94
853.49	215.00
853.80	215.00
854.11	215.04
854.42	215.05
854.74	215.06
855.05	215.05
855.36	214.95
855.67	214.98
855.99	214.96
856.30	215.19
856.61	215.19
856.92	215.18
857.23	215.17
857.55	215.13
857.86	215.12
858.17	215.16
858.48	215.14
858.79	215.10
859.11	215.12
859.42	215.10
859.73	215.08
860.04	215.05
860.35	215.02
860.66	214.91
860.98	214.89
861.29	214.92
861.60	214.91
861.91	214.95
862.22	214.90
862.53	214.86
862.84	214.60
863.16	214.64
863.47	214.60
863.78	214.59
864.09	214.61
864.40	214.58
864.71	214.60
865.02	214.61
865.33	214.61
865.64	214.54
865.95	214.58
866.27	214.73
866.58	214.71
866.89	214.70
867.20	214.68
867.51	214.65
867.82	214.63
868.13	214.70
868.44	214.67
868.75	214.69
869.06	214.67
869.37	214.73
869.68	214.68
869.99	214.72
870.30	214.75
870.61	214.75
870.92	214.75
871.23	214.71
871.54	214.74
871.85	214.78
872.16	214.83
872.47	214.76
872.78	214.59
873.09	214.60
873.40	214.60
873.71	214.66
874.02	214.68
874.33	214.67
874.64	214.62
874.95	214.66
875.26	214.61
875.56	214.65
875.87	214.62
876.18	214.62
876.49	214.81
876.80	214.76
877.11	214.74
877.42	214.74
877.73	214.75
878.04	214.70
878.35	214.71
878.66	214.68
878.96	214.70
879.27	214.71
879.58	214.70
879.89	214.67
880.20	214.71
880.51	214.72
880.82	214.70
881.12	214.71
881.43	214.63
881.74	214.63
882.05	214.62
882.36	214.63
882.67	214.62
882.97	214.39
883.28	214.39
883.59	214.38
883.90	214.41
884.21	214.44
884.51	214.40
884.82	214.33
885.13	214.34
885.44	214.33
885.74	214.31
886.05	214.31
886.36	214.33
886.67	214.27
886.98	214.34
887.28	214.38
887.59	214.35
887.90	214.39
888.20	214.38
888.51	214.38
888.82	214.34
889.13	214.35
889.43	214.55
889.74	214.55
890.05	214.56
890.35	214.53
890.66	214.50
890.97	214.53
891.28	214.52
891.58	214.53
891.89	214.53
892.20	214.54
892.50	214.50
892.81	214.49
893.12	214.48
893.42	214.40
893.73	214.37
894.04	214.37
894.34	214.38
894.65	214.37
894.95	214.37
895.26	214.37
895.57	214.50
895.87	214.27
896.18	214.30
896.48	214.30
896.79	214.30
897.10	214.31
897.40	214.32
897.71	214.36
898.01	214.34
898.32	214.34
898.63	214.34
898.93	214.37
899.24	214.40
899.54	214.38
899.85	214.36
900.15	214.37
900.46	214.38
900.76	214.41
901.07	214.41
901.38	214.39
901.68	214.42
901.99	214.29
902.29	214.32
902.60	214.30
902.90	214.28
903.21	214.29
903.51	214.25
903.82	214.28
904.12	214.27
904.43	214.27
904.73	214.29
905.03	214.31
905.34	214.50
905.64	214.46
905.95	214.48
906.25	214.50
906.56	214.47
906.86	214.47
907.17	214.40
907.47	214.42
907.77	214.43
908.08	214.40
908.38	214.39
908.69	214.42
908.99	214.41
909.30	214.44
909.60	214.42
909.90	214.47
910.21	214.39
910.51	214.37
910.81	214.37
911.12	214.36
911.42	214.35
911.73	214.14
912.03	214.14
912.33	214.17
912.64	214.15
912.94	214.13
913.24	214.11
913.55	214.12
913.85	214.11
914.15	214.14
914.46	214.12
914.76	214.11
915.06	214.09
915.37	214.10
915.67	214.07
915.97	214.10
916.27	214.03
916.58	214.06
916.88	214.02
917.18	214.03
917.49	214.19
917.79	214.15
918.09	214.20
918.39	214.26
918.70	214.21
919.00	214.22
919.30	214.33
919.60	214.29
919.91	214.27
920.21	214.25
920.51	214.19
920.81	214.23
921.12	214.28
921.42	214.26
921.72	214.26
922.02	214.27
922.32	214.31
922.63	214.34
922.93	214.45
923.23	214.51
923.53	214.46
923.83	214.33
924.13	214.38
924.44	214.38
924.74	214.42
925.04	214.50
925.34	214.52
925.64	214.38
925.94	214.43
926.24	214.49
926.55	214.50
926.85	214.54
927.15	214.51
927.45	214.49
927.75	214.51
928.05	214.53
928.35	214.54
928.65	214.54
928.95	214.55
929.26	214.45
929.56	214.46
929.86	214.53
930.16	214.51
930.46	214.50
930.76	214.49
931.06	214.39
931.36	214.33
931.66	214.35
931.96	214.38
932.26	214.36
932.56	214.33
932.86	214.33
933.16	214.33
933.46	214.29
933.76	214.31
934.06	214.36
934.36	214.43
934.66	214.42
934.96	214.39
935.26	214.42
935.56	214.45
935.86	214.42
936.16	214.34
936.46	214.33
936.76	214.30
937.06	214.29
937.36	214.31
937.66	214.30
937.96	214.27
938.26	214.29
938.56	214.27
938.86	214.30
939.16	214.39
939.46	214.42
939.76	214.46
940.06	214.41
940.35	214.36
940.65	214.27
940.95	214.26
941.25	214.21
941.55	214.19
941.85	214.17
942.15	214.21
942.45	214.27
942.75	214.27
943.04	214.29
943.34	214.32
943.64	214.31
943.94	214.28
944.24	214.29
944.54	214.28
944.84	214.29
945.13	214.25
945.43	214.18
945.73	214.13
946.03	214.11
946.33	214.10
946.62	214.08
946.92	214.07
947.22	214.09
947.52	214.11
947.82	214.13
948.11	214.12
948.41	214.05
948.71	213.99
949.01	214.01
949.31	213.98
949.60	213.94
949.90	213.98
950.20	213.98
950.50	213.97
950.79	213.93
951.09	213.96
951.39	213.94
951.69	213.91
951.98	214.00
952.28	214.00
952.58	213.99
952.87	214.02
953.17	214.04
953.47	214.01
953.76	213.98
954.06	213.92
954.36	213.89
954.66	213.92
954.95	213.99
955.25	213.99
955.55	213.99
955.84	213.98
956.14	213.99
956.44	213.96
956.73	213.93
957.03	213.98
957.32	213.99
957.62	214.03
957.92	214.08
958.21	213.99
958.51	214.21
958.81	214.23
959.10	214.21
959.40	214.23
959.69	214.25
959.99	214.30
960.29	214.29
960.58	214.28
960.88	214.34
961.17	214.27
961.47	214.29
961.76	214.29
962.06	214.35
962.36	214.32
962.65	214.36
962.95	214.36
963.24	214.34
963.54	214.32
963.83	214.31
964.13	214.29
964.42	214.29
964.72	214.12
965.01	214.15
965.31	214.16
965.60	214.12
965.90	214.24
966.19	214.19
966.49	214.21
966.78	214.15
967.08	214.11
967.37	214.13
967.67	214.07
967.96	214.09
968.26	214.06
968.55	214.08
968.85	214.10
969.14	214.11
969.43	214.10
969.73	214.10
970.02	214.08
970.32	214.07
970.61	214.07
970.91	214.00
971.20	213.95
971.49	213.93
971.79	213.96
972.08	213.79
972.38	213.83
972.67	213.84
972.96	213.89
973.26	213.85
973.55	213.94
973.85	213.95
974.14	213.92
974.43	213.90
974.73	213.88
975.02	213.80
975.31	213.77
975.61	213.78
975.90	213.75
976.19	213.76
976.49	213.79
976.78	213.79
977.07	213.81
977.37	213.84
977.66	213.83
977.95	213.79
978.24	213.83
978.54	213.86
978.83	213.84
979.12	213.88
979.42	213.92
979.71	213.86
980.00	213.87
980.29	213.86
980.59	213.85
980.88	213.92
981.17	213.95
981.46	213.97
981.76	213.99
982.05	214.06
982.34	214.03
982.63	214.01
982.93	214.00
983.22	214.06
983.51	214.06
983.80	214.11
984.09	214.13
984.39	214.14
984.68	214.11
984.97	214.12
985.26	214.06
985.55	214.07
985.85	214.05
986.14	214.11
986.43	214.16
986.72	214.14
987.01	214.08
987.30	214.07
987.59	214.04
987.89	214.01
988.18	213.95
988.47	213.93
988.76	213.93
989.05	213.91
989.34	213.85
989.63	213.86
989.92	213.85
990.22	213.84
990.51	213.82
990.80	213.77
991.09	213.80
991.38	213.84
991.67	213.84
991.96	213.81
992.25	213.78
992.54	213.77
992.83	213.75
993.12	213.73
993.41	213.74
993.70	213.82
993.99	213.86
994.28	213.89
994.58	213.92
994.87	213.90
995.16	213.90
995.45	213.89
995.74	213.84
996.03	213.83
996.32	213.88
996.61	213.92
996.90	213.97
997.19	213.94
997.48	213.93
997.77	213.87
998.06	213.90
998.34	213.89
998.63	213.85
998.92	213.88
999.21	213.94
999.50	213.96
999.79	213.90
1000.08	213.90
1000.37	213.91
1000.66	213.88
1000.95	213.94
1001.24	213.96
1001.53	214.00
1001.82	214.00
1002.11	213.98
1002.40	213.99
1002.68	214.00
1002.97	214.11
1003.26	214.08
1003.55	214.05
1003.84	214.09
1004.13	214.15
1004.42	214.13
1004.71	214.18
1004.99	214.16
1005.28	214.19
1005.57	214.17
1005.86	214.19
1006.15	214.16
1006.44	214.13
1006.72	214.19
1007.01	214.16
1007.30	214.15
1007.59	214.13
1007.88	214.12
1008.17	214.12
1008.45	214.09
1008.74	214.02
1009.03	213.94
1009.32	213.97
1009.60	214.00
1009.89	213.99
1010.18	213.91
1010.47	213.95
1010.76	213.93
1011.04	213.92
1011.33	213.92
1011.62	213.94
1011.91	213.95
1012.19	213.98
1012.48	214.00
1012.77	213.96
1013.05	214.05
1013.34	214.07
1013.63	214.07
1013.92	214.11
1014.20	214.10
1014.49	214.10
1014.78	214.11
1015.06	214.09
1015.35	214.05
1015.64	214.04
1015.92	214.05
1016.21	214.07
1016.50	214.04
1016.78	214.07
1017.07	214.09
1017.36	214.04
1017.64	214.01
1017.93	214.01
1018.22	214.00
1018.50	213.98
1018.79	213.98
1019.08	213.89
1019.36	213.87
1019.65	213.85
1019.93	213.90
1020.22	213.94
1020.51	214.03
1020.79	214.02
1021.08	214.25
1021.36	213.60
1021.65	213.55
1021.94	214.01
1022.22	213.64
1022.51	213.65
1022.79	214.92
1023.08	214.34
1023.36	215.96
1023.65	213.57
>>>>>End Processed Spectral Data<<<<<
