SpectraSuite Data File
++++++++++++++++++++++++++++++++++++
Date: Tue Jan 29 16:23:26 EST 2013
User: group
Dark Spectrum Present: No
Reference Spectrum Present: No
Number of Sampled Component Spectra: 1
Spectrometers: USB2E7196
Integration Time (usec): 65000 (USB2E7196)
Spectra Averaged: 100 (USB2E7196)
Boxcar Smoothing: 10 (USB2E7196)
Correct for Electrical Dark: No (USB2E7196)
Strobe/Lamp Enabled: No (USB2E7196)
Correct for Detector Non-linearity: No (USB2E7196)
Correct for Stray Light: No (USB2E7196)
Number of Pixels in Processed Spectrum: 2048
>>>>>Begin Processed Spectral Data<<<<<
339.09	0.00
339.48	201.90
339.86	203.01
340.24	204.59
340.63	206.17
341.01	210.57
341.39	208.08
341.78	210.44
342.16	212.17
342.54	212.28
342.93	201.15
343.31	211.34
343.69	211.89
344.07	212.36
344.46	212.82
344.84	213.23
345.22	213.44
345.60	213.75
345.99	213.98
346.37	214.09
346.75	214.21
347.13	214.32
347.52	214.40
347.90	214.55
348.28	214.63
348.66	214.76
349.05	214.73
349.43	214.78
349.81	214.86
350.19	214.91
350.57	214.99
350.96	215.13
351.34	215.23
351.72	215.34
352.10	215.51
352.48	215.60
352.87	215.66
353.25	215.75
353.63	215.82
354.01	215.84
354.39	215.95
354.77	216.02
355.15	216.11
355.54	216.19
355.92	216.19
356.30	216.25
356.68	216.41
357.06	216.49
357.44	216.52
357.82	216.64
358.20	216.74
358.58	216.80
358.97	216.83
359.35	216.89
359.73	216.99
360.11	217.04
360.49	217.09
360.87	217.16
361.25	217.23
361.63	217.35
362.01	217.44
362.39	217.49
362.77	217.56
363.15	217.56
363.53	217.59
363.91	217.62
364.29	217.66
364.67	217.49
365.05	217.53
365.43	217.59
365.81	217.59
366.19	217.70
366.57	217.78
366.95	217.80
367.33	217.78
367.71	217.77
368.09	217.81
368.47	217.82
368.85	217.78
369.23	217.79
369.61	217.72
369.99	217.79
370.37	217.77
370.75	217.85
371.13	217.81
371.51	217.75
371.89	217.76
372.27	217.70
372.65	217.72
373.03	217.67
373.41	217.60
373.78	217.57
374.16	217.42
374.54	217.33
374.92	217.28
375.30	217.26
375.68	217.18
376.06	217.11
376.44	217.07
376.82	217.04
377.19	216.97
377.57	216.90
377.95	216.75
378.33	216.70
378.71	216.53
379.09	216.51
379.47	216.50
379.84	216.42
380.22	216.37
380.60	216.27
380.98	216.23
381.36	216.24
381.73	216.16
382.11	216.16
382.49	216.11
382.87	216.02
383.25	215.98
383.62	216.22
384.00	216.13
384.38	216.09
384.76	216.09
385.13	216.13
385.51	216.11
385.89	216.07
386.27	216.02
386.64	216.02
387.02	215.96
387.40	215.90
387.78	215.87
388.15	215.87
388.53	215.86
388.91	215.82
389.29	215.75
389.66	215.77
390.04	215.71
390.42	215.74
390.79	215.77
391.17	215.72
391.55	215.49
391.92	215.51
392.30	215.48
392.68	215.48
393.05	215.44
393.43	215.44
393.81	215.46
394.18	215.45
394.56	215.40
394.94	215.48
395.31	215.49
395.69	215.54
396.06	215.54
396.44	215.55
396.82	215.57
397.19	215.66
397.57	215.65
397.95	215.73
398.32	215.66
398.70	215.71
399.07	215.85
399.45	215.87
399.82	215.88
400.20	215.95
400.58	215.99
400.95	215.98
401.33	216.07
401.70	216.26
402.08	216.36
402.45	216.49
402.83	216.61
403.20	216.74
403.58	216.86
403.95	217.03
404.33	217.24
404.71	217.38
405.08	217.68
405.46	217.86
405.83	218.08
406.21	218.32
406.58	218.56
406.96	218.71
407.33	218.98
407.70	219.30
408.08	219.76
408.45	220.09
408.83	220.47
409.20	220.83
409.58	221.13
409.95	221.58
410.33	222.08
410.70	222.50
411.08	223.05
411.45	223.62
411.82	224.21
412.20	224.86
412.57	225.71
412.95	226.22
413.32	227.07
413.69	227.85
414.07	228.75
414.44	229.70
414.82	230.73
415.19	231.89
415.56	233.03
415.94	234.20
416.31	235.62
416.68	237.04
417.06	238.65
417.43	240.18
417.81	241.90
418.18	243.67
418.55	245.59
418.93	247.57
419.30	249.64
419.67	251.86
420.04	254.16
420.42	256.51
420.79	259.36
421.16	262.09
421.54	264.97
421.91	267.92
422.28	270.99
422.66	274.26
423.03	277.48
423.40	280.85
423.77	284.44
424.15	288.08
424.52	291.85
424.89	296.00
425.26	300.05
425.64	303.91
426.01	308.15
426.38	312.58
426.75	317.08
427.13	321.79
427.50	326.68
427.87	331.82
428.24	336.99
428.61	341.95
428.99	347.44
429.36	353.44
429.73	359.32
430.10	365.17
430.47	371.22
430.85	377.49
431.22	384.15
431.59	391.15
431.96	397.88
432.33	405.38
432.70	412.57
433.08	421.06
433.45	429.08
433.82	437.05
434.19	445.93
434.56	454.63
434.93	462.92
435.30	471.21
435.68	480.25
436.05	489.18
436.42	498.01
436.79	506.08
437.16	514.84
437.53	524.00
437.90	533.13
438.27	542.01
438.64	551.15
439.01	559.66
439.38	567.25
439.75	574.56
440.13	582.85
440.50	590.73
440.87	597.11
441.24	603.70
441.61	610.99
441.98	616.28
442.35	622.55
442.72	628.81
443.09	634.79
443.46	638.56
443.83	641.02
444.20	643.16
444.57	646.38
444.94	647.80
445.31	649.27
445.68	650.59
446.05	651.21
446.42	650.46
446.79	649.44
447.16	648.38
447.53	647.61
447.90	644.40
448.27	641.07
448.64	636.46
449.01	633.13
449.37	627.26
449.74	621.66
450.11	614.76
450.48	607.39
450.85	599.96
451.22	593.49
451.59	587.42
451.96	581.65
452.33	573.71
452.70	566.61
453.07	558.13
453.43	549.58
453.80	541.37
454.17	533.39
454.54	525.92
454.91	517.77
455.28	509.85
455.65	502.41
456.02	495.01
456.38	488.67
456.75	480.86
457.12	474.37
457.49	467.85
457.86	461.72
458.23	456.41
458.59	450.57
458.96	444.62
459.33	439.36
459.70	434.06
460.07	429.88
460.43	425.02
460.80	420.55
461.17	416.60
461.54	412.33
461.91	408.33
462.27	404.29
462.64	400.90
463.01	397.15
463.38	393.54
463.74	389.89
464.11	386.69
464.48	383.88
464.85	380.76
465.21	378.38
465.58	375.77
465.95	372.62
466.32	369.97
466.68	367.41
467.05	364.84
467.42	362.27
467.78	359.61
468.15	357.07
468.52	355.12
468.88	352.64
469.25	350.52
469.62	348.75
469.98	346.74
470.35	344.92
470.72	343.23
471.08	341.43
471.45	339.92
471.82	338.38
472.18	336.72
472.55	335.54
472.92	334.14
473.28	332.91
473.65	331.82
474.02	330.73
474.38	329.84
474.75	329.10
475.11	328.28
475.48	327.74
475.85	327.28
476.21	326.79
476.58	326.44
476.94	326.20
477.31	325.85
477.67	325.64
478.04	325.49
478.41	325.44
478.77	325.61
479.14	325.57
479.50	325.69
479.87	325.99
480.23	326.34
480.60	326.59
480.96	326.87
481.33	327.49
481.69	328.07
482.06	328.60
482.42	329.08
482.79	329.66
483.15	330.44
483.52	331.41
483.88	332.31
484.25	333.27
484.61	334.30
484.98	335.42
485.34	336.78
485.71	338.16
486.07	339.60
486.44	340.88
486.80	342.49
487.17	344.22
487.53	346.10
487.90	347.95
488.26	350.06
488.62	352.27
488.99	354.28
489.35	356.44
489.72	358.82
490.08	361.36
490.44	363.95
490.81	366.70
491.17	369.44
491.54	372.47
491.90	375.51
492.26	378.77
492.63	382.20
492.99	385.67
493.36	389.39
493.72	393.31
494.08	397.35
494.45	401.59
494.81	405.94
495.17	410.37
495.54	415.13
495.90	419.92
496.26	424.89
496.63	430.13
496.99	435.56
497.35	441.12
497.72	446.97
498.08	452.93
498.44	459.03
498.80	465.44
499.17	472.01
499.53	478.70
499.89	485.62
500.26	492.61
500.62	499.70
500.98	507.14
501.34	514.64
501.71	522.45
502.07	530.29
502.43	538.31
502.79	546.56
503.16	554.97
503.52	563.64
503.88	572.42
504.24	581.40
504.60	590.52
504.97	599.79
505.33	609.15
505.69	619.13
506.05	629.09
506.41	639.01
506.78	649.11
507.14	659.47
507.50	670.03
507.86	680.93
508.22	691.88
508.59	702.67
508.95	713.83
509.31	725.14
509.67	736.76
510.03	748.27
510.39	760.07
510.75	772.06
511.12	784.09
511.48	796.36
511.84	808.77
512.20	821.22
512.56	834.01
512.92	846.94
513.28	859.68
513.64	872.47
514.00	885.45
514.37	898.56
514.73	911.83
515.09	924.89
515.45	937.80
515.81	950.92
516.17	964.30
516.53	977.61
516.89	990.79
517.25	1004.08
517.61	1017.72
517.97	1031.21
518.33	1044.40
518.69	1057.94
519.05	1071.69
519.41	1085.41
519.77	1099.40
520.13	1112.80
520.49	1126.07
520.85	1139.54
521.21	1153.00
521.57	1166.79
521.93	1179.91
522.29	1193.69
522.65	1207.56
523.01	1221.33
523.37	1234.59
523.73	1248.05
524.09	1261.41
524.45	1274.99
524.81	1288.53
525.17	1302.08
525.53	1315.31
525.89	1328.70
526.25	1342.10
526.61	1355.06
526.97	1368.28
527.33	1381.32
527.68	1394.93
528.04	1408.38
528.40	1421.65
528.76	1435.09
529.12	1448.04
529.48	1461.54
529.84	1473.94
530.20	1486.72
530.56	1499.44
530.91	1512.83
531.27	1525.81
531.63	1538.59
531.99	1551.47
532.35	1563.84
532.71	1576.29
533.07	1589.33
533.42	1601.73
533.78	1613.84
534.14	1625.89
534.50	1637.23
534.86	1648.89
535.21	1659.83
535.57	1671.52
535.93	1682.90
536.29	1694.06
536.65	1705.61
537.00	1716.57
537.36	1728.11
537.72	1739.15
538.08	1750.51
538.44	1761.45
538.79	1772.64
539.15	1783.78
539.51	1794.63
539.87	1806.02
540.22	1816.95
540.58	1827.88
540.94	1838.84
541.29	1849.15
541.65	1859.00
542.01	1869.66
542.37	1879.82
542.72	1890.03
543.08	1899.82
543.44	1910.31
543.79	1919.67
544.15	1929.18
544.51	1939.27
544.87	1949.12
545.22	1958.38
545.58	1967.32
545.94	1976.33
546.29	1984.82
546.65	1993.09
547.01	2001.43
547.36	2009.19
547.72	2017.01
548.07	2024.72
548.43	2032.58
548.79	2040.54
549.14	2048.72
549.50	2057.12
549.86	2064.94
550.21	2072.45
550.57	2080.29
550.92	2087.11
551.28	2094.58
551.64	2101.72
551.99	2109.20
552.35	2116.34
552.70	2123.29
553.06	2130.04
553.41	2136.36
553.77	2142.92
554.13	2149.40
554.48	2156.44
554.84	2163.53
555.19	2169.95
555.55	2176.44
555.90	2182.55
556.26	2189.36
556.61	2195.63
556.97	2200.51
557.32	2206.42
557.68	2212.82
558.03	2218.63
558.39	2224.03
558.74	2230.12
559.10	2235.83
559.45	2241.48
559.81	2247.17
560.16	2252.74
560.52	2258.63
560.87	2265.03
561.23	2271.00
561.58	2277.70
561.94	2282.97
562.29	2287.74
562.64	2294.01
563.00	2299.67
563.35	2305.50
563.71	2311.35
564.06	2316.96
564.42	2322.95
564.77	2328.04
565.12	2333.52
565.48	2338.64
565.83	2344.22
566.19	2349.72
566.54	2355.19
566.89	2359.99
567.25	2364.68
567.60	2370.44
567.96	2375.66
568.31	2380.36
568.66	2384.72
569.02	2388.74
569.37	2392.64
569.72	2397.19
570.08	2400.72
570.43	2403.85
570.78	2406.98
571.14	2409.48
571.49	2412.77
571.84	2416.51
572.20	2419.53
572.55	2422.52
572.90	2424.88
573.26	2427.75
573.61	2430.36
573.96	2432.54
574.31	2434.56
574.67	2436.44
575.02	2437.34
575.37	2438.81
575.72	2439.55
576.08	2441.08
576.43	2441.11
576.78	2441.62
577.13	2443.22
577.49	2444.51
577.84	2445.81
578.19	2447.19
578.54	2447.90
578.90	2448.66
579.25	2448.54
579.60	2448.66
579.95	2447.86
580.30	2448.00
580.66	2447.31
581.01	2445.70
581.36	2443.42
581.71	2441.99
582.06	2440.91
582.42	2440.07
582.77	2438.04
583.12	2436.53
583.47	2435.17
583.82	2434.82
584.17	2433.64
584.53	2431.60
584.88	2429.56
585.23	2427.71
585.58	2425.59
585.93	2423.62
586.28	2421.55
586.63	2419.14
586.98	2416.92
587.34	2415.08
587.69	2412.66
588.04	2410.78
588.39	2409.50
588.74	2407.16
589.09	2404.46
589.44	2401.33
589.79	2398.77
590.14	2396.81
590.49	2393.99
590.84	2390.17
591.19	2387.13
591.54	2383.77
591.89	2379.78
592.25	2376.55
592.60	2372.21
592.95	2367.98
593.30	2363.83
593.65	2359.40
594.00	2354.86
594.35	2351.93
594.70	2347.33
595.05	2343.02
595.40	2337.45
595.75	2331.72
596.10	2328.05
596.45	2323.28
596.80	2318.74
597.15	2313.61
597.50	2307.65
597.85	2302.77
598.19	2297.65
598.54	2291.73
598.89	2286.56
599.24	2281.83
599.59	2275.57
599.94	2269.91
600.29	2263.89
600.64	2257.97
600.99	2251.20
601.34	2245.82
601.69	2238.68
602.04	2232.27
602.39	2225.55
602.74	2219.45
603.08	2213.76
603.43	2207.17
603.78	2200.28
604.13	2193.15
604.48	2185.82
604.83	2179.67
605.18	2173.48
605.53	2166.59
605.87	2159.61
606.22	2152.71
606.57	2144.87
606.92	2136.83
607.27	2129.95
607.62	2123.30
607.96	2116.34
608.31	2109.85
608.66	2102.03
609.01	2094.38
609.36	2087.08
609.70	2079.16
610.05	2071.31
610.40	2062.96
610.75	2054.58
611.10	2046.82
611.44	2037.71
611.79	2028.97
612.14	2019.00
612.49	2008.09
612.83	1998.56
613.18	1989.14
613.53	1979.86
613.88	1970.09
614.22	1961.53
614.57	1951.48
614.92	1940.91
615.27	1930.41
615.61	1920.14
615.96	1910.44
616.31	1900.77
616.65	1891.41
617.00	1881.68
617.35	1871.88
617.70	1862.01
618.04	1851.96
618.39	1841.71
618.74	1832.12
619.08	1822.33
619.43	1813.53
619.78	1805.26
620.12	1796.54
620.47	1786.85
620.82	1776.30
621.16	1766.61
621.51	1756.45
621.85	1746.43
622.20	1735.86
622.55	1725.38
622.89	1715.32
623.24	1705.50
623.59	1695.65
623.93	1685.47
624.28	1675.55
624.62	1665.51
624.97	1655.18
625.32	1645.16
625.66	1636.15
626.01	1627.35
626.35	1617.89
626.70	1607.70
627.04	1597.39
627.39	1587.08
627.73	1577.78
628.08	1568.82
628.43	1559.04
628.77	1549.81
629.12	1540.78
629.46	1532.92
629.81	1524.39
630.15	1514.87
630.50	1504.96
630.84	1494.19
631.19	1484.04
631.53	1474.65
631.88	1464.30
632.22	1454.13
632.57	1444.72
632.91	1434.52
633.26	1424.43
633.60	1414.77
633.95	1405.38
634.29	1395.81
634.64	1386.50
634.98	1376.39
635.32	1366.96
635.67	1358.38
636.01	1349.07
636.36	1339.24
636.70	1329.68
637.05	1320.19
637.39	1311.08
637.73	1302.36
638.08	1294.88
638.42	1286.66
638.77	1277.83
639.11	1269.54
639.45	1261.64
639.80	1253.03
640.14	1244.17
640.49	1235.35
640.83	1226.46
641.17	1218.17
641.52	1209.91
641.86	1201.18
642.20	1193.21
642.55	1184.39
642.89	1175.39
643.23	1166.46
643.58	1158.20
643.92	1148.91
644.26	1140.17
644.61	1131.53
644.95	1122.59
645.29	1113.21
645.64	1103.79
645.98	1095.04
646.32	1087.08
646.66	1078.48
647.01	1069.99
647.35	1061.66
647.69	1053.19
648.04	1044.71
648.38	1035.64
648.72	1026.77
649.06	1018.15
649.41	1009.77
649.75	1001.83
650.09	993.76
650.43	985.64
650.78	977.24
651.12	969.54
651.46	961.97
651.80	954.61
652.14	947.21
652.49	939.49
652.83	932.09
653.17	924.27
653.51	916.41
653.85	909.07
654.20	901.79
654.54	894.26
654.88	886.85
655.22	879.61
655.56	872.58
655.90	865.74
656.25	859.00
656.59	852.06
656.93	844.92
657.27	837.74
657.61	830.68
657.95	824.46
658.29	818.33
658.64	812.13
658.98	805.60
659.32	798.87
659.66	792.65
660.00	786.23
660.34	780.19
660.68	773.98
661.02	767.44
661.36	761.33
661.70	755.53
662.05	749.82
662.39	744.24
662.73	738.77
663.07	733.27
663.41	727.59
663.75	721.74
664.09	715.90
664.43	710.52
664.77	705.16
665.11	699.33
665.45	693.33
665.79	687.42
666.13	681.67
666.47	676.16
666.81	670.67
667.15	665.22
667.49	659.87
667.83	654.54
668.17	649.29
668.51	644.14
668.85	639.09
669.19	634.21
669.53	629.13
669.87	623.97
670.21	619.17
670.55	614.43
670.89	609.98
671.23	605.63
671.57	601.07
671.91	596.73
672.25	592.47
672.58	588.32
672.92	584.21
673.26	580.23
673.60	576.32
673.94	572.44
674.28	568.82
674.62	565.07
674.96	561.25
675.30	557.78
675.64	554.04
675.97	550.42
676.31	546.73
676.65	543.01
676.99	539.51
677.33	535.57
677.67	531.87
678.01	527.90
678.34	524.19
678.68	520.65
679.02	517.00
679.36	513.30
679.70	509.60
680.04	506.01
680.37	502.52
680.71	499.15
681.05	495.96
681.39	492.60
681.73	489.32
682.06	486.29
682.40	483.09
682.74	479.87
683.08	476.66
683.42	473.41
683.75	470.38
684.09	467.30
684.43	464.53
684.77	461.57
685.10	458.74
685.44	455.83
685.78	452.87
686.12	450.01
686.45	447.24
686.79	444.56
687.13	441.99
687.46	439.37
687.80	436.63
688.14	433.70
688.48	431.06
688.81	428.33
689.15	425.70
689.49	423.07
689.82	420.52
690.16	417.79
690.50	415.31
690.83	412.85
691.17	410.27
691.51	407.75
691.84	405.39
692.18	403.18
692.52	400.96
692.85	398.84
693.19	396.68
693.52	394.52
693.86	392.22
694.20	389.98
694.53	387.82
694.87	385.59
695.21	383.46
695.54	381.27
695.88	379.14
696.21	376.93
696.55	374.74
696.88	372.72
697.22	370.79
697.56	368.83
697.89	366.88
698.23	365.09
698.56	363.27
698.90	361.52
699.23	359.59
699.57	357.65
699.90	355.72
700.24	353.84
700.58	352.05
700.91	350.45
701.25	348.90
701.58	347.28
701.92	345.70
702.25	344.01
702.59	342.38
702.92	340.78
703.26	339.20
703.59	337.79
703.93	336.45
704.26	334.99
704.60	333.54
704.93	332.03
705.26	330.53
705.60	329.06
705.93	327.51
706.27	326.17
706.60	324.90
706.94	323.70
707.27	322.39
707.61	321.04
707.94	319.64
708.27	318.07
708.61	316.56
708.94	315.16
709.28	313.88
709.61	312.60
709.94	311.41
710.28	310.20
710.61	308.93
710.95	307.47
711.28	306.33
711.61	305.11
711.95	304.01
712.28	302.81
712.61	301.60
712.95	300.55
713.28	299.46
713.61	298.32
713.95	297.15
714.28	296.07
714.61	295.04
714.95	294.02
715.28	292.97
715.61	291.97
715.95	291.01
716.28	290.06
716.61	289.09
716.95	288.06
717.28	287.12
717.61	286.22
717.94	285.34
718.28	284.34
718.61	283.42
718.94	282.47
719.27	281.64
719.61	280.81
719.94	279.92
720.27	278.99
720.60	278.08
720.94	277.23
721.27	276.50
721.60	275.74
721.93	275.02
722.27	274.43
722.60	273.80
722.93	273.08
723.26	272.39
723.59	271.67
723.93	271.04
724.26	270.34
724.59	269.65
724.92	269.01
725.25	268.44
725.59	267.92
725.92	267.38
726.25	266.78
726.58	266.22
726.91	265.63
727.24	265.09
727.57	264.58
727.91	263.96
728.24	263.42
728.57	262.87
728.90	262.31
729.23	261.67
729.56	261.21
729.89	260.69
730.22	260.10
730.55	259.60
730.89	259.05
731.22	258.58
731.55	258.05
731.88	257.53
732.21	256.96
732.54	256.38
732.87	255.87
733.20	255.38
733.53	254.89
733.86	254.47
734.19	253.93
734.52	253.49
734.85	253.22
735.18	252.73
735.51	252.34
735.84	251.87
736.17	251.48
736.50	250.93
736.83	250.72
737.16	250.39
737.49	250.00
737.82	249.58
738.15	249.20
738.48	248.83
738.81	248.44
739.14	248.01
739.47	247.61
739.80	247.22
740.13	246.88
740.46	246.49
740.79	246.06
741.12	245.73
741.45	245.34
741.78	244.88
742.11	244.58
742.44	244.19
742.77	243.90
743.10	243.53
743.43	243.19
743.75	242.65
744.08	242.55
744.41	242.17
744.74	241.84
745.07	241.47
745.40	241.15
745.73	240.90
746.06	240.65
746.39	240.39
746.71	240.08
747.04	239.69
747.37	239.37
747.70	239.08
748.03	238.77
748.36	238.52
748.68	238.22
749.01	237.87
749.34	237.58
749.67	237.26
750.00	237.00
750.33	236.87
750.65	236.61
750.98	236.07
751.31	235.86
751.64	235.62
751.97	235.47
752.29	235.19
752.62	234.83
752.95	234.55
753.28	234.25
753.60	233.97
753.93	233.82
754.26	233.60
754.59	233.36
754.91	233.13
755.24	232.89
755.57	232.65
755.90	232.43
756.22	232.17
756.55	231.98
756.88	231.70
757.20	231.35
757.53	231.05
757.86	230.85
758.19	230.61
758.51	230.39
758.84	230.08
759.17	229.88
759.49	229.71
759.82	229.61
760.15	229.47
760.47	229.28
760.80	229.03
761.13	228.86
761.45	228.63
761.78	228.46
762.11	228.27
762.43	228.11
762.76	227.89
763.08	227.75
763.41	227.55
763.74	227.42
764.06	227.28
764.39	227.16
764.71	226.99
765.04	226.83
765.37	226.68
765.69	226.54
766.02	226.41
766.34	226.26
766.67	226.04
767.00	225.93
767.32	225.95
767.65	225.96
767.97	225.81
768.30	225.71
768.62	225.55
768.95	225.43
769.27	225.29
769.60	225.25
769.92	225.08
770.25	224.98
770.57	224.82
770.90	224.67
771.22	224.53
771.55	224.45
771.87	224.34
772.20	224.20
772.52	224.28
772.85	224.40
773.17	224.31
773.50	224.19
773.82	224.04
774.15	223.80
774.47	223.58
774.80	223.48
775.12	223.37
775.45	223.30
775.77	223.19
776.09	223.08
776.42	222.96
776.74	222.95
777.07	222.79
777.39	222.73
777.72	222.65
778.04	222.59
778.36	222.45
778.69	222.39
779.01	222.32
779.33	222.05
779.66	221.76
779.98	221.67
780.31	221.62
780.63	221.61
780.95	221.61
781.28	221.51
781.60	221.43
781.92	221.34
782.25	221.23
782.57	221.18
782.89	221.14
783.22	221.04
783.54	220.90
783.86	220.85
784.19	220.75
784.51	220.76
784.83	220.68
785.16	220.64
785.48	220.57
785.80	220.52
786.12	220.51
786.45	220.45
786.77	220.43
787.09	220.34
787.42	220.20
787.74	220.14
788.06	220.10
788.38	220.02
788.71	219.98
789.03	219.93
789.35	219.87
789.67	219.78
789.99	219.75
790.32	219.70
790.64	219.71
790.96	219.85
791.28	219.73
791.61	219.66
791.93	219.63
792.25	219.57
792.57	219.67
792.89	219.57
793.21	219.54
793.54	219.44
793.86	219.38
794.18	219.37
794.50	219.28
794.82	219.24
795.14	219.22
795.47	219.21
795.79	219.22
796.11	219.16
796.43	219.12
796.75	219.07
797.07	219.04
797.39	219.00
797.71	218.78
798.04	218.74
798.36	218.72
798.68	218.70
799.00	218.68
799.32	218.52
799.64	218.49
799.96	218.41
800.28	218.44
800.60	218.41
800.92	218.39
801.24	218.34
801.56	218.31
801.89	218.26
802.21	218.26
802.53	218.16
802.85	218.17
803.17	218.26
803.49	218.20
803.81	218.14
804.13	218.07
804.45	218.04
804.77	218.05
805.09	218.03
805.41	217.94
805.73	217.88
806.05	217.79
806.37	217.77
806.69	217.74
807.01	217.67
807.33	217.64
807.65	217.50
807.97	217.55
808.28	217.49
808.60	217.46
808.92	217.38
809.24	217.51
809.56	217.45
809.88	217.31
810.20	217.30
810.52	217.31
810.84	217.26
811.16	217.18
811.48	217.14
811.80	217.16
812.12	217.15
812.43	217.15
812.75	217.16
813.07	217.12
813.39	217.12
813.71	217.08
814.03	217.05
814.35	217.05
814.67	216.97
814.98	216.95
815.30	216.90
815.62	216.82
815.94	216.64
816.26	216.63
816.58	216.58
816.89	216.58
817.21	216.51
817.53	216.52
817.85	216.53
818.17	216.50
818.48	216.41
818.80	216.43
819.12	216.39
819.44	216.33
819.76	216.29
820.07	216.28
820.39	216.23
820.71	216.20
821.03	216.19
821.34	216.18
821.66	216.21
821.98	216.24
822.30	216.22
822.61	216.31
822.93	216.26
823.25	216.25
823.57	216.18
823.88	216.22
824.20	216.19
824.52	216.21
824.83	216.18
825.15	216.16
825.47	216.17
825.79	216.20
826.10	216.17
826.42	216.16
826.74	216.14
827.05	216.13
827.37	216.12
827.69	216.12
828.00	216.10
828.32	216.08
828.64	216.04
828.95	216.17
829.27	216.13
829.58	216.10
829.90	216.12
830.22	216.16
830.53	216.07
830.85	216.07
831.17	216.01
831.48	216.01
831.80	216.00
832.11	215.96
832.43	215.93
832.75	215.93
833.06	216.08
833.38	215.99
833.69	215.99
834.01	216.01
834.32	216.00
834.64	216.00
834.96	215.97
835.27	215.96
835.59	215.90
835.90	215.83
836.22	215.84
836.53	215.80
836.85	215.74
837.16	215.96
837.48	215.94
837.79	215.97
838.11	215.94
838.42	215.95
838.74	215.95
839.05	215.88
839.37	215.88
839.68	215.70
840.00	215.72
840.31	215.78
840.63	215.74
840.94	215.71
841.26	215.66
841.57	215.64
841.88	215.64
842.20	215.58
842.51	215.55
842.83	215.53
843.14	215.72
843.46	215.69
843.77	215.55
844.08	215.53
844.40	215.47
844.71	215.47
845.03	215.41
845.34	215.39
845.65	215.39
845.97	215.38
846.28	215.37
846.60	215.38
846.91	215.31
847.22	215.32
847.54	215.37
847.85	215.39
848.16	215.40
848.48	215.36
848.79	215.44
849.10	215.46
849.42	215.46
849.73	215.26
850.04	215.26
850.36	215.17
850.67	215.20
850.98	215.21
851.30	215.23
851.61	215.22
851.92	215.18
852.23	215.24
852.55	215.21
852.86	215.26
853.17	215.27
853.49	215.31
853.80	215.34
854.11	215.35
854.42	215.35
854.74	215.27
855.05	215.27
855.36	215.18
855.67	215.19
855.99	215.19
856.30	215.44
856.61	215.46
856.92	215.51
857.23	215.49
857.55	215.46
857.86	215.42
858.17	215.44
858.48	215.46
858.79	215.40
859.11	215.42
859.42	215.39
859.73	215.35
860.04	215.33
860.35	215.22
860.66	215.13
860.98	215.08
861.29	215.13
861.60	215.11
861.91	215.10
862.22	215.05
862.53	215.02
862.84	214.76
863.16	214.81
863.47	214.75
863.78	214.73
864.09	214.77
864.40	214.79
864.71	214.79
865.02	214.78
865.33	214.76
865.64	214.72
865.95	214.72
866.27	214.88
866.58	214.89
866.89	214.98
867.20	215.01
867.51	214.99
867.82	214.97
868.13	215.04
868.44	215.01
868.75	215.08
869.06	215.10
869.37	215.14
869.68	215.07
869.99	215.11
870.30	215.09
870.61	215.10
870.92	215.06
871.23	215.06
871.54	215.07
871.85	215.13
872.16	215.16
872.47	215.16
872.78	215.01
873.09	215.00
873.40	214.94
873.71	214.98
874.02	215.01
874.33	215.00
874.64	214.95
874.95	215.01
875.26	214.91
875.56	214.88
875.87	214.85
876.18	214.83
876.49	215.01
876.80	215.04
877.11	214.98
877.42	215.02
877.73	215.01
878.04	214.97
878.35	214.97
878.66	214.98
878.96	214.93
879.27	214.93
879.58	214.91
879.89	214.90
880.20	214.94
880.51	214.91
880.82	214.92
881.12	214.94
881.43	214.90
881.74	214.92
882.05	214.95
882.36	214.95
882.67	215.03
882.97	214.83
883.28	214.80
883.59	214.82
883.90	214.85
884.21	214.90
884.51	214.90
884.82	214.86
885.13	214.86
885.44	214.91
885.74	214.89
886.05	214.86
886.36	214.88
886.67	214.80
886.98	214.90
887.28	214.91
887.59	214.92
887.90	214.89
888.20	214.88
888.51	214.91
888.82	214.88
889.13	214.89
889.43	215.04
889.74	215.04
890.05	215.00
890.35	214.96
890.66	214.93
890.97	214.91
891.28	214.87
891.58	214.86
891.89	214.87
892.20	214.86
892.50	214.85
892.81	214.83
893.12	214.85
893.42	214.76
893.73	214.76
894.04	214.79
894.34	214.85
894.65	214.82
894.95	214.80
895.26	214.81
895.57	214.86
895.87	214.66
896.18	214.71
896.48	214.76
896.79	214.73
897.10	214.73
897.40	214.74
897.71	214.77
898.01	214.77
898.32	214.77
898.63	214.79
898.93	214.80
899.24	214.80
899.54	214.76
899.85	214.75
900.15	214.76
900.46	214.72
900.76	214.74
901.07	214.75
901.38	214.72
901.68	214.73
901.99	214.62
902.29	214.65
902.60	214.60
902.90	214.56
903.21	214.57
903.51	214.56
903.82	214.61
904.12	214.64
904.43	214.65
904.73	214.64
905.03	214.63
905.34	214.81
905.64	214.80
905.95	214.82
906.25	214.83
906.56	214.82
906.86	214.81
907.17	214.77
907.47	214.81
907.77	214.75
908.08	214.74
908.38	214.76
908.69	214.78
908.99	214.84
909.30	214.87
909.60	214.86
909.90	214.88
910.21	214.83
910.51	214.80
910.81	214.83
911.12	214.83
911.42	214.87
911.73	214.68
912.03	214.69
912.33	214.71
912.64	214.69
912.94	214.67
913.24	214.63
913.55	214.61
913.85	214.55
914.15	214.63
914.46	214.65
914.76	214.61
915.06	214.59
915.37	214.53
915.67	214.52
915.97	214.49
916.27	214.45
916.58	214.45
916.88	214.39
917.18	214.37
917.49	214.54
917.79	214.50
918.09	214.52
918.39	214.59
918.70	214.58
919.00	214.58
919.30	214.66
919.60	214.66
919.91	214.68
920.21	214.72
920.51	214.66
920.81	214.65
921.12	214.71
921.42	214.72
921.72	214.74
922.02	214.73
922.32	214.79
922.63	214.78
922.93	214.87
923.23	214.96
923.53	214.93
923.83	214.76
924.13	214.77
924.44	214.80
924.74	214.83
925.04	214.87
925.34	214.89
925.64	214.81
925.94	214.87
926.24	214.98
926.55	214.94
926.85	214.99
927.15	214.99
927.45	214.98
927.75	214.97
928.05	214.99
928.35	214.98
928.65	215.00
928.95	215.05
929.26	214.96
929.56	214.98
929.86	214.98
930.16	214.95
930.46	214.95
930.76	214.93
931.06	214.82
931.36	214.77
931.66	214.82
931.96	214.83
932.26	214.80
932.56	214.69
932.86	214.75
933.16	214.72
933.46	214.70
933.76	214.67
934.06	214.71
934.36	214.77
934.66	214.74
934.96	214.72
935.26	214.74
935.56	214.75
935.86	214.67
936.16	214.65
936.46	214.65
936.76	214.65
937.06	214.61
937.36	214.65
937.66	214.65
937.96	214.61
938.26	214.56
938.56	214.57
938.86	214.58
939.16	214.62
939.46	214.65
939.76	214.69
940.06	214.68
940.35	214.62
940.65	214.50
940.95	214.54
941.25	214.50
941.55	214.43
941.85	214.45
942.15	214.52
942.45	214.55
942.75	214.55
943.04	214.55
943.34	214.63
943.64	214.60
943.94	214.56
944.24	214.57
944.54	214.59
944.84	214.57
945.13	214.54
945.43	214.49
945.73	214.47
946.03	214.43
946.33	214.42
946.62	214.38
946.92	214.40
947.22	214.43
947.52	214.45
947.82	214.50
948.11	214.47
948.41	214.43
948.71	214.38
949.01	214.41
949.31	214.39
949.60	214.36
949.90	214.41
950.20	214.38
950.50	214.36
950.79	214.34
951.09	214.38
951.39	214.39
951.69	214.37
951.98	214.44
952.28	214.45
952.58	214.41
952.87	214.43
953.17	214.46
953.47	214.42
953.76	214.43
954.06	214.39
954.36	214.34
954.66	214.33
954.95	214.39
955.25	214.41
955.55	214.45
955.84	214.38
956.14	214.36
956.44	214.41
956.73	214.38
957.03	214.42
957.32	214.43
957.62	214.39
957.92	214.44
958.21	214.38
958.51	214.60
958.81	214.65
959.10	214.63
959.40	214.69
959.69	214.71
959.99	214.70
960.29	214.71
960.58	214.70
960.88	214.75
961.17	214.71
961.47	214.71
961.76	214.67
962.06	214.73
962.36	214.74
962.65	214.73
962.95	214.72
963.24	214.70
963.54	214.65
963.83	214.68
964.13	214.67
964.42	214.63
964.72	214.48
965.01	214.50
965.31	214.52
965.60	214.43
965.90	214.54
966.19	214.47
966.49	214.48
966.78	214.51
967.08	214.52
967.37	214.57
967.67	214.51
967.96	214.53
968.26	214.54
968.55	214.54
968.85	214.56
969.14	214.56
969.43	214.57
969.73	214.55
970.02	214.57
970.32	214.55
970.61	214.55
970.91	214.47
971.20	214.45
971.49	214.42
971.79	214.46
972.08	214.32
972.38	214.39
972.67	214.36
972.96	214.37
973.26	214.34
973.55	214.38
973.85	214.37
974.14	214.36
974.43	214.33
974.73	214.29
975.02	214.25
975.31	214.25
975.61	214.24
975.90	214.22
976.19	214.17
976.49	214.22
976.78	214.20
977.07	214.21
977.37	214.22
977.66	214.26
977.95	214.24
978.24	214.28
978.54	214.30
978.83	214.30
979.12	214.30
979.42	214.31
979.71	214.22
980.00	214.23
980.29	214.24
980.59	214.23
980.88	214.31
981.17	214.30
981.46	214.33
981.76	214.35
982.05	214.43
982.34	214.47
982.63	214.43
982.93	214.44
983.22	214.50
983.51	214.51
983.80	214.54
984.09	214.52
984.39	214.49
984.68	214.45
984.97	214.48
985.26	214.46
985.55	214.45
985.85	214.45
986.14	214.48
986.43	214.50
986.72	214.48
987.01	214.42
987.30	214.39
987.59	214.35
987.89	214.30
988.18	214.22
988.47	214.19
988.76	214.17
989.05	214.17
989.34	214.12
989.63	214.16
989.92	214.12
990.22	214.13
990.51	214.15
990.80	214.16
991.09	214.17
991.38	214.20
991.67	214.20
991.96	214.18
992.25	214.18
992.54	214.15
992.83	214.17
993.12	214.14
993.41	214.21
993.70	214.31
993.99	214.35
994.28	214.41
994.58	214.42
994.87	214.41
995.16	214.42
995.45	214.42
995.74	214.35
996.03	214.39
996.32	214.40
996.61	214.41
996.90	214.39
997.19	214.37
997.48	214.36
997.77	214.33
998.06	214.37
998.34	214.34
998.63	214.32
998.92	214.32
999.21	214.37
999.50	214.37
999.79	214.31
1000.08	214.35
1000.37	214.33
1000.66	214.34
1000.95	214.35
1001.24	214.33
1001.53	214.36
1001.82	214.32
1002.11	214.23
1002.40	214.27
1002.68	214.31
1002.97	214.46
1003.26	214.43
1003.55	214.40
1003.84	214.41
1004.13	214.46
1004.42	214.49
1004.71	214.51
1004.99	214.53
1005.28	214.55
1005.57	214.53
1005.86	214.51
1006.15	214.49
1006.44	214.47
1006.72	214.50
1007.01	214.51
1007.30	214.55
1007.59	214.54
1007.88	214.59
1008.17	214.66
1008.45	214.58
1008.74	214.52
1009.03	214.43
1009.32	214.44
1009.60	214.45
1009.89	214.45
1010.18	214.38
1010.47	214.36
1010.76	214.36
1011.04	214.33
1011.33	214.34
1011.62	214.36
1011.91	214.38
1012.19	214.41
1012.48	214.40
1012.77	214.38
1013.05	214.48
1013.34	214.46
1013.63	214.44
1013.92	214.44
1014.20	214.42
1014.49	214.48
1014.78	214.48
1015.06	214.44
1015.35	214.45
1015.64	214.48
1015.92	214.49
1016.21	214.51
1016.50	214.50
1016.78	214.49
1017.07	214.52
1017.36	214.48
1017.64	214.44
1017.93	214.45
1018.22	214.41
1018.50	214.39
1018.79	214.41
1019.08	214.28
1019.36	214.30
1019.65	214.28
1019.93	214.32
1020.22	214.35
1020.51	214.39
1020.79	214.40
1021.08	214.16
1021.36	213.71
1021.65	214.49
1021.94	214.15
1022.22	214.33
1022.51	213.85
1022.79	215.19
1023.08	214.76
1023.36	216.05
1023.65	214.17
>>>>>End Processed Spectral Data<<<<<
