SpectraSuite Data File
++++++++++++++++++++++++++++++++++++
Date: Tue Jan 29 16:41:03 EST 2013
User: group
Dark Spectrum Present: No
Reference Spectrum Present: No
Number of Sampled Component Spectra: 1
Spectrometers: USB2E7196
Integration Time (usec): 65000 (USB2E7196)
Spectra Averaged: 100 (USB2E7196)
Boxcar Smoothing: 10 (USB2E7196)
Correct for Electrical Dark: No (USB2E7196)
Strobe/Lamp Enabled: No (USB2E7196)
Correct for Detector Non-linearity: No (USB2E7196)
Correct for Stray Light: No (USB2E7196)
Number of Pixels in Processed Spectrum: 2048
>>>>>Begin Processed Spectral Data<<<<<
339.09	0.00
339.48	201.99
339.86	203.53
340.24	204.81
340.63	205.95
341.01	210.20
341.39	209.16
341.78	210.60
342.16	211.71
342.54	212.36
342.93	201.30
343.31	211.47
343.69	212.03
344.07	212.52
344.46	212.97
344.84	213.37
345.22	213.58
345.60	213.86
345.99	214.08
346.37	214.21
346.75	214.35
347.13	214.44
347.52	214.52
347.90	214.60
348.28	214.64
348.66	214.70
349.05	214.63
349.43	214.68
349.81	214.74
350.19	214.77
350.57	214.83
350.96	214.92
351.34	215.01
351.72	215.11
352.10	215.16
352.48	215.22
352.87	215.29
353.25	215.33
353.63	215.36
354.01	215.43
354.39	215.51
354.77	215.51
355.15	215.63
355.54	215.67
355.92	215.66
356.30	215.69
356.68	215.87
357.06	215.97
357.44	216.01
357.82	216.08
358.20	216.14
358.58	216.20
358.97	216.27
359.35	216.36
359.73	216.45
360.11	216.53
360.49	216.57
360.87	216.58
361.25	216.63
361.63	216.73
362.01	216.75
362.39	216.78
362.77	216.86
363.15	216.86
363.53	216.91
363.91	216.95
364.29	216.98
364.67	216.79
365.05	216.83
365.43	216.86
365.81	216.87
366.19	216.99
366.57	217.07
366.95	217.07
367.33	217.01
367.71	216.98
368.09	217.02
368.47	217.04
368.85	217.08
369.23	217.13
369.61	217.09
369.99	217.14
370.37	217.15
370.75	217.24
371.13	217.20
371.51	217.13
371.89	217.12
372.27	217.10
372.65	217.12
373.03	217.12
373.41	217.05
373.78	217.01
374.16	216.84
374.54	216.73
374.92	216.66
375.30	216.66
375.68	216.63
376.06	216.58
376.44	216.55
376.82	216.52
377.19	216.49
377.57	216.41
377.95	216.30
378.33	216.24
378.71	216.09
379.09	216.07
379.47	216.05
379.84	216.00
380.22	215.93
380.60	215.86
380.98	215.79
381.36	215.76
381.73	215.73
382.11	215.75
382.49	215.72
382.87	215.66
383.25	215.58
383.62	215.74
384.00	215.67
384.38	215.61
384.76	215.58
385.13	215.59
385.51	215.56
385.89	215.51
386.27	215.47
386.64	215.47
387.02	215.40
387.40	215.39
387.78	215.39
388.15	215.41
388.53	215.40
388.91	215.36
389.29	215.30
389.66	215.30
390.04	215.25
390.42	215.29
390.79	215.33
391.17	215.36
391.55	215.16
391.92	215.18
392.30	215.16
392.68	215.11
393.05	215.06
393.43	215.07
393.81	215.07
394.18	215.02
394.56	214.99
394.94	215.05
395.31	215.01
395.69	215.04
396.06	215.08
396.44	215.10
396.82	215.10
397.19	215.25
397.57	215.26
397.95	215.35
398.32	215.30
398.70	215.31
399.07	215.36
399.45	215.38
399.82	215.40
400.20	215.46
400.58	215.53
400.95	215.53
401.33	215.66
401.70	215.86
402.08	216.00
402.45	216.11
402.83	216.21
403.20	216.32
403.58	216.42
403.95	216.53
404.33	216.70
404.71	216.87
405.08	217.13
405.46	217.29
405.83	217.45
406.21	217.66
406.58	217.91
406.96	218.15
407.33	218.40
407.70	218.69
408.08	219.16
408.45	219.52
408.83	219.93
409.20	220.26
409.58	220.55
409.95	221.00
410.33	221.51
410.70	221.94
411.08	222.49
411.45	223.08
411.82	223.69
412.20	224.35
412.57	225.19
412.95	225.75
413.32	226.57
413.69	227.40
414.07	228.30
414.44	229.26
414.82	230.29
415.19	231.47
415.56	232.66
415.94	233.80
416.31	235.21
416.68	236.62
417.06	238.27
417.43	239.84
417.81	241.55
418.18	243.36
418.55	245.35
418.93	247.41
419.30	249.53
419.67	251.75
420.04	254.07
420.42	256.42
420.79	259.27
421.16	262.05
421.54	265.01
421.91	268.04
422.28	271.20
422.66	274.51
423.03	277.78
423.40	281.18
423.77	284.81
424.15	288.49
424.52	292.31
424.89	296.46
425.26	300.55
425.64	304.46
426.01	308.73
426.38	313.25
426.75	317.79
427.13	322.53
427.50	327.58
427.87	332.80
428.24	338.00
428.61	343.01
428.99	348.54
429.36	354.57
429.73	360.48
430.10	366.36
430.47	372.42
430.85	378.76
431.22	385.48
431.59	392.66
431.96	399.48
432.33	407.04
432.70	414.30
433.08	422.86
433.45	430.98
433.82	439.04
434.19	447.94
434.56	456.69
434.93	465.08
435.30	473.37
435.68	482.53
436.05	491.55
436.42	500.54
436.79	508.78
437.16	517.60
437.53	526.93
437.90	536.09
438.27	545.13
438.64	554.35
439.01	562.87
439.38	570.45
439.75	577.83
440.13	586.33
440.50	594.33
440.87	600.80
441.24	607.41
441.61	614.74
441.98	620.07
442.35	626.38
442.72	632.73
443.09	638.82
443.46	642.57
443.83	645.16
444.20	647.34
444.57	650.51
444.94	651.93
445.31	653.40
445.68	654.81
446.05	655.40
446.42	654.67
446.79	653.78
447.16	652.73
447.53	651.96
447.90	648.63
448.27	645.29
448.64	640.64
449.01	637.38
449.37	631.46
449.74	625.81
450.11	618.89
450.48	611.46
450.85	603.98
451.22	597.48
451.59	591.33
451.96	585.48
452.33	577.58
452.70	570.52
453.07	562.00
453.43	553.38
453.80	545.04
454.17	537.02
454.54	529.41
454.91	521.15
455.28	513.08
455.65	505.60
456.02	498.07
456.38	491.68
456.75	483.69
457.12	477.11
457.49	470.58
457.86	464.36
458.23	458.93
458.59	452.92
458.96	446.87
459.33	441.51
459.70	436.09
460.07	431.78
460.43	426.76
460.80	422.13
461.17	418.13
461.54	413.93
461.91	409.88
462.27	405.72
462.64	402.27
463.01	398.57
463.38	394.84
463.74	391.12
464.11	387.87
464.48	385.13
464.85	382.04
465.21	379.60
465.58	377.03
465.95	373.85
466.32	371.25
466.68	368.64
467.05	366.05
467.42	363.49
467.78	360.83
468.15	358.30
468.52	356.40
468.88	353.87
469.25	351.61
469.62	349.81
469.98	347.86
470.35	346.07
470.72	344.33
471.08	342.52
471.45	341.00
471.82	339.44
472.18	337.69
472.55	336.49
472.92	335.09
473.28	333.84
473.65	332.66
474.02	331.53
474.38	330.64
474.75	329.90
475.11	329.04
475.48	328.44
475.85	327.94
476.21	327.39
476.58	327.03
476.94	326.79
477.31	326.45
477.67	326.19
478.04	326.03
478.41	325.98
478.77	326.12
479.14	326.07
479.50	326.19
479.87	326.48
480.23	326.75
480.60	326.95
480.96	327.22
481.33	327.84
481.69	328.42
482.06	328.91
482.42	329.32
482.79	329.92
483.15	330.69
483.52	331.64
483.88	332.55
484.25	333.48
484.61	334.51
484.98	335.59
485.34	336.92
485.71	338.29
486.07	339.71
486.44	341.08
486.80	342.71
487.17	344.42
487.53	346.28
487.90	348.18
488.26	350.28
488.62	352.47
488.99	354.50
489.35	356.65
489.72	359.03
490.08	361.59
490.44	364.20
490.81	366.91
491.17	369.66
491.54	372.63
491.90	375.68
492.26	378.90
492.63	382.33
492.99	385.81
493.36	389.45
493.72	393.28
494.08	397.29
494.45	401.55
494.81	405.92
495.17	410.36
495.54	415.08
495.90	419.86
496.26	424.79
496.63	430.03
496.99	435.51
497.35	441.09
497.72	446.92
498.08	452.84
498.44	458.96
498.80	465.35
499.17	471.85
499.53	478.56
499.89	485.49
500.26	492.42
500.62	499.49
500.98	506.94
501.34	514.47
501.71	522.26
502.07	530.10
502.43	538.13
502.79	546.27
503.16	554.66
503.52	563.29
503.88	571.99
504.24	580.96
504.60	590.01
504.97	599.25
505.33	608.54
505.69	618.41
506.05	628.33
506.41	638.25
506.78	648.37
507.14	658.65
507.50	669.12
507.86	679.87
508.22	690.71
508.59	701.48
508.95	712.60
509.31	723.86
509.67	735.30
510.03	746.67
510.39	758.38
510.75	770.21
511.12	782.11
511.48	794.22
511.84	806.54
512.20	818.88
512.56	831.55
512.92	844.35
513.28	857.00
513.64	869.78
514.00	882.63
514.37	895.70
514.73	908.86
515.09	921.88
515.45	934.83
515.81	947.93
516.17	961.25
516.53	974.54
516.89	987.70
517.25	1001.01
517.61	1014.54
517.97	1028.06
518.33	1041.27
518.69	1054.90
519.05	1068.72
519.41	1082.37
519.77	1096.36
520.13	1109.85
520.49	1123.10
520.85	1136.56
521.21	1149.99
521.57	1163.84
521.93	1176.86
522.29	1190.58
522.65	1204.33
523.01	1218.05
523.37	1231.32
523.73	1244.73
524.09	1257.99
524.45	1271.57
524.81	1284.97
525.17	1298.42
525.53	1311.66
525.89	1325.08
526.25	1338.21
526.61	1351.12
526.97	1364.28
527.33	1377.36
527.68	1390.85
528.04	1404.52
528.40	1417.68
528.76	1431.03
529.12	1443.89
529.48	1457.34
529.84	1469.80
530.20	1482.73
530.56	1495.38
530.91	1508.68
531.27	1521.70
531.63	1534.54
531.99	1547.32
532.35	1559.76
532.71	1572.37
533.07	1585.31
533.42	1597.65
533.78	1609.93
534.14	1622.10
534.50	1633.47
534.86	1645.05
535.21	1655.98
535.57	1667.57
535.93	1679.05
536.29	1690.25
536.65	1701.86
537.00	1713.04
537.36	1724.43
537.72	1735.46
538.08	1747.01
538.44	1758.15
538.79	1769.28
539.15	1780.25
539.51	1791.18
539.87	1802.68
540.22	1813.55
540.58	1824.72
540.94	1835.82
541.29	1846.20
541.65	1856.11
542.01	1866.75
542.37	1876.96
542.72	1887.18
543.08	1896.97
543.44	1907.51
543.79	1917.01
544.15	1926.57
544.51	1936.60
544.87	1946.57
545.22	1955.82
545.58	1964.82
545.94	1973.81
546.29	1982.37
546.65	1990.85
547.01	1999.21
547.36	2006.93
547.72	2014.83
548.07	2022.41
548.43	2030.26
548.79	2038.23
549.14	2046.42
549.50	2054.94
549.86	2062.97
550.21	2070.58
550.57	2078.33
550.92	2085.24
551.28	2092.73
551.64	2099.97
551.99	2107.46
552.35	2114.79
552.70	2121.78
553.06	2128.38
553.41	2134.72
553.77	2141.30
554.13	2147.63
554.48	2154.60
554.84	2161.73
555.19	2168.27
555.55	2174.74
555.90	2181.04
556.26	2187.79
556.61	2194.01
556.97	2198.89
557.32	2204.57
557.68	2210.95
558.03	2216.75
558.39	2222.21
558.74	2228.19
559.10	2233.79
559.45	2239.27
559.81	2244.85
560.16	2250.30
560.52	2256.18
560.87	2262.53
561.23	2268.41
561.58	2275.06
561.94	2280.17
562.29	2284.82
562.64	2290.86
563.00	2296.54
563.35	2301.95
563.71	2307.65
564.06	2313.28
564.42	2319.38
564.77	2324.48
565.12	2329.75
565.48	2334.88
565.83	2340.36
566.19	2345.66
566.54	2350.94
566.89	2355.61
567.25	2360.08
567.60	2365.88
567.96	2371.16
568.31	2375.76
568.66	2380.09
569.02	2384.15
569.37	2387.87
569.72	2392.28
570.08	2395.67
570.43	2398.66
570.78	2401.81
571.14	2404.36
571.49	2407.33
571.84	2410.58
572.20	2413.39
572.55	2416.24
572.90	2418.46
573.26	2421.05
573.61	2423.59
573.96	2425.68
574.31	2427.65
574.67	2429.50
575.02	2430.08
575.37	2431.33
575.72	2431.80
576.08	2433.07
576.43	2432.99
576.78	2433.40
577.13	2434.91
577.49	2436.14
577.84	2437.06
578.19	2438.31
578.54	2438.77
578.90	2439.35
579.25	2439.22
579.60	2438.90
579.95	2437.93
580.30	2437.70
580.66	2436.87
581.01	2435.00
581.36	2432.42
581.71	2430.79
582.06	2429.51
582.42	2428.61
582.77	2426.23
583.12	2424.49
583.47	2422.93
583.82	2422.16
584.17	2420.74
584.53	2418.40
584.88	2416.12
585.23	2414.12
585.58	2411.62
585.93	2409.43
586.28	2407.09
586.63	2404.46
586.98	2402.38
587.34	2400.38
587.69	2397.96
588.04	2395.67
588.39	2394.17
588.74	2391.68
589.09	2388.90
589.44	2385.55
589.79	2382.91
590.14	2380.87
590.49	2377.84
590.84	2373.96
591.19	2370.70
591.54	2367.52
591.89	2363.31
592.25	2359.77
592.60	2355.46
592.95	2351.23
593.30	2347.06
593.65	2342.61
594.00	2338.20
594.35	2334.96
594.70	2330.24
595.05	2325.73
595.40	2320.26
595.75	2314.43
596.10	2310.68
596.45	2305.68
596.80	2301.07
597.15	2295.75
597.50	2289.74
597.85	2284.80
598.19	2279.49
598.54	2273.75
598.89	2268.27
599.24	2263.67
599.59	2257.50
599.94	2251.60
600.29	2245.55
600.64	2239.52
600.99	2232.59
601.34	2226.92
601.69	2219.96
602.04	2213.73
602.39	2206.81
602.74	2200.74
603.08	2195.26
603.43	2188.70
603.78	2181.83
604.13	2174.73
604.48	2167.43
604.83	2161.18
605.18	2154.92
605.53	2147.93
605.87	2140.77
606.22	2134.13
606.57	2126.19
606.92	2118.25
607.27	2111.26
607.62	2104.70
607.96	2097.67
608.31	2091.33
608.66	2083.72
609.01	2075.98
609.36	2068.70
609.70	2061.09
610.05	2053.16
610.40	2044.73
610.75	2036.37
611.10	2028.65
611.44	2019.68
611.79	2010.96
612.14	2001.12
612.49	1990.43
612.83	1981.15
613.18	1971.91
613.53	1962.52
613.88	1952.98
614.22	1944.37
614.57	1934.61
614.92	1923.85
615.27	1913.54
615.61	1903.29
615.96	1893.37
616.31	1883.86
616.65	1874.34
617.00	1864.46
617.35	1854.79
617.70	1845.04
618.04	1835.03
618.39	1825.00
618.74	1815.37
619.08	1805.63
619.43	1796.78
619.78	1788.53
620.12	1779.92
620.47	1770.34
620.82	1759.93
621.16	1750.20
621.51	1740.35
621.85	1730.48
622.20	1720.23
622.55	1709.73
622.89	1699.96
623.24	1690.32
623.59	1680.48
623.93	1670.29
624.28	1660.68
624.62	1650.76
624.97	1640.52
625.32	1630.76
625.66	1621.80
626.01	1613.12
626.35	1603.99
626.70	1594.10
627.04	1584.03
627.39	1573.81
627.73	1564.61
628.08	1555.73
628.43	1546.13
628.77	1536.83
629.12	1527.96
629.46	1520.09
629.81	1511.84
630.15	1502.37
630.50	1492.55
630.84	1482.10
631.19	1472.39
631.53	1463.10
631.88	1452.91
632.22	1442.93
632.57	1433.57
632.91	1423.49
633.26	1413.58
633.60	1404.05
633.95	1394.76
634.29	1385.40
634.64	1376.22
634.98	1366.24
635.32	1357.01
635.67	1348.62
636.01	1339.40
636.36	1329.71
636.70	1320.27
637.05	1310.95
637.39	1301.98
637.73	1293.44
638.08	1285.93
638.42	1277.80
638.77	1269.07
639.11	1260.82
639.45	1253.16
639.80	1244.69
640.14	1235.95
640.49	1227.11
640.83	1218.13
641.17	1210.03
641.52	1201.83
641.86	1193.29
642.20	1185.46
642.55	1176.84
642.89	1168.04
643.23	1159.49
643.58	1151.38
643.92	1142.41
644.26	1133.70
644.61	1125.31
644.95	1116.49
645.29	1107.29
645.64	1098.07
645.98	1089.56
646.32	1081.70
646.66	1073.12
647.01	1064.84
647.35	1056.73
647.69	1048.43
648.04	1040.18
648.38	1031.30
648.72	1022.64
649.06	1014.12
649.41	1005.96
649.75	998.05
650.09	990.08
650.43	982.07
650.78	973.71
651.12	965.97
651.46	958.54
651.80	951.32
652.14	944.08
652.49	936.55
652.83	929.18
653.17	921.47
653.51	913.84
653.85	906.55
654.20	899.31
654.54	891.88
654.88	884.73
655.22	877.54
655.56	870.54
655.90	863.70
656.25	857.08
656.59	850.17
656.93	843.16
657.27	835.96
657.61	828.97
657.95	822.81
658.29	816.82
658.64	810.71
658.98	804.27
659.32	797.64
659.66	791.34
660.00	785.03
660.34	778.94
660.68	772.81
661.02	766.46
661.36	760.43
661.70	754.61
662.05	748.96
662.39	743.39
662.73	737.90
663.07	732.48
663.41	726.80
663.75	721.02
664.09	715.26
664.43	709.90
664.77	704.52
665.11	698.82
665.45	692.94
665.79	687.07
666.13	681.32
666.47	675.88
666.81	670.40
667.15	664.98
667.49	659.76
667.83	654.47
668.17	649.28
668.51	644.21
668.85	639.27
669.19	634.32
669.53	629.28
669.87	624.18
670.21	619.36
670.55	614.64
670.89	610.21
671.23	605.90
671.57	601.42
671.91	597.07
672.25	592.85
672.58	588.71
672.92	584.64
673.26	580.66
673.60	576.74
673.94	572.90
674.28	569.22
674.62	565.54
674.96	561.76
675.30	558.21
675.64	554.42
675.97	550.78
676.31	547.12
676.65	543.54
676.99	540.09
677.33	536.22
677.67	532.59
678.01	528.68
678.34	524.94
678.68	521.38
679.02	517.80
679.36	514.07
679.70	510.37
680.04	506.76
680.37	503.27
680.71	499.89
681.05	496.68
681.39	493.45
681.73	490.22
682.06	487.18
682.40	484.01
682.74	480.80
683.08	477.57
683.42	474.34
683.75	471.31
684.09	468.22
684.43	465.36
684.77	462.37
685.10	459.52
685.44	456.67
685.78	453.79
686.12	450.88
686.45	448.16
686.79	445.50
687.13	442.89
687.46	440.22
687.80	437.50
688.14	434.65
688.48	431.91
688.81	429.19
689.15	426.55
689.49	423.96
689.82	421.43
690.16	418.79
690.50	416.30
690.83	413.75
691.17	411.16
691.51	408.68
691.84	406.38
692.18	404.11
692.52	401.82
692.85	399.64
693.19	397.56
693.52	395.36
693.86	393.09
694.20	390.90
694.53	388.75
694.87	386.54
695.21	384.36
695.54	382.19
695.88	379.96
696.21	377.77
696.55	375.61
696.88	373.55
697.22	371.58
697.56	369.67
697.89	367.75
698.23	366.01
698.56	364.18
698.90	362.42
699.23	360.50
699.57	358.64
699.90	356.71
700.24	354.83
700.58	353.03
700.91	351.35
701.25	349.76
701.58	348.13
701.92	346.51
702.25	344.88
702.59	343.23
702.92	341.74
703.26	340.10
703.59	338.54
703.93	337.23
704.26	335.71
704.60	334.12
704.93	332.62
705.26	331.08
705.60	329.62
705.93	328.01
706.27	326.64
706.60	325.30
706.94	324.07
707.27	322.71
707.61	321.33
707.94	319.99
708.27	318.44
708.61	316.97
708.94	315.59
709.28	314.28
709.61	313.01
709.94	311.75
710.28	310.52
710.61	309.31
710.95	307.87
711.28	306.81
711.61	305.64
711.95	304.47
712.28	303.27
712.61	302.04
712.95	301.04
713.28	300.00
713.61	298.84
713.95	297.67
714.28	296.60
714.61	295.57
714.95	294.50
715.28	293.46
715.61	292.43
715.95	291.45
716.28	290.49
716.61	289.47
716.95	288.46
717.28	287.53
717.61	286.55
717.94	285.66
718.28	284.60
718.61	283.74
718.94	282.84
719.27	281.96
719.61	281.12
719.94	280.24
720.27	279.24
720.60	278.38
720.94	277.54
721.27	276.76
721.60	275.99
721.93	275.26
722.27	274.62
722.60	273.94
722.93	273.26
723.26	272.59
723.59	271.88
723.93	271.27
724.26	270.59
724.59	269.95
724.92	269.30
725.25	268.75
725.59	268.16
725.92	267.63
726.25	267.04
726.58	266.47
726.91	265.85
727.24	265.30
727.57	264.72
727.91	264.13
728.24	263.56
728.57	263.00
728.90	262.44
729.23	261.83
729.56	261.38
729.89	260.78
730.22	260.19
730.55	259.68
730.89	259.08
731.22	258.57
731.55	258.04
731.88	257.52
732.21	256.94
732.54	256.37
732.87	255.83
733.20	255.32
733.53	254.85
733.86	254.40
734.19	253.90
734.52	253.47
734.85	253.17
735.18	252.70
735.51	252.27
735.84	251.81
736.17	251.41
736.50	250.85
736.83	250.73
737.16	250.33
737.49	249.96
737.82	249.54
738.15	249.16
738.48	248.75
738.81	248.35
739.14	247.92
739.47	247.53
739.80	247.12
740.13	246.76
740.46	246.37
740.79	245.95
741.12	245.58
741.45	245.21
741.78	244.74
742.11	244.46
742.44	244.08
742.77	243.77
743.10	243.42
743.43	243.11
743.75	242.49
744.08	242.38
744.41	241.99
744.74	241.65
745.07	241.25
745.40	240.97
745.73	240.68
746.06	240.36
746.39	240.08
746.71	239.79
747.04	239.45
747.37	239.10
747.70	238.80
748.03	238.51
748.36	238.20
748.68	237.87
749.01	237.51
749.34	237.23
749.67	236.96
750.00	236.71
750.33	236.55
750.65	236.32
750.98	235.83
751.31	235.60
751.64	235.39
751.97	235.27
752.29	235.01
752.62	234.72
752.95	234.45
753.28	234.15
753.60	233.87
753.93	233.69
754.26	233.48
754.59	233.22
754.91	232.97
755.24	232.75
755.57	232.50
755.90	232.29
756.22	232.03
756.55	231.78
756.88	231.47
757.20	231.12
757.53	230.84
757.86	230.64
758.19	230.45
758.51	230.23
758.84	229.93
759.17	229.69
759.49	229.55
759.82	229.48
760.15	229.34
760.47	229.17
760.80	228.91
761.13	228.76
761.45	228.54
761.78	228.36
762.11	228.19
762.43	228.01
762.76	227.80
763.08	227.63
763.41	227.45
763.74	227.31
764.06	227.13
764.39	226.96
764.71	226.80
765.04	226.59
765.37	226.42
765.69	226.23
766.02	226.09
766.34	225.86
766.67	225.63
767.00	225.52
767.32	225.49
767.65	225.47
767.97	225.30
768.30	225.20
768.62	225.05
768.95	224.89
769.27	224.76
769.60	224.67
769.92	224.54
770.25	224.40
770.57	224.27
770.90	224.15
771.22	224.02
771.55	223.92
771.87	223.83
772.20	223.69
772.52	223.80
772.85	223.92
773.17	223.83
773.50	223.72
773.82	223.56
774.15	223.35
774.47	223.11
774.80	222.99
775.12	222.89
775.45	222.79
775.77	222.68
776.09	222.61
776.42	222.50
776.74	222.46
777.07	222.34
777.39	222.25
777.72	222.15
778.04	222.07
778.36	221.95
778.69	221.87
779.01	221.81
779.33	221.52
779.66	221.20
779.98	221.12
780.31	221.04
780.63	221.05
780.95	221.00
781.28	220.98
781.60	220.86
781.92	220.79
782.25	220.77
782.57	220.72
782.89	220.63
783.22	220.55
783.54	220.44
783.86	220.40
784.19	220.32
784.51	220.32
784.83	220.25
785.16	220.19
785.48	220.13
785.80	220.09
786.12	220.07
786.45	220.01
786.77	219.98
787.09	219.93
787.42	219.82
787.74	219.79
788.06	219.72
788.38	219.69
788.71	219.59
789.03	219.50
789.35	219.51
789.67	219.44
789.99	219.43
790.32	219.35
790.64	219.28
790.96	219.43
791.28	219.32
791.61	219.28
791.93	219.23
792.25	219.19
792.57	219.28
792.89	219.19
793.21	219.18
793.54	219.13
793.86	219.05
794.18	219.01
794.50	218.94
794.82	218.92
795.14	218.90
795.47	218.92
795.79	218.88
796.11	218.73
796.43	218.70
796.75	218.66
797.07	218.68
797.39	218.64
797.71	218.41
798.04	218.36
798.36	218.32
798.68	218.28
799.00	218.23
799.32	218.10
799.64	218.09
799.96	218.06
800.28	218.04
800.60	217.99
800.92	217.99
801.24	217.93
801.56	217.90
801.89	217.86
802.21	217.82
802.53	217.77
802.85	217.82
803.17	217.87
803.49	217.77
803.81	217.69
804.13	217.65
804.45	217.60
804.77	217.61
805.09	217.57
805.41	217.52
805.73	217.45
806.05	217.37
806.37	217.34
806.69	217.28
807.01	217.24
807.33	217.24
807.65	217.10
807.97	217.17
808.28	217.14
808.60	217.10
808.92	217.06
809.24	217.18
809.56	217.11
809.88	216.98
810.20	216.99
810.52	217.03
810.84	217.00
811.16	216.97
811.48	216.90
811.80	216.96
812.12	216.90
812.43	216.97
812.75	216.93
813.07	216.85
813.39	216.83
813.71	216.76
814.03	216.71
814.35	216.71
814.67	216.60
814.98	216.52
815.30	216.50
815.62	216.39
815.94	216.24
816.26	216.21
816.58	216.17
816.89	216.18
817.21	216.10
817.53	216.12
817.85	216.09
818.17	216.10
818.48	215.97
818.80	216.01
819.12	215.93
819.44	215.88
819.76	215.84
820.07	215.79
820.39	215.80
820.71	215.78
821.03	215.78
821.34	215.74
821.66	215.77
821.98	215.76
822.30	215.76
822.61	215.85
822.93	215.83
823.25	215.84
823.57	215.76
823.88	215.77
824.20	215.70
824.52	215.75
824.83	215.71
825.15	215.72
825.47	215.71
825.79	215.73
826.10	215.70
826.42	215.71
826.74	215.78
827.05	215.74
827.37	215.76
827.69	215.72
828.00	215.72
828.32	215.76
828.64	215.73
828.95	215.82
829.27	215.77
829.58	215.77
829.90	215.78
830.22	215.82
830.53	215.77
830.85	215.78
831.17	215.73
831.48	215.71
831.80	215.71
832.11	215.66
832.43	215.62
832.75	215.63
833.06	215.74
833.38	215.64
833.69	215.62
834.01	215.65
834.32	215.69
834.64	215.66
834.96	215.58
835.27	215.56
835.59	215.47
835.90	215.36
836.22	215.30
836.53	215.26
836.85	215.23
837.16	215.43
837.48	215.40
837.79	215.45
838.11	215.48
838.42	215.45
838.74	215.48
839.05	215.46
839.37	215.43
839.68	215.27
840.00	215.27
840.31	215.28
840.63	215.24
840.94	215.17
841.26	215.14
841.57	215.13
841.88	215.15
842.20	215.12
842.51	215.14
842.83	215.16
843.14	215.34
843.46	215.33
843.77	215.19
844.08	215.20
844.40	215.14
844.71	215.11
845.03	215.08
845.34	215.05
845.65	215.02
845.97	215.04
846.28	215.07
846.60	215.07
846.91	215.03
847.22	215.00
847.54	215.04
847.85	215.07
848.16	215.04
848.48	214.98
848.79	215.07
849.10	215.11
849.42	215.13
849.73	214.89
850.04	214.85
850.36	214.76
850.67	214.79
850.98	214.77
851.30	214.78
851.61	214.79
851.92	214.77
852.23	214.85
852.55	214.86
852.86	214.87
853.17	214.90
853.49	214.94
853.80	215.01
854.11	215.02
854.42	215.02
854.74	215.01
855.05	215.03
855.36	214.94
855.67	214.92
855.99	214.88
856.30	215.17
856.61	215.17
856.92	215.20
857.23	215.17
857.55	215.14
857.86	215.11
858.17	215.14
858.48	215.12
858.79	215.09
859.11	215.10
859.42	215.10
859.73	215.03
860.04	215.02
860.35	214.91
860.66	214.85
860.98	214.84
861.29	214.87
861.60	214.85
861.91	214.89
862.22	214.86
862.53	214.85
862.84	214.58
863.16	214.63
863.47	214.59
863.78	214.56
864.09	214.57
864.40	214.59
864.71	214.61
865.02	214.64
865.33	214.61
865.64	214.57
865.95	214.57
866.27	214.70
866.58	214.68
866.89	214.73
867.20	214.73
867.51	214.69
867.82	214.67
868.13	214.72
868.44	214.67
868.75	214.72
869.06	214.73
869.37	214.75
869.68	214.71
869.99	214.73
870.30	214.77
870.61	214.77
870.92	214.76
871.23	214.73
871.54	214.74
871.85	214.77
872.16	214.79
872.47	214.75
872.78	214.66
873.09	214.68
873.40	214.65
873.71	214.68
874.02	214.72
874.33	214.70
874.64	214.64
874.95	214.67
875.26	214.58
875.56	214.55
875.87	214.49
876.18	214.47
876.49	214.69
876.80	214.63
877.11	214.60
877.42	214.59
877.73	214.56
878.04	214.51
878.35	214.48
878.66	214.49
878.96	214.51
879.27	214.48
879.58	214.46
879.89	214.44
880.20	214.47
880.51	214.43
880.82	214.44
881.12	214.48
881.43	214.45
881.74	214.46
882.05	214.50
882.36	214.55
882.67	214.58
882.97	214.35
883.28	214.35
883.59	214.37
883.90	214.42
884.21	214.46
884.51	214.45
884.82	214.42
885.13	214.41
885.44	214.38
885.74	214.40
886.05	214.42
886.36	214.46
886.67	214.37
886.98	214.49
887.28	214.51
887.59	214.50
887.90	214.53
888.20	214.53
888.51	214.56
888.82	214.53
889.13	214.53
889.43	214.73
889.74	214.74
890.05	214.72
890.35	214.71
890.66	214.71
890.97	214.70
891.28	214.68
891.58	214.67
891.89	214.68
892.20	214.63
892.50	214.56
892.81	214.54
893.12	214.57
893.42	214.47
893.73	214.47
894.04	214.44
894.34	214.45
894.65	214.45
894.95	214.43
895.26	214.47
895.57	214.55
895.87	214.34
896.18	214.36
896.48	214.38
896.79	214.35
897.10	214.38
897.40	214.40
897.71	214.42
898.01	214.42
898.32	214.44
898.63	214.46
898.93	214.49
899.24	214.50
899.54	214.46
899.85	214.43
900.15	214.43
900.46	214.42
900.76	214.44
901.07	214.45
901.38	214.43
901.68	214.41
901.99	214.33
902.29	214.36
902.60	214.36
902.90	214.34
903.21	214.35
903.51	214.29
903.82	214.33
904.12	214.34
904.43	214.33
904.73	214.32
905.03	214.32
905.34	214.54
905.64	214.53
905.95	214.52
906.25	214.55
906.56	214.52
906.86	214.57
907.17	214.54
907.47	214.52
907.77	214.54
908.08	214.49
908.38	214.50
908.69	214.51
908.99	214.54
909.30	214.51
909.60	214.49
909.90	214.49
910.21	214.43
910.51	214.41
910.81	214.40
911.12	214.42
911.42	214.43
911.73	214.18
912.03	214.20
912.33	214.26
912.64	214.26
912.94	214.26
913.24	214.20
913.55	214.19
913.85	214.19
914.15	214.23
914.46	214.28
914.76	214.25
915.06	214.23
915.37	214.16
915.67	214.16
915.97	214.15
916.27	214.14
916.58	214.12
916.88	214.11
917.18	214.10
917.49	214.21
917.79	214.19
918.09	214.23
918.39	214.28
918.70	214.22
919.00	214.21
919.30	214.30
919.60	214.29
919.91	214.28
920.21	214.27
920.51	214.21
920.81	214.17
921.12	214.20
921.42	214.18
921.72	214.19
922.02	214.23
922.32	214.29
922.63	214.28
922.93	214.43
923.23	214.42
923.53	214.44
923.83	214.30
924.13	214.33
924.44	214.30
924.74	214.34
925.04	214.41
925.34	214.40
925.64	214.32
925.94	214.31
926.24	214.42
926.55	214.40
926.85	214.41
927.15	214.42
927.45	214.43
927.75	214.45
928.05	214.50
928.35	214.48
928.65	214.49
928.95	214.54
929.26	214.46
929.56	214.50
929.86	214.52
930.16	214.51
930.46	214.46
930.76	214.47
931.06	214.40
931.36	214.34
931.66	214.35
931.96	214.36
932.26	214.39
932.56	214.30
932.86	214.33
933.16	214.33
933.46	214.34
933.76	214.28
934.06	214.32
934.36	214.37
934.66	214.39
934.96	214.35
935.26	214.33
935.56	214.33
935.86	214.29
936.16	214.24
936.46	214.23
936.76	214.26
937.06	214.25
937.36	214.22
937.66	214.24
937.96	214.26
938.26	214.23
938.56	214.22
938.86	214.20
939.16	214.22
939.46	214.22
939.76	214.23
940.06	214.23
940.35	214.19
940.65	214.06
940.95	214.03
941.25	214.01
941.55	214.00
941.85	213.98
942.15	214.04
942.45	214.10
942.75	214.11
943.04	214.13
943.34	214.16
943.64	214.14
943.94	214.09
944.24	214.08
944.54	214.08
944.84	214.07
945.13	214.07
945.43	214.06
945.73	214.04
946.03	213.98
946.33	213.97
946.62	213.94
946.92	213.94
947.22	213.96
947.52	213.97
947.82	214.00
948.11	213.97
948.41	213.90
948.71	213.85
949.01	213.84
949.31	213.82
949.60	213.80
949.90	213.86
950.20	213.85
950.50	213.86
950.79	213.86
951.09	213.89
951.39	213.86
951.69	213.84
951.98	213.91
952.28	213.94
952.58	213.97
952.87	213.97
953.17	214.00
953.47	213.98
953.76	213.96
954.06	213.89
954.36	213.87
954.66	213.86
954.95	213.92
955.25	213.91
955.55	213.93
955.84	213.89
956.14	213.89
956.44	213.89
956.73	213.86
957.03	213.87
957.32	213.87
957.62	213.89
957.92	213.92
958.21	213.87
958.51	214.13
958.81	214.15
959.10	214.17
959.40	214.23
959.69	214.24
959.99	214.30
960.29	214.31
960.58	214.30
960.88	214.37
961.17	214.32
961.47	214.36
961.76	214.32
962.06	214.36
962.36	214.33
962.65	214.35
962.95	214.36
963.24	214.35
963.54	214.36
963.83	214.37
964.13	214.39
964.42	214.38
964.72	214.19
965.01	214.18
965.31	214.17
965.60	214.13
965.90	214.24
966.19	214.19
966.49	214.22
966.78	214.23
967.08	214.23
967.37	214.25
967.67	214.20
967.96	214.23
968.26	214.24
968.55	214.29
968.85	214.29
969.14	214.29
969.43	214.27
969.73	214.24
970.02	214.23
970.32	214.18
970.61	214.18
970.91	214.12
971.20	214.07
971.49	214.05
971.79	214.06
972.08	213.91
972.38	213.90
972.67	213.90
972.96	213.95
973.26	213.90
973.55	213.97
973.85	214.01
974.14	213.99
974.43	213.99
974.73	213.96
975.02	213.97
975.31	213.97
975.61	214.00
975.90	213.98
976.19	213.97
976.49	214.05
976.78	214.02
977.07	214.02
977.37	214.07
977.66	214.11
977.95	214.09
978.24	214.10
978.54	214.17
978.83	214.13
979.12	214.10
979.42	214.09
979.71	214.07
980.00	214.05
980.29	214.07
980.59	214.03
980.88	214.07
981.17	214.04
981.46	214.05
981.76	214.05
982.05	214.12
982.34	214.12
982.63	214.09
982.93	214.09
983.22	214.16
983.51	214.14
983.80	214.15
984.09	214.16
984.39	214.15
984.68	214.12
984.97	214.15
985.26	214.14
985.55	214.15
985.85	214.08
986.14	214.08
986.43	214.11
986.72	214.07
987.01	214.00
987.30	214.00
987.59	213.97
987.89	213.97
988.18	213.91
988.47	213.91
988.76	213.88
989.05	213.90
989.34	213.85
989.63	213.89
989.92	213.86
990.22	213.85
990.51	213.87
990.80	213.82
991.09	213.83
991.38	213.84
991.67	213.82
991.96	213.80
992.25	213.80
992.54	213.75
992.83	213.75
993.12	213.76
993.41	213.80
993.70	213.85
993.99	213.87
994.28	213.90
994.58	213.92
994.87	213.92
995.16	213.91
995.45	213.89
995.74	213.82
996.03	213.87
996.32	213.88
996.61	213.91
996.90	213.92
997.19	213.92
997.48	213.91
997.77	213.92
998.06	213.94
998.34	213.95
998.63	213.94
998.92	213.95
999.21	213.95
999.50	213.92
999.79	213.90
1000.08	213.89
1000.37	213.88
1000.66	213.83
1000.95	213.85
1001.24	213.84
1001.53	213.86
1001.82	213.86
1002.11	213.80
1002.40	213.86
1002.68	213.89
1002.97	214.05
1003.26	214.00
1003.55	213.99
1003.84	214.02
1004.13	214.10
1004.42	214.08
1004.71	214.11
1004.99	214.10
1005.28	214.17
1005.57	214.21
1005.86	214.15
1006.15	214.13
1006.44	214.09
1006.72	214.14
1007.01	214.13
1007.30	214.15
1007.59	214.15
1007.88	214.16
1008.17	214.17
1008.45	214.06
1008.74	213.99
1009.03	213.88
1009.32	213.92
1009.60	213.92
1009.89	213.89
1010.18	213.79
1010.47	213.81
1010.76	213.81
1011.04	213.82
1011.33	213.84
1011.62	213.84
1011.91	213.88
1012.19	213.88
1012.48	213.90
1012.77	213.90
1013.05	213.97
1013.34	213.99
1013.63	213.95
1013.92	213.97
1014.20	213.97
1014.49	214.02
1014.78	214.03
1015.06	213.98
1015.35	213.95
1015.64	213.98
1015.92	213.99
1016.21	214.02
1016.50	213.98
1016.78	214.01
1017.07	214.04
1017.36	213.97
1017.64	213.97
1017.93	213.94
1018.22	213.96
1018.50	213.96
1018.79	213.96
1019.08	213.88
1019.36	213.82
1019.65	213.78
1019.93	213.80
1020.22	213.81
1020.51	213.88
1020.79	213.85
1021.08	214.03
1021.36	213.46
1021.65	214.19
1021.94	213.99
1022.22	212.94
1022.51	212.62
1022.79	214.66
1023.08	213.72
1023.36	215.79
1023.65	213.17
>>>>>End Processed Spectral Data<<<<<
