SpectraSuite Data File
++++++++++++++++++++++++++++++++++++
Date: Tue Jan 29 16:55:48 EST 2013
User: group
Dark Spectrum Present: No
Reference Spectrum Present: No
Number of Sampled Component Spectra: 1
Spectrometers: USB2E7196
Integration Time (usec): 65000 (USB2E7196)
Spectra Averaged: 100 (USB2E7196)
Boxcar Smoothing: 10 (USB2E7196)
Correct for Electrical Dark: No (USB2E7196)
Strobe/Lamp Enabled: No (USB2E7196)
Correct for Detector Non-linearity: No (USB2E7196)
Correct for Stray Light: No (USB2E7196)
Number of Pixels in Processed Spectrum: 2048
>>>>>Begin Processed Spectral Data<<<<<
339.09	0.00
339.48	201.58
339.86	203.33
340.24	205.14
340.63	205.71
341.01	210.41
341.39	208.60
341.78	209.93
342.16	211.38
342.54	211.37
342.93	200.83
343.31	210.98
343.69	211.54
344.07	211.99
344.46	212.41
344.84	212.80
345.22	212.97
345.60	213.23
345.99	213.42
346.37	213.55
346.75	213.65
347.13	213.71
347.52	213.73
347.90	213.87
348.28	213.88
348.66	213.96
349.05	213.93
349.43	213.98
349.81	214.07
350.19	214.14
350.57	214.21
350.96	214.26
351.34	214.35
351.72	214.42
352.10	214.49
352.48	214.53
352.87	214.58
353.25	214.61
353.63	214.66
354.01	214.70
354.39	214.75
354.77	214.83
355.15	214.94
355.54	214.98
355.92	214.98
356.30	215.06
356.68	215.25
357.06	215.36
357.44	215.38
357.82	215.42
358.20	215.51
358.58	215.56
358.97	215.63
359.35	215.71
359.73	215.83
360.11	215.95
360.49	216.00
360.87	216.04
361.25	216.13
361.63	216.25
362.01	216.35
362.39	216.41
362.77	216.50
363.15	216.54
363.53	216.60
363.91	216.61
364.29	216.64
364.67	216.45
365.05	216.46
365.43	216.54
365.81	216.57
366.19	216.65
366.57	216.75
366.95	216.79
367.33	216.75
367.71	216.73
368.09	216.73
368.47	216.76
368.85	216.77
369.23	216.79
369.61	216.70
369.99	216.74
370.37	216.74
370.75	216.84
371.13	216.76
371.51	216.72
371.89	216.72
372.27	216.68
372.65	216.69
373.03	216.65
373.41	216.59
373.78	216.57
374.16	216.44
374.54	216.35
374.92	216.27
375.30	216.24
375.68	216.18
376.06	216.14
376.44	216.09
376.82	216.06
377.19	215.99
377.57	215.98
377.95	215.86
378.33	215.82
378.71	215.62
379.09	215.61
379.47	215.57
379.84	215.53
380.22	215.50
380.60	215.41
380.98	215.34
381.36	215.30
381.73	215.24
382.11	215.25
382.49	215.21
382.87	215.17
383.25	215.14
383.62	215.33
384.00	215.27
384.38	215.22
384.76	215.23
385.13	215.31
385.51	215.28
385.89	215.24
386.27	215.22
386.64	215.24
387.02	215.20
387.40	215.17
387.78	215.12
388.15	215.08
388.53	215.09
388.91	215.10
389.29	215.04
389.66	215.05
390.04	215.01
390.42	214.99
390.79	214.97
391.17	214.93
391.55	214.71
391.92	214.70
392.30	214.72
392.68	214.67
393.05	214.63
393.43	214.63
393.81	214.61
394.18	214.54
394.56	214.53
394.94	214.60
395.31	214.60
395.69	214.69
396.06	214.76
396.44	214.78
396.82	214.80
397.19	214.94
397.57	214.90
397.95	214.96
398.32	214.95
398.70	215.01
399.07	215.10
399.45	215.08
399.82	215.12
400.20	215.15
400.58	215.21
400.95	215.20
401.33	215.30
401.70	215.55
402.08	215.64
402.45	215.71
402.83	215.82
403.20	215.94
403.58	216.02
403.95	216.14
404.33	216.27
404.71	216.41
405.08	216.66
405.46	216.84
405.83	217.03
406.21	217.21
406.58	217.46
406.96	217.68
407.33	217.98
407.70	218.30
408.08	218.74
408.45	219.10
408.83	219.51
409.20	219.81
409.58	220.10
409.95	220.58
410.33	221.07
410.70	221.49
411.08	222.05
411.45	222.65
411.82	223.20
412.20	223.90
412.57	224.75
412.95	225.29
413.32	226.15
413.69	226.98
414.07	227.90
414.44	228.86
414.82	229.91
415.19	231.08
415.56	232.26
415.94	233.44
416.31	234.88
416.68	236.28
417.06	237.92
417.43	239.45
417.81	241.23
418.18	243.01
418.55	244.96
418.93	246.98
419.30	249.06
419.67	251.33
420.04	253.65
420.42	256.05
420.79	258.92
421.16	261.71
421.54	264.66
421.91	267.72
422.28	270.87
422.66	274.17
423.03	277.47
423.40	280.89
423.77	284.52
424.15	288.16
424.52	292.02
424.89	296.21
425.26	300.35
425.64	304.27
426.01	308.58
426.38	313.08
426.75	317.66
427.13	322.43
427.50	327.44
427.87	332.68
428.24	337.87
428.61	342.90
428.99	348.44
429.36	354.47
429.73	360.37
430.10	366.27
430.47	372.36
430.85	378.69
431.22	385.42
431.59	392.55
431.96	399.42
432.33	406.94
432.70	414.25
433.08	422.78
433.45	430.89
433.82	438.98
434.19	447.93
434.56	456.74
434.93	465.14
435.30	473.50
435.68	482.66
436.05	491.71
436.42	500.68
436.79	508.87
437.16	517.69
437.53	527.07
437.90	536.34
438.27	545.45
438.64	554.73
439.01	563.33
439.38	570.92
439.75	578.29
440.13	586.75
440.50	594.75
440.87	601.24
441.24	607.86
441.61	615.23
441.98	620.62
442.35	626.94
442.72	633.34
443.09	639.40
443.46	643.15
443.83	645.72
444.20	647.95
444.57	651.16
444.94	652.65
445.31	654.14
445.68	655.53
446.05	656.06
446.42	655.35
446.79	654.38
447.16	653.36
447.53	652.70
447.90	649.37
448.27	646.12
448.64	641.42
449.01	638.13
449.37	632.21
449.74	626.55
450.11	619.61
450.48	612.14
450.85	604.63
451.22	598.17
451.59	592.02
451.96	586.19
452.33	578.28
452.70	571.11
453.07	562.50
453.43	553.83
453.80	545.54
454.17	537.43
454.54	529.84
454.91	521.63
455.28	513.53
455.65	506.08
456.02	498.46
456.38	492.08
456.75	484.14
457.12	477.54
457.49	470.94
457.86	464.69
458.23	459.22
458.59	453.29
458.96	447.20
459.33	441.82
459.70	436.35
460.07	432.06
460.43	427.14
460.80	422.52
461.17	418.47
461.54	414.23
461.91	410.20
462.27	406.03
462.64	402.57
463.01	398.78
463.38	395.05
463.74	391.34
464.11	388.10
464.48	385.28
464.85	382.16
465.21	379.75
465.58	377.12
465.95	373.97
466.32	371.30
466.68	368.68
467.05	366.05
467.42	363.49
467.78	360.78
468.15	358.22
468.52	356.33
468.88	353.77
469.25	351.50
469.62	349.65
469.98	347.66
470.35	345.80
470.72	344.04
471.08	342.17
471.45	340.62
471.82	339.09
472.18	337.34
472.55	336.07
472.92	334.63
473.28	333.37
473.65	332.24
474.02	331.12
474.38	330.21
474.75	329.47
475.11	328.61
475.48	328.01
475.85	327.53
476.21	326.98
476.58	326.63
476.94	326.43
477.31	326.10
477.67	325.85
478.04	325.70
478.41	325.65
478.77	325.86
479.14	325.79
479.50	325.90
479.87	326.22
480.23	326.56
480.60	326.79
480.96	327.07
481.33	327.65
481.69	328.21
482.06	328.71
482.42	329.18
482.79	329.78
483.15	330.58
483.52	331.48
483.88	332.36
484.25	333.29
484.61	334.28
484.98	335.33
485.34	336.64
485.71	337.99
486.07	339.43
486.44	340.71
486.80	342.35
487.17	344.00
487.53	345.79
487.90	347.66
488.26	349.75
488.62	351.89
488.99	353.96
489.35	356.15
489.72	358.53
490.08	361.07
490.44	363.66
490.81	366.36
491.17	369.06
491.54	372.06
491.90	375.11
492.26	378.35
492.63	381.76
492.99	385.20
493.36	388.84
493.72	392.70
494.08	396.75
494.45	400.96
494.81	405.37
495.17	409.82
495.54	414.50
495.90	419.23
496.26	424.16
496.63	429.35
496.99	434.66
497.35	440.23
497.72	445.96
498.08	451.88
498.44	457.95
498.80	464.35
499.17	470.84
499.53	477.52
499.89	484.34
500.26	491.31
500.62	498.36
500.98	505.75
501.34	513.21
501.71	520.96
502.07	528.77
502.43	536.68
502.79	544.81
503.16	553.16
503.52	561.77
503.88	570.37
504.24	579.33
504.60	588.42
504.97	597.62
505.33	606.84
505.69	616.66
506.05	626.49
506.41	636.41
506.78	646.48
507.14	656.73
507.50	667.13
507.86	677.81
508.22	688.54
508.59	699.16
508.95	710.12
509.31	721.28
509.67	732.60
510.03	743.92
510.39	755.54
510.75	767.40
511.12	779.24
511.48	791.38
511.84	803.53
512.20	815.78
512.56	828.41
512.92	841.24
513.28	853.84
513.64	866.61
514.00	879.37
514.37	892.25
514.73	905.20
515.09	918.28
515.45	931.16
515.81	944.24
516.17	957.65
516.53	970.91
516.89	983.98
517.25	997.27
517.61	1010.81
517.97	1024.32
518.33	1037.41
518.69	1051.04
519.05	1064.73
519.41	1078.40
519.77	1092.33
520.13	1105.67
520.49	1118.78
520.85	1132.14
521.21	1145.46
521.57	1159.07
521.93	1172.13
522.29	1185.97
522.65	1199.52
523.01	1213.18
523.37	1226.29
523.73	1239.74
524.09	1252.94
524.45	1266.48
524.81	1279.95
525.17	1293.48
525.53	1306.65
525.89	1319.86
526.25	1332.96
526.61	1345.90
526.97	1359.05
527.33	1372.09
527.68	1385.50
528.04	1399.03
528.40	1412.31
528.76	1425.79
529.12	1438.77
529.48	1452.17
529.84	1464.49
530.20	1477.35
530.56	1489.93
530.91	1503.34
531.27	1516.11
531.63	1528.82
531.99	1541.54
532.35	1553.87
532.71	1566.24
533.07	1579.17
533.42	1591.64
533.78	1603.76
534.14	1615.88
534.50	1627.15
534.86	1638.72
535.21	1649.71
535.57	1661.27
535.93	1672.45
536.29	1683.49
536.65	1695.11
537.00	1706.18
537.36	1717.70
537.72	1728.73
538.08	1740.15
538.44	1751.28
538.79	1762.63
539.15	1773.68
539.51	1784.65
539.87	1796.05
540.22	1806.92
540.58	1817.98
540.94	1828.99
541.29	1839.43
541.65	1849.27
542.01	1859.83
542.37	1870.07
542.72	1880.26
543.08	1890.21
543.44	1900.88
543.79	1910.20
544.15	1919.64
544.51	1929.53
544.87	1939.44
545.22	1948.74
545.58	1957.88
545.94	1966.85
546.29	1975.13
546.65	1983.54
547.01	1991.69
547.36	1999.43
547.72	2007.18
548.07	2014.69
548.43	2022.45
548.79	2030.25
549.14	2038.47
549.50	2047.08
549.86	2054.95
550.21	2062.43
550.57	2070.15
550.92	2076.87
551.28	2084.47
551.64	2091.69
551.99	2099.18
552.35	2106.32
552.70	2113.37
553.06	2119.86
553.41	2126.05
553.77	2132.68
554.13	2139.10
554.48	2146.09
554.84	2153.25
555.19	2159.84
555.55	2166.23
555.90	2172.42
556.26	2179.28
556.61	2185.43
556.97	2190.25
557.32	2195.93
557.68	2202.21
558.03	2207.93
558.39	2213.41
558.74	2219.34
559.10	2224.74
559.45	2230.36
559.81	2235.90
560.16	2241.16
560.52	2247.03
560.87	2253.23
561.23	2258.94
561.58	2265.46
561.94	2270.78
562.29	2275.22
562.64	2281.13
563.00	2286.69
563.35	2292.27
563.71	2297.89
564.06	2303.44
564.42	2309.25
564.77	2314.23
565.12	2319.57
565.48	2324.51
565.83	2329.83
566.19	2334.86
566.54	2340.16
566.89	2344.54
567.25	2348.96
567.60	2354.70
567.96	2359.58
568.31	2364.15
568.66	2368.48
569.02	2372.28
569.37	2375.83
569.72	2380.22
570.08	2383.58
570.43	2386.74
570.78	2389.74
571.14	2392.05
571.49	2395.10
571.84	2398.42
572.20	2401.25
572.55	2404.06
572.90	2406.33
573.26	2408.98
573.61	2411.72
573.96	2413.89
574.31	2415.82
574.67	2417.69
575.02	2418.20
575.37	2419.72
575.72	2420.21
576.08	2421.49
576.43	2421.55
576.78	2421.74
577.13	2423.05
577.49	2424.19
577.84	2425.02
578.19	2425.89
578.54	2426.30
578.90	2426.69
579.25	2426.31
579.60	2426.06
579.95	2425.04
580.30	2424.92
580.66	2424.09
581.01	2422.13
581.36	2419.61
581.71	2418.02
582.06	2416.50
582.42	2415.33
582.77	2412.75
583.12	2410.85
583.47	2409.00
583.82	2408.24
584.17	2406.90
584.53	2404.65
584.88	2402.23
585.23	2400.08
585.58	2397.75
585.93	2395.71
586.28	2393.33
586.63	2390.66
586.98	2388.14
587.34	2386.01
587.69	2383.26
588.04	2380.83
588.39	2379.07
588.74	2376.24
589.09	2373.31
589.44	2369.89
589.79	2367.20
590.14	2364.97
590.49	2362.20
590.84	2358.33
591.19	2354.85
591.54	2351.42
591.89	2347.25
592.25	2343.82
592.60	2339.65
592.95	2335.39
593.30	2331.07
593.65	2326.66
594.00	2322.41
594.35	2319.41
594.70	2314.67
595.05	2310.14
595.40	2304.59
595.75	2298.78
596.10	2295.11
596.45	2290.33
596.80	2285.75
597.15	2280.65
597.50	2274.80
597.85	2269.64
598.19	2264.53
598.54	2258.78
598.89	2253.45
599.24	2248.80
599.59	2242.74
599.94	2236.70
600.29	2230.62
600.64	2224.59
600.99	2217.62
601.34	2211.91
601.69	2205.00
602.04	2198.57
602.39	2191.74
602.74	2185.64
603.08	2180.16
603.43	2173.74
603.78	2166.91
604.13	2159.84
604.48	2152.42
604.83	2146.15
605.18	2140.06
605.53	2133.24
605.87	2126.27
606.22	2119.58
606.57	2111.80
606.92	2103.90
607.27	2096.97
607.62	2090.52
607.96	2083.67
608.31	2077.35
608.66	2069.58
609.01	2061.77
609.36	2054.73
609.70	2047.16
610.05	2039.40
610.40	2031.03
610.75	2022.57
611.10	2014.59
611.44	2005.50
611.79	1996.84
612.14	1987.04
612.49	1976.31
612.83	1966.79
613.18	1957.34
613.53	1947.98
613.88	1938.31
614.22	1929.65
614.57	1919.83
614.92	1909.10
615.27	1898.71
615.61	1888.50
615.96	1878.90
616.31	1869.39
616.65	1859.72
617.00	1850.15
617.35	1840.56
617.70	1830.96
618.04	1821.11
618.39	1811.25
618.74	1801.88
619.08	1792.39
619.43	1783.77
619.78	1775.53
620.12	1767.06
620.47	1757.74
620.82	1747.50
621.16	1737.77
621.51	1727.96
621.85	1718.24
622.20	1708.19
622.55	1697.87
622.89	1687.92
623.24	1678.38
623.59	1668.64
623.93	1658.87
624.28	1649.08
624.62	1639.19
624.97	1629.01
625.32	1619.15
625.66	1610.22
626.01	1601.63
626.35	1592.41
626.70	1582.50
627.04	1572.69
627.39	1562.63
627.73	1553.45
628.08	1544.75
628.43	1535.34
628.77	1526.22
629.12	1517.51
629.46	1509.75
629.81	1501.63
630.15	1492.47
630.50	1482.74
630.84	1472.38
631.19	1462.47
631.53	1453.48
631.88	1443.45
632.22	1433.54
632.57	1424.42
632.91	1414.52
633.26	1404.75
633.60	1395.36
633.95	1386.19
634.29	1376.80
634.64	1367.59
634.98	1357.76
635.32	1348.58
635.67	1340.39
636.01	1331.15
636.36	1321.52
636.70	1312.04
637.05	1302.63
637.39	1293.83
637.73	1285.38
638.08	1277.98
638.42	1270.08
638.77	1261.25
639.11	1253.09
639.45	1245.51
639.80	1237.13
640.14	1228.53
640.49	1219.80
640.83	1210.95
641.17	1202.87
641.52	1194.86
641.86	1186.35
642.20	1178.68
642.55	1170.07
642.89	1161.12
643.23	1152.65
643.58	1144.56
643.92	1135.71
644.26	1127.21
644.61	1118.79
644.95	1109.99
645.29	1100.88
645.64	1091.79
645.98	1083.28
646.32	1075.47
646.66	1066.96
647.01	1058.74
647.35	1050.66
647.69	1042.51
648.04	1034.44
648.38	1025.63
648.72	1016.94
649.06	1008.70
649.41	1000.49
649.75	992.66
650.09	984.96
650.43	977.05
650.78	968.86
651.12	961.11
651.46	953.74
651.80	946.63
652.14	939.49
652.49	932.14
652.83	924.96
653.17	917.41
653.51	909.81
653.85	902.68
654.20	895.54
654.54	888.31
654.88	881.05
655.22	873.80
655.56	866.85
655.90	860.19
656.25	853.47
656.59	846.73
656.93	839.79
657.27	832.72
657.61	825.71
657.95	819.59
658.29	813.77
658.64	807.63
658.98	801.11
659.32	794.65
659.66	788.44
660.00	782.15
660.34	776.20
660.68	770.19
661.02	763.90
661.36	757.88
661.70	752.04
662.05	746.44
662.39	741.00
662.73	735.60
663.07	730.16
663.41	724.62
663.75	718.83
664.09	713.13
664.43	707.55
664.77	702.29
665.11	696.58
665.45	690.78
665.79	685.02
666.13	679.44
666.47	673.92
666.81	668.45
667.15	663.03
667.49	657.77
667.83	652.43
668.17	647.16
668.51	642.02
668.85	637.07
669.19	632.16
669.53	627.18
669.87	622.11
670.21	617.39
670.55	612.74
670.89	608.31
671.23	603.97
671.57	599.66
671.91	595.38
672.25	591.16
672.58	587.01
672.92	582.93
673.26	578.95
673.60	575.02
673.94	571.21
674.28	567.61
674.62	563.87
674.96	560.20
675.30	556.72
675.64	553.04
675.97	549.43
676.31	545.87
676.65	542.29
676.99	538.91
677.33	535.01
677.67	531.31
678.01	527.49
678.34	523.91
678.68	520.38
679.02	516.74
679.36	513.13
679.70	509.51
680.04	505.95
680.37	502.47
680.71	499.14
681.05	495.92
681.39	492.58
681.73	489.39
682.06	486.31
682.40	483.22
682.74	480.08
683.08	476.86
683.42	473.61
683.75	470.52
684.09	467.38
684.43	464.61
684.77	461.68
685.10	458.80
685.44	455.86
685.78	452.96
686.12	450.14
686.45	447.35
686.79	444.61
687.13	442.02
687.46	439.45
687.80	436.74
688.14	433.88
688.48	431.17
688.81	428.46
689.15	425.86
689.49	423.20
689.82	420.65
690.16	418.05
690.50	415.56
690.83	413.09
691.17	410.58
691.51	408.06
691.84	405.75
692.18	403.49
692.52	401.25
692.85	399.04
693.19	396.87
693.52	394.68
693.86	392.45
694.20	390.26
694.53	388.08
694.87	385.89
695.21	383.71
695.54	381.57
695.88	379.43
696.21	377.19
696.55	375.09
696.88	373.01
697.22	370.99
697.56	369.07
697.89	367.16
698.23	365.38
698.56	363.55
698.90	361.78
699.23	359.81
699.57	357.94
699.90	356.07
700.24	354.23
700.58	352.47
700.91	350.77
701.25	349.13
701.58	347.49
701.92	345.90
702.25	344.23
702.59	342.57
702.92	340.96
703.26	339.40
703.59	337.84
703.93	336.49
704.26	335.05
704.60	333.53
704.93	332.00
705.26	330.47
705.60	329.01
705.93	327.43
706.27	326.14
706.60	324.82
706.94	323.59
707.27	322.23
707.61	320.86
707.94	319.45
708.27	317.93
708.61	316.43
708.94	315.01
709.28	313.73
709.61	312.49
709.94	311.26
710.28	310.04
710.61	308.83
710.95	307.44
711.28	306.35
711.61	305.17
711.95	304.05
712.28	302.83
712.61	301.61
712.95	300.57
713.28	299.48
713.61	298.31
713.95	297.12
714.28	296.07
714.61	294.99
714.95	294.01
715.28	293.01
715.61	292.03
715.95	291.05
716.28	290.10
716.61	289.12
716.95	288.11
717.28	287.13
717.61	286.15
717.94	285.23
718.28	284.12
718.61	283.20
718.94	282.26
719.27	281.37
719.61	280.52
719.94	279.61
720.27	278.64
720.60	277.81
720.94	277.01
721.27	276.25
721.60	275.56
721.93	274.78
722.27	274.12
722.60	273.46
722.93	272.73
723.26	272.03
723.59	271.29
723.93	270.66
724.26	270.01
724.59	269.40
724.92	268.75
725.25	268.23
725.59	267.65
725.92	267.11
726.25	266.56
726.58	266.01
726.91	265.43
727.24	264.92
727.57	264.35
727.91	263.72
728.24	263.15
728.57	262.55
728.90	262.02
729.23	261.38
729.56	260.88
729.89	260.32
730.22	259.74
730.55	259.22
730.89	258.67
731.22	258.13
731.55	257.62
731.88	257.10
732.21	256.55
732.54	256.01
732.87	255.47
733.20	254.96
733.53	254.45
733.86	253.96
734.19	253.43
734.52	252.98
734.85	252.72
735.18	252.23
735.51	251.85
735.84	251.41
736.17	251.04
736.50	250.51
736.83	250.38
737.16	250.00
737.49	249.64
737.82	249.21
738.15	248.85
738.48	248.45
738.81	248.06
739.14	247.67
739.47	247.26
739.80	246.90
740.13	246.54
740.46	246.14
740.79	245.71
741.12	245.36
741.45	245.00
741.78	244.53
742.11	244.24
742.44	243.84
742.77	243.53
743.10	243.16
743.43	242.85
743.75	242.26
744.08	242.20
744.41	241.81
744.74	241.45
745.07	241.05
745.40	240.72
745.73	240.48
746.06	240.10
746.39	239.84
746.71	239.46
747.04	239.07
747.37	238.77
747.70	238.51
748.03	238.18
748.36	237.88
748.68	237.55
749.01	237.16
749.34	236.87
749.67	236.54
750.00	236.25
750.33	236.10
750.65	235.84
750.98	235.29
751.31	235.05
751.64	234.85
751.97	234.71
752.29	234.42
752.62	234.06
752.95	233.81
753.28	233.52
753.60	233.32
753.93	233.15
754.26	232.93
754.59	232.65
754.91	232.42
755.24	232.18
755.57	231.97
755.90	231.75
756.22	231.49
756.55	231.26
756.88	231.03
757.20	230.69
757.53	230.45
757.86	230.23
758.19	230.03
758.51	229.79
758.84	229.49
759.17	229.32
759.49	229.14
759.82	229.06
760.15	228.91
760.47	228.69
760.80	228.45
761.13	228.30
761.45	228.11
761.78	227.91
762.11	227.71
762.43	227.49
762.76	227.26
763.08	227.12
763.41	226.98
763.74	226.84
764.06	226.63
764.39	226.44
764.71	226.30
765.04	226.12
765.37	225.97
765.69	225.82
766.02	225.67
766.34	225.52
766.67	225.31
767.00	225.20
767.32	225.19
767.65	225.20
767.97	225.04
768.30	224.91
768.62	224.78
768.95	224.63
769.27	224.52
769.60	224.49
769.92	224.33
770.25	224.18
770.57	224.00
770.90	223.91
771.22	223.79
771.55	223.63
771.87	223.53
772.20	223.41
772.52	223.47
772.85	223.60
773.17	223.49
773.50	223.34
773.82	223.20
774.15	222.99
774.47	222.75
774.80	222.62
775.12	222.51
775.45	222.43
775.77	222.34
776.09	222.29
776.42	222.16
776.74	222.11
777.07	222.02
777.39	221.95
777.72	221.87
778.04	221.78
778.36	221.73
778.69	221.65
779.01	221.56
779.33	221.29
779.66	220.98
779.98	220.87
780.31	220.82
780.63	220.78
780.95	220.75
781.28	220.66
781.60	220.56
781.92	220.50
782.25	220.46
782.57	220.40
782.89	220.29
783.22	220.21
783.54	220.09
783.86	220.03
784.19	219.96
784.51	219.95
784.83	219.89
785.16	219.81
785.48	219.71
785.80	219.66
786.12	219.65
786.45	219.55
786.77	219.51
787.09	219.46
787.42	219.36
787.74	219.26
788.06	219.19
788.38	219.14
788.71	219.08
789.03	219.02
789.35	219.01
789.67	218.94
789.99	218.92
790.32	218.85
790.64	218.82
790.96	218.93
791.28	218.80
791.61	218.73
791.93	218.70
792.25	218.68
792.57	218.78
792.89	218.67
793.21	218.66
793.54	218.62
793.86	218.51
794.18	218.48
794.50	218.43
794.82	218.41
795.14	218.40
795.47	218.36
795.79	218.36
796.11	218.24
796.43	218.19
796.75	218.16
797.07	218.12
797.39	218.08
797.71	217.90
798.04	217.86
798.36	217.85
798.68	217.81
799.00	217.78
799.32	217.64
799.64	217.65
799.96	217.60
800.28	217.61
800.60	217.59
800.92	217.58
801.24	217.53
801.56	217.53
801.89	217.46
802.21	217.47
802.53	217.37
802.85	217.40
803.17	217.47
803.49	217.38
803.81	217.32
804.13	217.27
804.45	217.22
804.77	217.18
805.09	217.16
805.41	217.07
805.73	216.97
806.05	216.89
806.37	216.86
806.69	216.83
807.01	216.76
807.33	216.79
807.65	216.67
807.97	216.73
808.28	216.65
808.60	216.65
808.92	216.58
809.24	216.69
809.56	216.62
809.88	216.54
810.20	216.54
810.52	216.55
810.84	216.46
811.16	216.40
811.48	216.36
811.80	216.40
812.12	216.41
812.43	216.46
812.75	216.45
813.07	216.40
813.39	216.38
813.71	216.33
814.03	216.26
814.35	216.24
814.67	216.10
814.98	216.09
815.30	216.05
815.62	216.01
815.94	215.85
816.26	215.85
816.58	215.78
816.89	215.80
817.21	215.76
817.53	215.78
817.85	215.76
818.17	215.75
818.48	215.67
818.80	215.69
819.12	215.62
819.44	215.57
819.76	215.55
820.07	215.53
820.39	215.53
820.71	215.51
821.03	215.53
821.34	215.54
821.66	215.56
821.98	215.54
822.30	215.52
822.61	215.63
822.93	215.60
823.25	215.57
823.57	215.52
823.88	215.54
824.20	215.55
824.52	215.58
824.83	215.59
825.15	215.56
825.47	215.53
825.79	215.55
826.10	215.51
826.42	215.49
826.74	215.47
827.05	215.45
827.37	215.44
827.69	215.42
828.00	215.41
828.32	215.35
828.64	215.33
828.95	215.39
829.27	215.29
829.58	215.26
829.90	215.31
830.22	215.30
830.53	215.25
830.85	215.21
831.17	215.15
831.48	215.13
831.80	215.08
832.11	215.06
832.43	215.05
832.75	215.06
833.06	215.17
833.38	215.13
833.69	215.09
834.01	215.09
834.32	215.02
834.64	214.98
834.96	215.00
835.27	215.00
835.59	214.95
835.90	214.89
836.22	214.86
836.53	214.78
836.85	214.74
837.16	214.95
837.48	214.94
837.79	214.98
838.11	214.99
838.42	215.02
838.74	215.04
839.05	215.01
839.37	214.96
839.68	214.82
840.00	214.77
840.31	214.84
840.63	214.80
840.94	214.77
841.26	214.75
841.57	214.76
841.88	214.76
842.20	214.74
842.51	214.72
842.83	214.75
843.14	214.94
843.46	214.93
843.77	214.81
844.08	214.76
844.40	214.69
844.71	214.65
845.03	214.61
845.34	214.57
845.65	214.52
845.97	214.53
846.28	214.53
846.60	214.55
846.91	214.51
847.22	214.51
847.54	214.56
847.85	214.59
848.16	214.53
848.48	214.49
848.79	214.55
849.10	214.57
849.42	214.56
849.73	214.35
850.04	214.34
850.36	214.23
850.67	214.26
850.98	214.26
851.30	214.26
851.61	214.26
851.92	214.28
852.23	214.38
852.55	214.42
852.86	214.41
853.17	214.42
853.49	214.47
853.80	214.49
854.11	214.51
854.42	214.52
854.74	214.50
855.05	214.49
855.36	214.37
855.67	214.37
855.99	214.37
856.30	214.63
856.61	214.61
856.92	214.59
857.23	214.60
857.55	214.60
857.86	214.58
858.17	214.64
858.48	214.58
858.79	214.49
859.11	214.50
859.42	214.51
859.73	214.50
860.04	214.48
860.35	214.42
860.66	214.35
860.98	214.34
861.29	214.38
861.60	214.39
861.91	214.40
862.22	214.39
862.53	214.35
862.84	214.08
863.16	214.15
863.47	214.16
863.78	214.17
864.09	214.16
864.40	214.18
864.71	214.15
865.02	214.17
865.33	214.14
865.64	214.09
865.95	214.08
866.27	214.20
866.58	214.15
866.89	214.18
867.20	214.17
867.51	214.12
867.82	214.12
868.13	214.17
868.44	214.17
868.75	214.19
869.06	214.20
869.37	214.25
869.68	214.17
869.99	214.16
870.30	214.18
870.61	214.17
870.92	214.11
871.23	214.09
871.54	214.13
871.85	214.21
872.16	214.22
872.47	214.15
872.78	214.01
873.09	214.02
873.40	213.99
873.71	214.01
874.02	214.04
874.33	213.98
874.64	213.93
874.95	213.94
875.26	213.90
875.56	213.91
875.87	213.86
876.18	213.85
876.49	214.08
876.80	214.02
877.11	214.02
877.42	214.04
877.73	214.02
878.04	213.98
878.35	213.96
878.66	213.98
878.96	214.00
879.27	214.00
879.58	213.99
879.89	213.98
880.20	214.00
880.51	213.99
880.82	214.03
881.12	214.05
881.43	214.02
881.74	213.95
882.05	213.92
882.36	213.95
882.67	213.95
882.97	213.71
883.28	213.71
883.59	213.69
883.90	213.67
884.21	213.72
884.51	213.67
884.82	213.64
885.13	213.64
885.44	213.62
885.74	213.65
886.05	213.62
886.36	213.63
886.67	213.56
886.98	213.63
887.28	213.62
887.59	213.61
887.90	213.60
888.20	213.66
888.51	213.72
888.82	213.67
889.13	213.70
889.43	213.86
889.74	213.85
890.05	213.84
890.35	213.86
890.66	213.81
890.97	213.82
891.28	213.81
891.58	213.80
891.89	213.83
892.20	213.80
892.50	213.82
892.81	213.80
893.12	213.83
893.42	213.74
893.73	213.75
894.04	213.78
894.34	213.82
894.65	213.78
894.95	213.73
895.26	213.76
895.57	213.84
895.87	213.66
896.18	213.68
896.48	213.71
896.79	213.68
897.10	213.75
897.40	213.76
897.71	213.79
898.01	213.79
898.32	213.78
898.63	213.74
898.93	213.72
899.24	213.76
899.54	213.72
899.85	213.70
900.15	213.69
900.46	213.70
900.76	213.70
901.07	213.71
901.38	213.75
901.68	213.79
901.99	213.66
902.29	213.70
902.60	213.70
902.90	213.71
903.21	213.74
903.51	213.69
903.82	213.73
904.12	213.72
904.43	213.74
904.73	213.75
905.03	213.79
905.34	213.99
905.64	213.95
905.95	213.97
906.25	213.98
906.56	213.97
906.86	213.94
907.17	213.91
907.47	213.89
907.77	213.84
908.08	213.80
908.38	213.85
908.69	213.85
908.99	213.88
909.30	213.85
909.60	213.84
909.90	213.84
910.21	213.77
910.51	213.74
910.81	213.75
911.12	213.75
911.42	213.75
911.73	213.54
912.03	213.53
912.33	213.60
912.64	213.59
912.94	213.59
913.24	213.58
913.55	213.57
913.85	213.58
914.15	213.64
914.46	213.68
914.76	213.63
915.06	213.62
915.37	213.59
915.67	213.59
915.97	213.62
916.27	213.61
916.58	213.63
916.88	213.66
917.18	213.64
917.49	213.78
917.79	213.79
918.09	213.84
918.39	213.92
918.70	213.90
919.00	213.92
919.30	214.02
919.60	214.01
919.91	214.02
920.21	214.00
920.51	213.94
920.81	213.91
921.12	213.97
921.42	213.97
921.72	213.99
922.02	213.98
922.32	213.97
922.63	213.98
922.93	214.04
923.23	214.07
923.53	214.04
923.83	213.92
924.13	213.91
924.44	213.90
924.74	213.93
925.04	213.98
925.34	213.97
925.64	213.87
925.94	213.85
926.24	213.96
926.55	213.96
926.85	213.99
927.15	214.00
927.45	213.98
927.75	213.95
928.05	213.98
928.35	213.98
928.65	214.03
928.95	214.07
929.26	214.01
929.56	214.01
929.86	214.01
930.16	214.00
930.46	214.00
930.76	213.98
931.06	213.90
931.36	213.80
931.66	213.83
931.96	213.85
932.26	213.89
932.56	213.77
932.86	213.80
933.16	213.80
933.46	213.76
933.76	213.72
934.06	213.79
934.36	213.88
934.66	213.88
934.96	213.85
935.26	213.81
935.56	213.82
935.86	213.79
936.16	213.80
936.46	213.76
936.76	213.78
937.06	213.75
937.36	213.76
937.66	213.77
937.96	213.77
938.26	213.71
938.56	213.67
938.86	213.69
939.16	213.73
939.46	213.72
939.76	213.72
940.06	213.72
940.35	213.67
940.65	213.55
940.95	213.55
941.25	213.52
941.55	213.53
941.85	213.52
942.15	213.56
942.45	213.63
942.75	213.63
943.04	213.62
943.34	213.69
943.64	213.66
943.94	213.63
944.24	213.63
944.54	213.65
944.84	213.64
945.13	213.61
945.43	213.57
945.73	213.58
946.03	213.54
946.33	213.56
946.62	213.54
946.92	213.53
947.22	213.54
947.52	213.53
947.82	213.54
948.11	213.53
948.41	213.48
948.71	213.39
949.01	213.42
949.31	213.37
949.60	213.31
949.90	213.38
950.20	213.40
950.50	213.39
950.79	213.38
951.09	213.43
951.39	213.44
951.69	213.42
951.98	213.43
952.28	213.51
952.58	213.46
952.87	213.45
953.17	213.46
953.47	213.43
953.76	213.43
954.06	213.42
954.36	213.40
954.66	213.39
954.95	213.45
955.25	213.42
955.55	213.43
955.84	213.40
956.14	213.39
956.44	213.41
956.73	213.38
957.03	213.40
957.32	213.41
957.62	213.39
957.92	213.43
958.21	213.42
958.51	213.63
958.81	213.68
959.10	213.72
959.40	213.76
959.69	213.77
959.99	213.82
960.29	213.77
960.58	213.77
960.88	213.84
961.17	213.81
961.47	213.83
961.76	213.83
962.06	213.87
962.36	213.84
962.65	213.83
962.95	213.88
963.24	213.86
963.54	213.86
963.83	213.90
964.13	213.90
964.42	213.86
964.72	213.70
965.01	213.67
965.31	213.65
965.60	213.64
965.90	213.74
966.19	213.69
966.49	213.73
966.78	213.73
967.08	213.73
967.37	213.73
967.67	213.74
967.96	213.77
968.26	213.76
968.55	213.78
968.85	213.73
969.14	213.69
969.43	213.66
969.73	213.64
970.02	213.60
970.32	213.57
970.61	213.55
970.91	213.50
971.20	213.51
971.49	213.50
971.79	213.50
972.08	213.38
972.38	213.40
972.67	213.41
972.96	213.42
973.26	213.36
973.55	213.41
973.85	213.39
974.14	213.35
974.43	213.38
974.73	213.36
975.02	213.36
975.31	213.37
975.61	213.37
975.90	213.36
976.19	213.34
976.49	213.35
976.78	213.37
977.07	213.34
977.37	213.38
977.66	213.38
977.95	213.35
978.24	213.36
978.54	213.42
978.83	213.36
979.12	213.38
979.42	213.41
979.71	213.38
980.00	213.38
980.29	213.41
980.59	213.35
980.88	213.42
981.17	213.43
981.46	213.47
981.76	213.51
982.05	213.59
982.34	213.62
982.63	213.63
982.93	213.63
983.22	213.70
983.51	213.69
983.80	213.73
984.09	213.76
984.39	213.75
984.68	213.65
984.97	213.68
985.26	213.64
985.55	213.64
985.85	213.61
986.14	213.64
986.43	213.67
986.72	213.68
987.01	213.60
987.30	213.62
987.59	213.59
987.89	213.57
988.18	213.48
988.47	213.48
988.76	213.49
989.05	213.50
989.34	213.45
989.63	213.49
989.92	213.45
990.22	213.45
990.51	213.45
990.80	213.46
991.09	213.47
991.38	213.52
991.67	213.51
991.96	213.49
992.25	213.48
992.54	213.43
992.83	213.45
993.12	213.45
993.41	213.48
993.70	213.57
993.99	213.63
994.28	213.66
994.58	213.68
994.87	213.66
995.16	213.64
995.45	213.64
995.74	213.58
996.03	213.59
996.32	213.63
996.61	213.67
996.90	213.64
997.19	213.66
997.48	213.64
997.77	213.62
998.06	213.66
998.34	213.64
998.63	213.65
998.92	213.67
999.21	213.70
999.50	213.72
999.79	213.63
1000.08	213.62
1000.37	213.65
1000.66	213.61
1000.95	213.63
1001.24	213.66
1001.53	213.68
1001.82	213.68
1002.11	213.64
1002.40	213.61
1002.68	213.64
1002.97	213.79
1003.26	213.76
1003.55	213.73
1003.84	213.77
1004.13	213.83
1004.42	213.81
1004.71	213.80
1004.99	213.77
1005.28	213.78
1005.57	213.75
1005.86	213.77
1006.15	213.71
1006.44	213.66
1006.72	213.72
1007.01	213.69
1007.30	213.68
1007.59	213.65
1007.88	213.63
1008.17	213.66
1008.45	213.64
1008.74	213.56
1009.03	213.51
1009.32	213.51
1009.60	213.51
1009.89	213.46
1010.18	213.35
1010.47	213.35
1010.76	213.36
1011.04	213.35
1011.33	213.39
1011.62	213.39
1011.91	213.38
1012.19	213.43
1012.48	213.46
1012.77	213.45
1013.05	213.57
1013.34	213.52
1013.63	213.48
1013.92	213.52
1014.20	213.51
1014.49	213.52
1014.78	213.55
1015.06	213.48
1015.35	213.49
1015.64	213.54
1015.92	213.58
1016.21	213.60
1016.50	213.59
1016.78	213.63
1017.07	213.64
1017.36	213.60
1017.64	213.58
1017.93	213.60
1018.22	213.57
1018.50	213.55
1018.79	213.54
1019.08	213.45
1019.36	213.49
1019.65	213.52
1019.93	213.54
1020.22	213.58
1020.51	213.69
1020.79	213.65
1021.08	213.19
1021.36	213.22
1021.65	213.67
1021.94	213.87
1022.22	213.62
1022.51	213.14
1022.79	214.10
1023.08	214.00
1023.36	216.00
1023.65	212.93
>>>>>End Processed Spectral Data<<<<<
