SpectraSuite Data File
++++++++++++++++++++++++++++++++++++
Date: Tue Jan 29 16:34:49 EST 2013
User: group
Dark Spectrum Present: No
Reference Spectrum Present: No
Number of Sampled Component Spectra: 1
Spectrometers: USB2E7196
Integration Time (usec): 65000 (USB2E7196)
Spectra Averaged: 100 (USB2E7196)
Boxcar Smoothing: 10 (USB2E7196)
Correct for Electrical Dark: No (USB2E7196)
Strobe/Lamp Enabled: No (USB2E7196)
Correct for Detector Non-linearity: No (USB2E7196)
Correct for Stray Light: No (USB2E7196)
Number of Pixels in Processed Spectrum: 2048
>>>>>Begin Processed Spectral Data<<<<<
339.09	0.00
339.48	201.45
339.86	203.47
340.24	204.55
340.63	205.91
341.01	210.65
341.39	209.41
341.78	210.13
342.16	211.85
342.54	211.74
342.93	201.02
343.31	211.16
343.69	211.73
344.07	212.19
344.46	212.67
344.84	213.09
345.22	213.26
345.60	213.52
345.99	213.75
346.37	213.87
346.75	213.97
347.13	214.06
347.52	214.19
347.90	214.33
348.28	214.33
348.66	214.41
349.05	214.41
349.43	214.53
349.81	214.58
350.19	214.64
350.57	214.70
350.96	214.77
351.34	214.87
351.72	214.95
352.10	215.05
352.48	215.08
352.87	215.13
353.25	215.20
353.63	215.20
354.01	215.25
354.39	215.33
354.77	215.44
355.15	215.55
355.54	215.56
355.92	215.54
356.30	215.68
356.68	215.85
357.06	215.91
357.44	215.94
357.82	216.01
358.20	216.11
358.58	216.15
358.97	216.22
359.35	216.34
359.73	216.42
360.11	216.46
360.49	216.53
360.87	216.57
361.25	216.66
361.63	216.81
362.01	216.88
362.39	216.89
362.77	216.93
363.15	216.93
363.53	216.99
363.91	217.02
364.29	217.02
364.67	216.86
365.05	216.87
365.43	216.89
365.81	216.90
366.19	217.01
366.57	217.13
366.95	217.11
367.33	217.06
367.71	217.05
368.09	217.11
368.47	217.14
368.85	217.14
369.23	217.18
369.61	217.10
369.99	217.14
370.37	217.18
370.75	217.27
371.13	217.24
371.51	217.16
371.89	217.17
372.27	217.16
372.65	217.15
373.03	217.14
373.41	217.10
373.78	217.02
374.16	216.89
374.54	216.76
374.92	216.73
375.30	216.72
375.68	216.66
376.06	216.63
376.44	216.56
376.82	216.51
377.19	216.44
377.57	216.40
377.95	216.26
378.33	216.19
378.71	216.02
379.09	216.03
379.47	216.03
379.84	215.95
380.22	215.87
380.60	215.79
380.98	215.75
381.36	215.73
381.73	215.71
382.11	215.69
382.49	215.66
382.87	215.60
383.25	215.56
383.62	215.78
384.00	215.69
384.38	215.62
384.76	215.65
385.13	215.69
385.51	215.65
385.89	215.62
386.27	215.58
386.64	215.58
387.02	215.53
387.40	215.48
387.78	215.52
388.15	215.52
388.53	215.50
388.91	215.44
389.29	215.39
389.66	215.38
390.04	215.36
390.42	215.40
390.79	215.42
391.17	215.34
391.55	215.05
391.92	215.05
392.30	215.07
392.68	215.01
393.05	214.95
393.43	214.96
393.81	215.00
394.18	214.97
394.56	214.96
394.94	214.99
395.31	215.03
395.69	215.05
396.06	215.10
396.44	215.14
396.82	215.15
397.19	215.28
397.57	215.27
397.95	215.30
398.32	215.25
398.70	215.28
399.07	215.38
399.45	215.45
399.82	215.50
400.20	215.54
400.58	215.58
400.95	215.56
401.33	215.68
401.70	215.87
402.08	215.98
402.45	216.08
402.83	216.20
403.20	216.26
403.58	216.34
403.95	216.47
404.33	216.63
404.71	216.82
405.08	217.05
405.46	217.24
405.83	217.42
406.21	217.65
406.58	217.87
406.96	218.11
407.33	218.38
407.70	218.71
408.08	219.20
408.45	219.59
408.83	219.98
409.20	220.30
409.58	220.54
409.95	221.00
410.33	221.46
410.70	221.89
411.08	222.49
411.45	223.07
411.82	223.66
412.20	224.32
412.57	225.16
412.95	225.74
413.32	226.57
413.69	227.40
414.07	228.27
414.44	229.27
414.82	230.29
415.19	231.46
415.56	232.62
415.94	233.80
416.31	235.17
416.68	236.61
417.06	238.22
417.43	239.79
417.81	241.56
418.18	243.37
418.55	245.28
418.93	247.28
419.30	249.42
419.67	251.63
420.04	253.95
420.42	256.32
420.79	259.18
421.16	261.98
421.54	264.91
421.91	267.95
422.28	271.06
422.66	274.35
423.03	277.60
423.40	281.02
423.77	284.62
424.15	288.31
424.52	292.17
424.89	296.36
425.26	300.48
425.64	304.38
426.01	308.66
426.38	313.21
426.75	317.78
427.13	322.50
427.50	327.47
427.87	332.65
428.24	337.86
428.61	342.83
428.99	348.34
429.36	354.38
429.73	360.23
430.10	366.06
430.47	372.18
430.85	378.51
431.22	385.19
431.59	392.33
431.96	399.18
432.33	406.63
432.70	413.87
433.08	422.32
433.45	430.35
433.82	438.38
434.19	447.25
434.56	455.88
434.93	464.21
435.30	472.57
435.68	481.71
436.05	490.67
436.42	499.61
436.79	507.80
437.16	516.54
437.53	525.85
437.90	535.01
438.27	543.91
438.64	553.16
439.01	561.68
439.38	569.22
439.75	576.50
440.13	584.96
440.50	592.93
440.87	599.40
441.24	606.04
441.61	613.39
441.98	618.78
442.35	625.17
442.72	631.53
443.09	637.57
443.46	641.33
443.83	643.90
444.20	646.09
444.57	649.24
444.94	650.71
445.31	652.15
445.68	653.54
446.05	654.21
446.42	653.38
446.79	652.45
447.16	651.41
447.53	650.69
447.90	647.35
448.27	644.08
448.64	639.43
449.01	636.20
449.37	630.27
449.74	624.61
450.11	617.69
450.48	610.31
450.85	602.80
451.22	596.32
451.59	590.18
451.96	584.30
452.33	576.43
452.70	569.31
453.07	560.90
453.43	552.33
453.80	543.96
454.17	536.00
454.54	528.46
454.91	520.24
455.28	512.23
455.65	504.80
456.02	497.25
456.38	490.94
456.75	482.98
457.12	476.45
457.49	469.89
457.86	463.71
458.23	458.27
458.59	452.30
458.96	446.30
459.33	440.91
459.70	435.56
460.07	431.28
460.43	426.44
460.80	421.77
461.17	417.78
461.54	413.59
461.91	409.55
462.27	405.38
462.64	401.94
463.01	398.16
463.38	394.48
463.74	390.82
464.11	387.56
464.48	384.76
464.85	381.62
465.21	379.21
465.58	376.56
465.95	373.39
466.32	370.79
466.68	368.18
467.05	365.60
467.42	363.05
467.78	360.35
468.15	357.72
468.52	355.80
468.88	353.29
469.25	351.11
469.62	349.28
469.98	347.33
470.35	345.49
470.72	343.79
471.08	341.96
471.45	340.45
471.82	338.89
472.18	337.25
472.55	336.03
472.92	334.63
473.28	333.41
473.65	332.31
474.02	331.17
474.38	330.31
474.75	329.58
475.11	328.78
475.48	328.20
475.85	327.75
476.21	327.29
476.58	326.93
476.94	326.71
477.31	326.44
477.67	326.18
478.04	326.04
478.41	325.97
478.77	326.11
479.14	326.04
479.50	326.14
479.87	326.36
480.23	326.66
480.60	326.89
480.96	327.18
481.33	327.75
481.69	328.31
482.06	328.77
482.42	329.26
482.79	329.87
483.15	330.72
483.52	331.67
483.88	332.58
484.25	333.52
484.61	334.52
484.98	335.56
485.34	336.89
485.71	338.28
486.07	339.72
486.44	341.07
486.80	342.69
487.17	344.41
487.53	346.24
487.90	348.15
488.26	350.22
488.62	352.38
488.99	354.45
489.35	356.62
489.72	359.01
490.08	361.53
490.44	364.09
490.81	366.76
491.17	369.42
491.54	372.37
491.90	375.43
492.26	378.66
492.63	382.10
492.99	385.59
493.36	389.28
493.72	393.21
494.08	397.22
494.45	401.44
494.81	405.80
495.17	410.27
495.54	414.90
495.90	419.69
496.26	424.67
496.63	429.85
496.99	435.26
497.35	440.81
497.72	446.61
498.08	452.53
498.44	458.67
498.80	465.14
499.17	471.70
499.53	478.40
499.89	485.31
500.26	492.32
500.62	499.44
500.98	506.86
501.34	514.32
501.71	522.10
502.07	529.95
502.43	537.99
502.79	546.20
503.16	554.67
503.52	563.28
503.88	571.97
504.24	580.96
504.60	590.07
504.97	599.36
505.33	608.72
505.69	618.66
506.05	628.56
506.41	638.45
506.78	648.53
507.14	658.84
507.50	669.34
507.86	680.07
508.22	690.85
508.59	701.46
508.95	712.57
509.31	723.93
509.67	735.46
510.03	746.87
510.39	758.64
510.75	770.46
511.12	782.46
511.48	794.69
511.84	807.03
512.20	819.43
512.56	832.16
512.92	845.09
513.28	857.77
513.64	870.58
514.00	883.49
514.37	896.53
514.73	909.70
515.09	922.78
515.45	935.70
515.81	948.87
516.17	962.48
516.53	975.79
516.89	988.96
517.25	1002.19
517.61	1015.91
517.97	1029.38
518.33	1042.67
518.69	1056.33
519.05	1070.08
519.41	1083.89
519.77	1097.92
520.13	1111.28
520.49	1124.42
520.85	1137.93
521.21	1151.39
521.57	1165.16
521.93	1178.35
522.29	1192.18
522.65	1205.96
523.01	1219.72
523.37	1233.07
523.73	1246.39
524.09	1259.65
524.45	1273.11
524.81	1286.63
525.17	1300.11
525.53	1313.42
525.89	1326.91
526.25	1340.09
526.61	1353.09
526.97	1366.32
527.33	1379.34
527.68	1392.95
528.04	1406.64
528.40	1419.83
528.76	1433.26
529.12	1446.27
529.48	1459.67
529.84	1472.10
530.20	1484.93
530.56	1497.68
530.91	1510.99
531.27	1523.94
531.63	1536.78
531.99	1549.73
532.35	1562.09
532.71	1574.54
533.07	1587.49
533.42	1599.82
533.78	1612.10
534.14	1624.31
534.50	1635.67
534.86	1647.46
535.21	1658.50
535.57	1670.17
535.93	1681.49
536.29	1692.70
536.65	1704.25
537.00	1715.35
537.36	1726.85
537.72	1737.87
538.08	1749.29
538.44	1760.44
538.79	1771.77
539.15	1782.98
539.51	1793.91
539.87	1805.45
540.22	1816.44
540.58	1827.59
540.94	1838.64
541.29	1849.01
541.65	1858.85
542.01	1869.34
542.37	1879.35
542.72	1889.48
543.08	1899.41
543.44	1910.09
543.79	1919.48
544.15	1929.06
544.51	1939.23
544.87	1949.20
545.22	1958.61
545.58	1967.62
545.94	1976.58
546.29	1985.08
546.65	1993.49
547.01	2001.74
547.36	2009.44
547.72	2017.24
548.07	2024.79
548.43	2032.61
548.79	2040.56
549.14	2048.75
549.50	2057.41
549.86	2065.41
550.21	2072.99
550.57	2080.66
550.92	2087.51
551.28	2095.05
551.64	2102.35
551.99	2109.93
552.35	2117.08
552.70	2124.09
553.06	2130.73
553.41	2137.03
553.77	2143.58
554.13	2149.99
554.48	2157.13
554.84	2164.31
555.19	2170.92
555.55	2177.47
555.90	2183.79
556.26	2190.66
556.61	2196.90
556.97	2201.66
557.32	2207.48
557.68	2213.91
558.03	2219.66
558.39	2225.23
558.74	2231.29
559.10	2236.92
559.45	2242.45
559.81	2248.11
560.16	2253.71
560.52	2259.70
560.87	2266.11
561.23	2272.11
561.58	2278.72
561.94	2283.90
562.29	2288.64
562.64	2294.75
563.00	2300.34
563.35	2305.88
563.71	2311.58
564.06	2317.18
564.42	2323.23
564.77	2328.45
565.12	2333.81
565.48	2338.94
565.83	2344.22
566.19	2349.40
566.54	2354.69
566.89	2359.20
567.25	2363.60
567.60	2369.12
567.96	2374.24
568.31	2378.65
568.66	2382.90
569.02	2386.77
569.37	2390.55
569.72	2394.99
570.08	2398.30
570.43	2401.55
570.78	2404.74
571.14	2407.17
571.49	2410.27
571.84	2413.79
572.20	2416.63
572.55	2419.48
572.90	2421.68
573.26	2424.52
573.61	2427.19
573.96	2429.29
574.31	2431.29
574.67	2433.28
575.02	2434.00
575.37	2435.48
575.72	2436.31
576.08	2437.70
576.43	2437.86
576.78	2438.25
577.13	2439.63
577.49	2440.75
577.84	2441.66
578.19	2442.74
578.54	2443.27
578.90	2443.94
579.25	2443.60
579.60	2443.41
579.95	2442.47
580.30	2442.54
580.66	2441.83
581.01	2440.21
581.36	2437.84
581.71	2436.53
582.06	2435.25
582.42	2434.44
582.77	2432.07
583.12	2430.30
583.47	2428.78
583.82	2428.18
584.17	2426.76
584.53	2424.63
584.88	2422.46
585.23	2420.52
585.58	2418.29
585.93	2416.35
586.28	2414.05
586.63	2411.62
586.98	2409.39
587.34	2407.55
587.69	2404.98
588.04	2402.75
588.39	2401.14
588.74	2398.49
589.09	2395.60
589.44	2392.38
589.79	2389.68
590.14	2387.67
590.49	2384.74
590.84	2380.78
591.19	2377.54
591.54	2374.27
591.89	2370.10
592.25	2366.77
592.60	2362.47
592.95	2358.20
593.30	2353.95
593.65	2349.46
594.00	2344.94
594.35	2341.84
594.70	2337.03
595.05	2332.50
595.40	2326.94
595.75	2321.11
596.10	2317.48
596.45	2312.49
596.80	2307.86
597.15	2302.69
597.50	2296.58
597.85	2291.68
598.19	2286.44
598.54	2280.45
598.89	2275.22
599.24	2270.67
599.59	2264.50
599.94	2258.57
600.29	2252.51
600.64	2246.55
600.99	2239.73
601.34	2234.23
601.69	2227.21
602.04	2220.89
602.39	2214.10
602.74	2207.91
603.08	2202.38
603.43	2195.80
603.78	2188.95
604.13	2181.78
604.48	2174.31
604.83	2168.06
605.18	2161.71
605.53	2154.81
605.87	2147.71
606.22	2140.74
606.57	2132.80
606.92	2124.83
607.27	2118.01
607.62	2111.31
607.96	2104.23
608.31	2097.65
608.66	2089.77
609.01	2082.05
609.36	2074.75
609.70	2067.02
610.05	2059.23
610.40	2050.78
610.75	2042.44
611.10	2034.59
611.44	2025.67
611.79	2017.05
612.14	2007.21
612.49	1996.44
612.83	1987.00
613.18	1977.71
613.53	1968.44
613.88	1958.83
614.22	1950.14
614.57	1940.07
614.92	1929.47
615.27	1919.13
615.61	1909.04
615.96	1899.39
616.31	1889.76
616.65	1880.30
617.00	1870.54
617.35	1860.89
617.70	1851.19
618.04	1841.20
618.39	1831.16
618.74	1821.45
619.08	1811.66
619.43	1802.95
619.78	1794.65
620.12	1786.10
620.47	1776.59
620.82	1766.15
621.16	1756.28
621.51	1746.40
621.85	1736.65
622.20	1726.23
622.55	1715.78
622.89	1705.82
623.24	1696.09
623.59	1686.20
623.93	1676.08
624.28	1666.20
624.62	1656.14
624.97	1645.74
625.32	1635.85
625.66	1626.95
626.01	1618.23
626.35	1608.95
626.70	1598.91
627.04	1588.90
627.39	1578.71
627.73	1569.44
628.08	1560.62
628.43	1551.09
628.77	1541.85
629.12	1532.87
629.46	1525.20
629.81	1516.76
630.15	1507.25
630.50	1497.47
630.84	1487.00
631.19	1476.99
631.53	1467.85
631.88	1457.67
632.22	1447.71
632.57	1438.30
632.91	1428.02
633.26	1418.05
633.60	1408.42
633.95	1399.12
634.29	1389.62
634.64	1380.31
634.98	1370.26
635.32	1360.89
635.67	1352.35
636.01	1343.03
636.36	1333.28
636.70	1323.65
637.05	1314.23
637.39	1305.31
637.73	1296.59
638.08	1289.06
638.42	1280.94
638.77	1272.06
639.11	1263.71
639.45	1255.90
639.80	1247.34
640.14	1238.59
640.49	1229.88
640.83	1221.11
641.17	1212.90
641.52	1204.69
641.86	1196.15
642.20	1188.28
642.55	1179.69
642.89	1170.72
643.23	1162.01
643.58	1153.86
643.92	1144.80
644.26	1136.05
644.61	1127.62
644.95	1118.79
645.29	1109.54
645.64	1100.39
645.98	1091.88
646.32	1083.95
646.66	1075.40
647.01	1067.09
647.35	1059.04
647.69	1050.65
648.04	1042.26
648.38	1033.40
648.72	1024.65
649.06	1016.14
649.41	1007.87
649.75	999.89
650.09	992.06
650.43	984.05
650.78	975.67
651.12	967.89
651.46	960.47
651.80	953.19
652.14	945.94
652.49	938.33
652.83	930.93
653.17	923.18
653.51	915.47
653.85	908.20
654.20	900.89
654.54	893.35
654.88	885.97
655.22	878.76
655.56	871.58
655.90	864.70
656.25	857.91
656.59	851.03
656.93	843.92
657.27	836.69
657.61	829.71
657.95	823.59
658.29	817.62
658.64	811.44
658.98	804.89
659.32	798.20
659.66	791.95
660.00	785.54
660.34	779.39
660.68	773.30
661.02	766.93
661.36	760.97
661.70	755.15
662.05	749.53
662.39	743.99
662.73	738.63
663.07	733.26
663.41	727.67
663.75	721.95
664.09	716.15
664.43	710.77
664.77	705.39
665.11	699.56
665.45	693.66
665.79	687.80
666.13	682.10
666.47	676.59
666.81	671.18
667.15	665.77
667.49	660.59
667.83	655.24
668.17	649.91
668.51	644.70
668.85	639.76
669.19	634.80
669.53	629.77
669.87	624.60
670.21	619.79
670.55	615.00
670.89	610.45
671.23	606.24
671.57	601.75
671.91	597.39
672.25	593.19
672.58	589.04
672.92	584.96
673.26	580.91
673.60	577.00
673.94	573.08
674.28	569.46
674.62	565.72
674.96	561.92
675.30	558.42
675.64	554.68
675.97	550.97
676.31	547.35
676.65	543.69
676.99	540.24
677.33	536.33
677.67	532.64
678.01	528.74
678.34	524.98
678.68	521.39
679.02	517.72
679.36	513.95
679.70	510.24
680.04	506.69
680.37	503.21
680.71	499.81
681.05	496.58
681.39	493.22
681.73	489.99
682.06	486.92
682.40	483.79
682.74	480.59
683.08	477.36
683.42	474.17
683.75	471.07
684.09	467.96
684.43	465.09
684.77	462.10
685.10	459.25
685.44	456.38
685.78	453.44
686.12	450.62
686.45	447.91
686.79	445.24
687.13	442.64
687.46	439.99
687.80	437.31
688.14	434.44
688.48	431.82
688.81	429.04
689.15	426.43
689.49	423.76
689.82	421.22
690.16	418.64
690.50	416.10
690.83	413.62
691.17	411.07
691.51	408.60
691.84	406.32
692.18	404.02
692.52	401.67
692.85	399.50
693.19	397.37
693.52	395.15
693.86	392.85
694.20	390.58
694.53	388.38
694.87	386.16
695.21	384.05
695.54	381.83
695.88	379.67
696.21	377.52
696.55	375.38
696.88	373.31
697.22	371.27
697.56	369.32
697.89	367.38
698.23	365.60
698.56	363.80
698.90	362.01
699.23	360.12
699.57	358.31
699.90	356.42
700.24	354.54
700.58	352.77
700.91	351.09
701.25	349.56
701.58	347.99
701.92	346.35
702.25	344.66
702.59	343.05
702.92	341.49
703.26	339.89
703.59	338.38
703.93	337.05
704.26	335.61
704.60	334.06
704.93	332.53
705.26	331.00
705.60	329.51
705.93	327.97
706.27	326.65
706.60	325.33
706.94	324.12
707.27	322.74
707.61	321.34
707.94	319.98
708.27	318.47
708.61	316.99
708.94	315.60
709.28	314.28
709.61	312.97
709.94	311.75
710.28	310.47
710.61	309.26
710.95	307.84
711.28	306.73
711.61	305.57
711.95	304.47
712.28	303.25
712.61	302.03
712.95	300.95
713.28	299.83
713.61	298.69
713.95	297.53
714.28	296.51
714.61	295.47
714.95	294.44
715.28	293.39
715.61	292.32
715.95	291.36
716.28	290.42
716.61	289.43
716.95	288.44
717.28	287.47
717.61	286.51
717.94	285.60
718.28	284.57
718.61	283.67
718.94	282.76
719.27	281.92
719.61	281.10
719.94	280.23
720.27	279.25
720.60	278.36
720.94	277.48
721.27	276.69
721.60	276.00
721.93	275.26
722.27	274.63
722.60	273.99
722.93	273.23
723.26	272.57
723.59	271.91
723.93	271.28
724.26	270.62
724.59	269.93
724.92	269.30
725.25	268.72
725.59	268.13
725.92	267.58
726.25	266.98
726.58	266.35
726.91	265.75
727.24	265.21
727.57	264.62
727.91	264.01
728.24	263.40
728.57	262.74
728.90	262.13
729.23	261.47
729.56	261.01
729.89	260.49
730.22	259.86
730.55	259.28
730.89	258.70
731.22	258.17
731.55	257.66
731.88	257.10
732.21	256.57
732.54	255.99
732.87	255.47
733.20	254.99
733.53	254.55
733.86	254.09
734.19	253.59
734.52	253.20
734.85	252.91
735.18	252.45
735.51	252.12
735.84	251.73
736.17	251.32
736.50	250.77
736.83	250.60
737.16	250.23
737.49	249.85
737.82	249.46
738.15	249.08
738.48	248.70
738.81	248.33
739.14	247.92
739.47	247.51
739.80	247.12
740.13	246.77
740.46	246.33
740.79	245.94
741.12	245.55
741.45	245.14
741.78	244.69
742.11	244.42
742.44	244.02
742.77	243.69
743.10	243.34
743.43	242.97
743.75	242.38
744.08	242.31
744.41	241.94
744.74	241.61
745.07	241.26
745.40	240.98
745.73	240.71
746.06	240.40
746.39	240.14
746.71	239.79
747.04	239.43
747.37	239.12
747.70	238.83
748.03	238.56
748.36	238.29
748.68	237.98
749.01	237.61
749.34	237.29
749.67	237.01
750.00	236.77
750.33	236.65
750.65	236.41
750.98	235.90
751.31	235.69
751.64	235.43
751.97	235.29
752.29	234.97
752.62	234.60
752.95	234.34
753.28	234.05
753.60	233.79
753.93	233.61
754.26	233.42
754.59	233.17
754.91	232.91
755.24	232.70
755.57	232.47
755.90	232.24
756.22	232.02
756.55	231.78
756.88	231.53
757.20	231.18
757.53	230.94
757.86	230.71
758.19	230.46
758.51	230.27
758.84	229.95
759.17	229.76
759.49	229.61
759.82	229.49
760.15	229.33
760.47	229.16
760.80	228.91
761.13	228.72
761.45	228.49
761.78	228.31
762.11	228.11
762.43	227.94
762.76	227.77
763.08	227.59
763.41	227.42
763.74	227.26
764.06	227.10
764.39	226.92
764.71	226.73
765.04	226.56
765.37	226.39
765.69	226.22
766.02	226.11
766.34	225.97
766.67	225.76
767.00	225.64
767.32	225.61
767.65	225.60
767.97	225.47
768.30	225.38
768.62	225.27
768.95	225.11
769.27	224.98
769.60	224.91
769.92	224.75
770.25	224.58
770.57	224.41
770.90	224.31
771.22	224.18
771.55	224.07
771.87	223.97
772.20	223.81
772.52	223.87
772.85	224.01
773.17	223.88
773.50	223.76
773.82	223.61
774.15	223.43
774.47	223.21
774.80	223.09
775.12	222.93
775.45	222.82
775.77	222.72
776.09	222.64
776.42	222.53
776.74	222.50
777.07	222.45
777.39	222.34
777.72	222.23
778.04	222.16
778.36	222.05
778.69	221.96
779.01	221.95
779.33	221.69
779.66	221.31
779.98	221.21
780.31	221.17
780.63	221.17
780.95	221.13
781.28	221.05
781.60	220.94
781.92	220.88
782.25	220.79
782.57	220.73
782.89	220.63
783.22	220.55
783.54	220.43
783.86	220.37
784.19	220.33
784.51	220.35
784.83	220.25
785.16	220.20
785.48	220.18
785.80	220.06
786.12	220.03
786.45	220.01
786.77	219.97
787.09	219.89
787.42	219.79
787.74	219.70
788.06	219.65
788.38	219.59
788.71	219.55
789.03	219.55
789.35	219.52
789.67	219.44
789.99	219.38
790.32	219.29
790.64	219.26
790.96	219.38
791.28	219.26
791.61	219.20
791.93	219.18
792.25	219.09
792.57	219.23
792.89	219.13
793.21	219.06
793.54	219.00
793.86	218.93
794.18	218.88
794.50	218.81
794.82	218.75
795.14	218.74
795.47	218.73
795.79	218.66
796.11	218.58
796.43	218.54
796.75	218.52
797.07	218.51
797.39	218.44
797.71	218.25
798.04	218.25
798.36	218.22
798.68	218.18
799.00	218.19
799.32	218.05
799.64	218.08
799.96	218.07
800.28	218.06
800.60	218.02
800.92	217.98
801.24	217.95
801.56	217.94
801.89	217.86
802.21	217.82
802.53	217.76
802.85	217.77
803.17	217.83
803.49	217.75
803.81	217.68
804.13	217.61
804.45	217.55
804.77	217.48
805.09	217.47
805.41	217.42
805.73	217.34
806.05	217.23
806.37	217.18
806.69	217.11
807.01	217.07
807.33	217.08
807.65	216.97
807.97	217.04
808.28	216.99
808.60	216.95
808.92	216.89
809.24	217.00
809.56	216.97
809.88	216.86
810.20	216.85
810.52	216.87
810.84	216.84
811.16	216.77
811.48	216.73
811.80	216.77
812.12	216.72
812.43	216.72
812.75	216.74
813.07	216.69
813.39	216.71
813.71	216.65
814.03	216.60
814.35	216.60
814.67	216.50
814.98	216.50
815.30	216.52
815.62	216.46
815.94	216.26
816.26	216.20
816.58	216.17
816.89	216.16
817.21	216.10
817.53	216.11
817.85	216.11
818.17	216.10
818.48	216.03
818.80	216.06
819.12	216.02
819.44	215.96
819.76	215.94
820.07	215.90
820.39	215.87
820.71	215.83
821.03	215.81
821.34	215.75
821.66	215.74
821.98	215.74
822.30	215.70
822.61	215.84
822.93	215.83
823.25	215.80
823.57	215.78
823.88	215.79
824.20	215.79
824.52	215.80
824.83	215.72
825.15	215.65
825.47	215.62
825.79	215.59
826.10	215.57
826.42	215.55
826.74	215.56
827.05	215.56
827.37	215.57
827.69	215.55
828.00	215.57
828.32	215.53
828.64	215.49
828.95	215.61
829.27	215.56
829.58	215.55
829.90	215.58
830.22	215.59
830.53	215.54
830.85	215.50
831.17	215.45
831.48	215.49
831.80	215.48
832.11	215.45
832.43	215.45
832.75	215.42
833.06	215.52
833.38	215.45
833.69	215.42
834.01	215.41
834.32	215.39
834.64	215.34
834.96	215.34
835.27	215.32
835.59	215.24
835.90	215.16
836.22	215.15
836.53	215.09
836.85	215.04
837.16	215.22
837.48	215.20
837.79	215.29
838.11	215.28
838.42	215.28
838.74	215.28
839.05	215.25
839.37	215.23
839.68	215.10
840.00	215.08
840.31	215.09
840.63	215.07
840.94	215.07
841.26	215.05
841.57	215.05
841.88	215.04
842.20	215.02
842.51	215.00
842.83	214.98
843.14	215.17
843.46	215.16
843.77	215.05
844.08	215.05
844.40	214.94
844.71	214.92
845.03	214.94
845.34	214.93
845.65	214.88
845.97	214.89
846.28	214.90
846.60	214.90
846.91	214.89
847.22	214.88
847.54	214.94
847.85	214.92
848.16	214.89
848.48	214.85
848.79	214.92
849.10	214.93
849.42	214.93
849.73	214.74
850.04	214.76
850.36	214.67
850.67	214.72
850.98	214.75
851.30	214.77
851.61	214.73
851.92	214.73
852.23	214.82
852.55	214.79
852.86	214.79
853.17	214.78
853.49	214.82
853.80	214.87
854.11	214.86
854.42	214.92
854.74	214.89
855.05	214.93
855.36	214.85
855.67	214.87
855.99	214.88
856.30	215.10
856.61	215.08
856.92	215.11
857.23	215.08
857.55	215.04
857.86	215.03
858.17	215.04
858.48	215.00
858.79	214.97
859.11	215.02
859.42	214.99
859.73	214.96
860.04	214.93
860.35	214.83
860.66	214.75
860.98	214.72
861.29	214.76
861.60	214.74
861.91	214.77
862.22	214.72
862.53	214.67
862.84	214.43
863.16	214.50
863.47	214.44
863.78	214.38
864.09	214.37
864.40	214.37
864.71	214.39
865.02	214.42
865.33	214.35
865.64	214.30
865.95	214.32
866.27	214.45
866.58	214.43
866.89	214.47
867.20	214.48
867.51	214.45
867.82	214.41
868.13	214.46
868.44	214.38
868.75	214.43
869.06	214.46
869.37	214.48
869.68	214.42
869.99	214.45
870.30	214.48
870.61	214.52
870.92	214.49
871.23	214.45
871.54	214.49
871.85	214.58
872.16	214.60
872.47	214.60
872.78	214.50
873.09	214.55
873.40	214.53
873.71	214.55
874.02	214.55
874.33	214.53
874.64	214.51
874.95	214.56
875.26	214.48
875.56	214.47
875.87	214.48
876.18	214.46
876.49	214.68
876.80	214.64
877.11	214.61
877.42	214.63
877.73	214.65
878.04	214.58
878.35	214.56
878.66	214.57
878.96	214.54
879.27	214.52
879.58	214.52
879.89	214.51
880.20	214.57
880.51	214.55
880.82	214.54
881.12	214.56
881.43	214.50
881.74	214.52
882.05	214.51
882.36	214.49
882.67	214.49
882.97	214.27
883.28	214.27
883.59	214.26
883.90	214.28
884.21	214.32
884.51	214.31
884.82	214.23
885.13	214.21
885.44	214.22
885.74	214.22
886.05	214.20
886.36	214.21
886.67	214.12
886.98	214.24
887.28	214.29
887.59	214.22
887.90	214.26
888.20	214.23
888.51	214.29
888.82	214.23
889.13	214.26
889.43	214.42
889.74	214.41
890.05	214.39
890.35	214.35
890.66	214.32
890.97	214.32
891.28	214.37
891.58	214.40
891.89	214.37
892.20	214.36
892.50	214.33
892.81	214.30
893.12	214.34
893.42	214.21
893.73	214.19
894.04	214.22
894.34	214.21
894.65	214.22
894.95	214.17
895.26	214.22
895.57	214.30
895.87	214.11
896.18	214.17
896.48	214.22
896.79	214.25
897.10	214.24
897.40	214.26
897.71	214.25
898.01	214.21
898.32	214.28
898.63	214.25
898.93	214.26
899.24	214.28
899.54	214.23
899.85	214.25
900.15	214.25
900.46	214.26
900.76	214.29
901.07	214.29
901.38	214.30
901.68	214.30
901.99	214.18
902.29	214.20
902.60	214.15
902.90	214.15
903.21	214.12
903.51	214.14
903.82	214.17
904.12	214.16
904.43	214.18
904.73	214.15
905.03	214.19
905.34	214.42
905.64	214.44
905.95	214.46
906.25	214.47
906.56	214.47
906.86	214.46
907.17	214.45
907.47	214.44
907.77	214.42
908.08	214.40
908.38	214.44
908.69	214.48
908.99	214.51
909.30	214.50
909.60	214.50
909.90	214.52
910.21	214.46
910.51	214.46
910.81	214.47
911.12	214.50
911.42	214.50
911.73	214.25
912.03	214.25
912.33	214.30
912.64	214.30
912.94	214.27
913.24	214.23
913.55	214.17
913.85	214.17
914.15	214.20
914.46	214.18
914.76	214.14
915.06	214.09
915.37	214.04
915.67	214.00
915.97	214.03
916.27	213.98
916.58	214.00
916.88	213.98
917.18	213.94
917.49	214.04
917.79	214.05
918.09	214.10
918.39	214.12
918.70	214.11
919.00	214.08
919.30	214.19
919.60	214.19
919.91	214.19
920.21	214.19
920.51	214.15
920.81	214.16
921.12	214.19
921.42	214.19
921.72	214.21
922.02	214.23
922.32	214.27
922.63	214.25
922.93	214.34
923.23	214.34
923.53	214.35
923.83	214.21
924.13	214.20
924.44	214.20
924.74	214.24
925.04	214.24
925.34	214.26
925.64	214.16
925.94	214.17
926.24	214.29
926.55	214.28
926.85	214.33
927.15	214.31
927.45	214.33
927.75	214.36
928.05	214.36
928.35	214.35
928.65	214.34
928.95	214.37
929.26	214.26
929.56	214.33
929.86	214.34
930.16	214.33
930.46	214.33
930.76	214.33
931.06	214.20
931.36	214.16
931.66	214.18
931.96	214.21
932.26	214.18
932.56	214.07
932.86	214.10
933.16	214.10
933.46	214.09
933.76	214.08
934.06	214.11
934.36	214.21
934.66	214.18
934.96	214.15
935.26	214.16
935.56	214.23
935.86	214.19
936.16	214.19
936.46	214.19
936.76	214.15
937.06	214.12
937.36	214.17
937.66	214.21
937.96	214.20
938.26	214.15
938.56	214.16
938.86	214.18
939.16	214.20
939.46	214.23
939.76	214.27
940.06	214.25
940.35	214.21
940.65	214.11
940.95	214.11
941.25	214.08
941.55	214.03
941.85	214.00
942.15	214.01
942.45	214.05
942.75	214.03
943.04	214.07
943.34	214.13
943.64	214.11
943.94	214.06
944.24	214.07
944.54	214.14
944.84	214.15
945.13	214.11
945.43	214.11
945.73	214.07
946.03	214.06
946.33	214.01
946.62	213.97
946.92	213.95
947.22	213.99
947.52	214.05
947.82	214.08
948.11	214.08
948.41	214.03
948.71	213.96
949.01	213.97
949.31	213.98
949.60	213.94
949.90	213.99
950.20	213.97
950.50	213.96
950.79	213.90
951.09	213.93
951.39	213.96
951.69	213.91
951.98	213.93
952.28	213.94
952.58	213.97
952.87	213.99
953.17	214.04
953.47	214.02
953.76	213.99
954.06	213.97
954.36	213.92
954.66	213.95
954.95	214.00
955.25	214.03
955.55	214.03
955.84	214.02
956.14	214.03
956.44	214.04
956.73	214.02
957.03	214.05
957.32	214.03
957.62	214.02
957.92	214.07
958.21	214.04
958.51	214.28
958.81	214.32
959.10	214.35
959.40	214.38
959.69	214.38
959.99	214.41
960.29	214.44
960.58	214.44
960.88	214.50
961.17	214.47
961.47	214.46
961.76	214.43
962.06	214.47
962.36	214.40
962.65	214.42
962.95	214.41
963.24	214.37
963.54	214.39
963.83	214.42
964.13	214.39
964.42	214.34
964.72	214.17
965.01	214.15
965.31	214.12
965.60	214.02
965.90	214.15
966.19	214.11
966.49	214.11
966.78	214.12
967.08	214.05
967.37	214.08
967.67	214.04
967.96	214.07
968.26	214.04
968.55	214.08
968.85	214.05
969.14	214.06
969.43	214.08
969.73	214.04
970.02	214.03
970.32	214.03
970.61	214.05
970.91	213.99
971.20	213.96
971.49	213.96
971.79	214.02
972.08	213.86
972.38	213.85
972.67	213.84
972.96	213.88
973.26	213.86
973.55	213.91
973.85	213.95
974.14	213.95
974.43	213.97
974.73	213.95
975.02	213.91
975.31	213.90
975.61	213.90
975.90	213.92
976.19	213.90
976.49	213.91
976.78	213.91
977.07	213.89
977.37	213.90
977.66	213.89
977.95	213.84
978.24	213.86
978.54	213.90
978.83	213.88
979.12	213.85
979.42	213.85
979.71	213.79
980.00	213.77
980.29	213.78
980.59	213.74
980.88	213.82
981.17	213.84
981.46	213.86
981.76	213.82
982.05	213.82
982.34	213.83
982.63	213.81
982.93	213.81
983.22	213.86
983.51	213.89
983.80	213.91
984.09	213.94
984.39	213.94
984.68	213.91
984.97	213.88
985.26	213.84
985.55	213.87
985.85	213.84
986.14	213.86
986.43	213.86
986.72	213.85
987.01	213.75
987.30	213.74
987.59	213.74
987.89	213.79
988.18	213.81
988.47	213.77
988.76	213.74
989.05	213.72
989.34	213.70
989.63	213.70
989.92	213.71
990.22	213.66
990.51	213.65
990.80	213.63
991.09	213.70
991.38	213.74
991.67	213.73
991.96	213.71
992.25	213.68
992.54	213.66
992.83	213.69
993.12	213.68
993.41	213.72
993.70	213.82
993.99	213.82
994.28	213.82
994.58	213.87
994.87	213.89
995.16	213.90
995.45	213.87
995.74	213.83
996.03	213.84
996.32	213.89
996.61	213.95
996.90	213.97
997.19	213.92
997.48	213.93
997.77	213.93
998.06	213.94
998.34	213.95
998.63	213.94
998.92	213.90
999.21	213.95
999.50	213.96
999.79	213.87
1000.08	213.85
1000.37	213.85
1000.66	213.82
1000.95	213.85
1001.24	213.85
1001.53	213.87
1001.82	213.87
1002.11	213.83
1002.40	213.87
1002.68	213.90
1002.97	214.03
1003.26	214.03
1003.55	213.99
1003.84	213.99
1004.13	214.10
1004.42	214.10
1004.71	214.08
1004.99	214.11
1005.28	214.15
1005.57	214.11
1005.86	214.05
1006.15	214.05
1006.44	214.03
1006.72	214.07
1007.01	214.02
1007.30	214.00
1007.59	213.98
1007.88	213.97
1008.17	214.02
1008.45	213.98
1008.74	213.89
1009.03	213.80
1009.32	213.80
1009.60	213.78
1009.89	213.75
1010.18	213.61
1010.47	213.62
1010.76	213.62
1011.04	213.62
1011.33	213.62
1011.62	213.67
1011.91	213.72
1012.19	213.73
1012.48	213.72
1012.77	213.73
1013.05	213.85
1013.34	213.89
1013.63	213.91
1013.92	213.92
1014.20	213.89
1014.49	213.88
1014.78	213.91
1015.06	213.86
1015.35	213.88
1015.64	213.92
1015.92	213.96
1016.21	213.98
1016.50	213.96
1016.78	213.98
1017.07	213.99
1017.36	213.95
1017.64	213.87
1017.93	213.91
1018.22	213.89
1018.50	213.88
1018.79	213.86
1019.08	213.77
1019.36	213.77
1019.65	213.72
1019.93	213.76
1020.22	213.78
1020.51	213.88
1020.79	213.86
1021.08	213.50
1021.36	213.42
1021.65	213.85
1021.94	213.90
1022.22	213.99
1022.51	213.14
1022.79	214.43
1023.08	213.92
1023.36	216.29
1023.65	213.43
>>>>>End Processed Spectral Data<<<<<
