SpectraSuite Data File
++++++++++++++++++++++++++++++++++++
Date: Tue Jan 29 16:44:10 EST 2013
User: group
Dark Spectrum Present: No
Reference Spectrum Present: No
Number of Sampled Component Spectra: 1
Spectrometers: USB2E7196
Integration Time (usec): 65000 (USB2E7196)
Spectra Averaged: 100 (USB2E7196)
Boxcar Smoothing: 10 (USB2E7196)
Correct for Electrical Dark: No (USB2E7196)
Strobe/Lamp Enabled: No (USB2E7196)
Correct for Detector Non-linearity: No (USB2E7196)
Correct for Stray Light: No (USB2E7196)
Number of Pixels in Processed Spectrum: 2048
>>>>>Begin Processed Spectral Data<<<<<
339.09	0.00
339.48	201.40
339.86	203.71
340.24	204.45
340.63	206.14
341.01	210.74
341.39	208.53
341.78	209.81
342.16	211.80
342.54	212.21
342.93	201.14
343.31	211.30
343.69	211.88
344.07	212.34
344.46	212.81
344.84	213.21
345.22	213.38
345.60	213.68
345.99	213.93
346.37	214.10
346.75	214.21
347.13	214.28
347.52	214.35
347.90	214.48
348.28	214.50
348.66	214.60
349.05	214.57
349.43	214.64
349.81	214.71
350.19	214.78
350.57	214.84
350.96	214.90
351.34	214.99
351.72	215.10
352.10	215.20
352.48	215.26
352.87	215.31
353.25	215.38
353.63	215.42
354.01	215.46
354.39	215.51
354.77	215.58
355.15	215.71
355.54	215.76
355.92	215.75
356.30	215.80
356.68	216.00
357.06	216.07
357.44	216.10
357.82	216.11
358.20	216.17
358.58	216.23
358.97	216.30
359.35	216.38
359.73	216.44
360.11	216.50
360.49	216.58
360.87	216.60
361.25	216.68
361.63	216.76
362.01	216.81
362.39	216.82
362.77	216.86
363.15	216.90
363.53	216.93
363.91	216.96
364.29	217.01
364.67	216.86
365.05	216.87
365.43	216.92
365.81	216.96
366.19	217.07
366.57	217.16
366.95	217.18
367.33	217.15
367.71	217.14
368.09	217.16
368.47	217.13
368.85	217.13
369.23	217.15
369.61	217.08
369.99	217.16
370.37	217.16
370.75	217.24
371.13	217.13
371.51	217.07
371.89	217.06
372.27	217.06
372.65	217.01
373.03	216.99
373.41	216.96
373.78	216.93
374.16	216.78
374.54	216.69
374.92	216.62
375.30	216.61
375.68	216.53
376.06	216.49
376.44	216.45
376.82	216.40
377.19	216.35
377.57	216.32
377.95	216.18
378.33	216.12
378.71	215.98
379.09	216.00
379.47	215.99
379.84	215.94
380.22	215.86
380.60	215.76
380.98	215.75
381.36	215.71
381.73	215.65
382.11	215.66
382.49	215.61
382.87	215.57
383.25	215.52
383.62	215.75
384.00	215.65
384.38	215.61
384.76	215.63
385.13	215.70
385.51	215.68
385.89	215.60
386.27	215.59
386.64	215.60
387.02	215.53
387.40	215.49
387.78	215.49
388.15	215.51
388.53	215.52
388.91	215.47
389.29	215.43
389.66	215.44
390.04	215.40
390.42	215.38
390.79	215.38
391.17	215.34
391.55	215.09
391.92	215.13
392.30	215.14
392.68	215.10
393.05	215.05
393.43	215.03
393.81	215.07
394.18	215.02
394.56	215.00
394.94	215.06
395.31	215.04
395.69	215.08
396.06	215.06
396.44	215.09
396.82	215.11
397.19	215.22
397.57	215.21
397.95	215.31
398.32	215.29
398.70	215.35
399.07	215.45
399.45	215.47
399.82	215.51
400.20	215.54
400.58	215.58
400.95	215.54
401.33	215.65
401.70	215.85
402.08	215.96
402.45	216.07
402.83	216.22
403.20	216.35
403.58	216.45
403.95	216.63
404.33	216.80
404.71	216.94
405.08	217.18
405.46	217.36
405.83	217.53
406.21	217.76
406.58	218.00
406.96	218.20
407.33	218.49
407.70	218.76
408.08	219.26
408.45	219.59
408.83	219.98
409.20	220.33
409.58	220.63
409.95	221.08
410.33	221.55
410.70	221.97
411.08	222.53
411.45	223.09
411.82	223.66
412.20	224.34
412.57	225.16
412.95	225.74
413.32	226.57
413.69	227.38
414.07	228.27
414.44	229.23
414.82	230.26
415.19	231.43
415.56	232.67
415.94	233.83
416.31	235.29
416.68	236.73
417.06	238.34
417.43	239.89
417.81	241.64
418.18	243.45
418.55	245.40
418.93	247.42
419.30	249.51
419.67	251.74
420.04	254.05
420.42	256.44
420.79	259.30
421.16	262.07
421.54	264.97
421.91	268.04
422.28	271.16
422.66	274.47
423.03	277.76
423.40	281.13
423.77	284.75
424.15	288.42
424.52	292.27
424.89	296.44
425.26	300.56
425.64	304.47
426.01	308.75
426.38	313.30
426.75	317.91
427.13	322.69
427.50	327.66
427.87	332.89
428.24	338.14
428.61	343.11
428.99	348.63
429.36	354.70
429.73	360.58
430.10	366.52
430.47	372.60
430.85	378.96
431.22	385.67
431.59	392.82
431.96	399.67
432.33	407.19
432.70	414.51
433.08	423.05
433.45	431.12
433.82	439.21
434.19	448.02
434.56	456.70
434.93	465.05
435.30	473.40
435.68	482.53
436.05	491.56
436.42	500.52
436.79	508.74
437.16	517.57
437.53	526.87
437.90	536.01
438.27	545.03
438.64	554.27
439.01	562.85
439.38	570.42
439.75	577.80
440.13	586.28
440.50	594.23
440.87	600.62
441.24	607.35
441.61	614.66
441.98	620.15
442.35	626.49
442.72	632.88
443.09	638.92
443.46	642.69
443.83	645.24
444.20	647.41
444.57	650.56
444.94	652.00
445.31	653.47
445.68	654.81
446.05	655.48
446.42	654.73
446.79	653.77
447.16	652.74
447.53	651.99
447.90	648.68
448.27	645.42
448.64	640.83
449.01	637.48
449.37	631.59
449.74	625.83
450.11	618.95
450.48	611.52
450.85	604.12
451.22	597.62
451.59	591.45
451.96	585.59
452.33	577.72
452.70	570.57
453.07	562.04
453.43	553.44
453.80	545.11
454.17	537.04
454.54	529.44
454.91	521.20
455.28	513.16
455.65	505.71
456.02	498.17
456.38	491.82
456.75	483.87
457.12	477.22
457.49	470.71
457.86	464.48
458.23	459.08
458.59	453.05
458.96	447.00
459.33	441.64
459.70	436.29
460.07	432.00
460.43	427.09
460.80	422.50
461.17	418.47
461.54	414.19
461.91	410.12
462.27	405.98
462.64	402.55
463.01	398.72
463.38	394.91
463.74	391.15
464.11	387.87
464.48	385.06
464.85	381.99
465.21	379.54
465.58	376.91
465.95	373.71
466.32	371.10
466.68	368.47
467.05	365.87
467.42	363.26
467.78	360.56
468.15	358.03
468.52	356.09
468.88	353.62
469.25	351.38
469.62	349.57
469.98	347.60
470.35	345.76
470.72	344.08
471.08	342.30
471.45	340.80
471.82	339.28
472.18	337.56
472.55	336.34
472.92	334.95
473.28	333.71
473.65	332.57
474.02	331.43
474.38	330.55
474.75	329.78
475.11	328.96
475.48	328.39
475.85	327.88
476.21	327.38
476.58	326.97
476.94	326.72
477.31	326.41
477.67	326.16
478.04	325.96
478.41	325.88
478.77	326.04
479.14	325.94
479.50	326.08
479.87	326.34
480.23	326.65
480.60	326.88
480.96	327.16
481.33	327.77
481.69	328.33
482.06	328.84
482.42	329.32
482.79	329.95
483.15	330.71
483.52	331.65
483.88	332.56
484.25	333.49
484.61	334.53
484.98	335.58
485.34	336.89
485.71	338.28
486.07	339.72
486.44	341.08
486.80	342.70
487.17	344.35
487.53	346.28
487.90	348.13
488.26	350.19
488.62	352.34
488.99	354.35
489.35	356.50
489.72	358.89
490.08	361.45
490.44	363.98
490.81	366.70
491.17	369.38
491.54	372.32
491.90	375.36
492.26	378.62
492.63	382.03
492.99	385.51
493.36	389.17
493.72	393.10
494.08	397.09
494.45	401.34
494.81	405.72
495.17	410.13
495.54	414.78
495.90	419.54
496.26	424.46
496.63	429.68
496.99	435.11
497.35	440.62
497.72	446.44
498.08	452.34
498.44	458.45
498.80	464.92
499.17	471.47
499.53	478.19
499.89	485.13
500.26	492.13
500.62	499.23
500.98	506.63
501.34	514.06
501.71	521.88
502.07	529.70
502.43	537.70
502.79	545.79
503.16	554.27
503.52	562.90
503.88	571.64
504.24	580.60
504.60	589.64
504.97	598.90
505.33	608.20
505.69	618.14
506.05	628.00
506.41	637.86
506.78	647.85
507.14	658.06
507.50	668.46
507.86	679.13
508.22	689.92
508.59	700.57
508.95	711.61
509.31	722.84
509.67	734.31
510.03	745.62
510.39	757.44
510.75	769.21
511.12	781.13
511.48	793.23
511.84	805.47
512.20	817.81
512.56	830.53
512.92	843.29
513.28	855.92
513.64	868.65
514.00	881.52
514.37	894.62
514.73	907.78
515.09	920.77
515.45	933.69
515.81	946.83
516.17	960.30
516.53	973.54
516.89	986.59
517.25	999.82
517.61	1013.48
517.97	1026.82
518.33	1040.02
518.69	1053.64
519.05	1067.48
519.41	1081.24
519.77	1095.18
520.13	1108.48
520.49	1121.74
520.85	1135.21
521.21	1148.70
521.57	1162.40
521.93	1175.51
522.29	1189.27
522.65	1202.99
523.01	1216.72
523.37	1229.99
523.73	1243.35
524.09	1256.70
524.45	1270.24
524.81	1283.82
525.17	1297.27
525.53	1310.52
525.89	1323.94
526.25	1337.04
526.61	1349.89
526.97	1363.02
527.33	1376.01
527.68	1389.58
528.04	1403.20
528.40	1416.30
528.76	1429.62
529.12	1442.62
529.48	1455.95
529.84	1468.31
530.20	1481.18
530.56	1493.75
530.91	1507.02
531.27	1520.02
531.63	1532.85
531.99	1545.74
532.35	1558.02
532.71	1570.51
533.07	1583.43
533.42	1595.69
533.78	1607.97
534.14	1620.16
534.50	1631.53
534.86	1643.34
535.21	1654.30
535.57	1665.83
535.93	1677.13
536.29	1688.37
536.65	1699.89
537.00	1711.03
537.36	1722.65
537.72	1733.72
538.08	1745.25
538.44	1756.27
538.79	1767.48
539.15	1778.48
539.51	1789.28
539.87	1800.76
540.22	1811.56
540.58	1822.67
540.94	1833.80
541.29	1844.18
541.65	1854.06
542.01	1864.64
542.37	1874.69
542.72	1884.95
543.08	1894.86
543.44	1905.53
543.79	1914.94
544.15	1924.51
544.51	1934.42
544.87	1944.30
545.22	1953.78
545.58	1962.78
545.94	1971.80
546.29	1980.40
546.65	1988.86
547.01	1997.27
547.36	2004.83
547.72	2012.74
548.07	2020.44
548.43	2028.17
548.79	2035.97
549.14	2044.22
549.50	2052.71
549.86	2060.66
550.21	2068.15
550.57	2075.99
550.92	2082.78
551.28	2090.39
551.64	2097.61
551.99	2105.30
552.35	2112.55
552.70	2119.31
553.06	2125.99
553.41	2132.28
553.77	2138.74
554.13	2145.04
554.48	2152.11
554.84	2159.37
555.19	2165.89
555.55	2172.25
555.90	2178.68
556.26	2185.64
556.61	2191.72
556.97	2196.51
557.32	2202.34
557.68	2208.70
558.03	2214.37
558.39	2219.80
558.74	2225.57
559.10	2231.12
559.45	2236.65
559.81	2242.25
560.16	2247.86
560.52	2253.67
560.87	2260.00
561.23	2265.82
561.58	2272.48
561.94	2277.67
562.29	2282.28
562.64	2288.34
563.00	2294.05
563.35	2299.51
563.71	2305.21
564.06	2310.82
564.42	2316.92
564.77	2321.91
565.12	2327.14
565.48	2332.14
565.83	2337.53
566.19	2342.90
566.54	2348.23
566.89	2352.76
567.25	2357.18
567.60	2362.80
567.96	2367.93
568.31	2372.43
568.66	2376.64
569.02	2380.55
569.37	2384.16
569.72	2388.41
570.08	2391.88
570.43	2394.99
570.78	2397.99
571.14	2400.40
571.49	2403.50
571.84	2406.82
572.20	2409.73
572.55	2412.71
572.90	2414.96
573.26	2417.71
573.61	2420.11
573.96	2422.22
574.31	2424.11
574.67	2425.98
575.02	2426.50
575.37	2427.92
575.72	2428.53
576.08	2429.96
576.43	2429.86
576.78	2430.07
577.13	2431.74
577.49	2432.78
577.84	2433.68
578.19	2434.95
578.54	2435.35
578.90	2435.64
579.25	2435.40
579.60	2434.96
579.95	2433.85
580.30	2433.70
580.66	2432.85
581.01	2431.18
581.36	2428.68
581.71	2427.15
582.06	2425.78
582.42	2424.85
582.77	2422.36
583.12	2420.57
583.47	2418.99
583.82	2418.33
584.17	2417.10
584.53	2414.69
584.88	2412.39
585.23	2410.31
585.58	2407.74
585.93	2405.71
586.28	2403.53
586.63	2400.92
586.98	2398.79
587.34	2396.74
587.69	2394.09
588.04	2391.93
588.39	2390.27
588.74	2387.63
589.09	2384.70
589.44	2381.31
589.79	2378.67
590.14	2376.58
590.49	2373.67
590.84	2369.70
591.19	2366.34
591.54	2362.93
591.89	2358.81
592.25	2355.45
592.60	2351.14
592.95	2346.97
593.30	2342.77
593.65	2338.29
594.00	2333.71
594.35	2330.63
594.70	2325.96
595.05	2321.38
595.40	2315.90
595.75	2310.06
596.10	2306.29
596.45	2301.41
596.80	2296.74
597.15	2291.44
597.50	2285.41
597.85	2280.43
598.19	2275.11
598.54	2269.29
598.89	2263.94
599.24	2259.18
599.59	2252.96
599.94	2246.90
600.29	2240.88
600.64	2234.76
600.99	2227.96
601.34	2222.44
601.69	2215.46
602.04	2208.95
602.39	2202.27
602.74	2195.98
603.08	2190.51
603.43	2183.92
603.78	2176.99
604.13	2170.00
604.48	2162.66
604.83	2156.51
605.18	2150.26
605.53	2143.32
605.87	2136.30
606.22	2129.48
606.57	2121.64
606.92	2113.58
607.27	2106.79
607.62	2100.08
607.96	2093.00
608.31	2086.47
608.66	2078.78
609.01	2070.97
609.36	2063.80
609.70	2056.17
610.05	2048.40
610.40	2040.01
610.75	2031.82
611.10	2024.13
611.44	2015.18
611.79	2006.47
612.14	1996.48
612.49	1985.77
612.83	1976.39
613.18	1967.11
613.53	1957.83
613.88	1948.22
614.22	1939.67
614.57	1929.76
614.92	1919.07
615.27	1908.90
615.61	1898.83
615.96	1889.11
616.31	1879.50
616.65	1870.14
617.00	1860.43
617.35	1850.89
617.70	1841.26
618.04	1831.14
618.39	1821.01
618.74	1811.27
619.08	1801.74
619.43	1793.16
619.78	1785.02
620.12	1776.57
620.47	1767.06
620.82	1756.77
621.16	1747.09
621.51	1737.29
621.85	1727.55
622.20	1717.47
622.55	1706.94
622.89	1696.97
623.24	1687.22
623.59	1677.53
623.93	1667.49
624.28	1657.74
624.62	1647.61
624.97	1637.38
625.32	1627.63
625.66	1618.82
626.01	1610.16
626.35	1600.78
626.70	1590.67
627.04	1580.62
627.39	1570.54
627.73	1561.32
628.08	1552.58
628.43	1543.15
628.77	1533.95
629.12	1525.15
629.46	1517.32
629.81	1509.07
630.15	1499.68
630.50	1489.92
630.84	1479.53
631.19	1469.74
631.53	1460.60
631.88	1450.55
632.22	1440.61
632.57	1431.38
632.91	1421.36
633.26	1411.68
633.60	1402.26
633.95	1393.15
634.29	1383.57
634.64	1374.38
634.98	1364.35
635.32	1355.00
635.67	1346.42
636.01	1337.20
636.36	1327.53
636.70	1318.05
637.05	1308.72
637.39	1299.93
637.73	1291.49
638.08	1283.98
638.42	1275.88
638.77	1267.16
639.11	1258.88
639.45	1251.08
639.80	1242.58
640.14	1233.88
640.49	1225.00
640.83	1216.16
641.17	1208.06
641.52	1200.12
641.86	1191.47
642.20	1183.73
642.55	1175.15
642.89	1166.35
643.23	1157.78
643.58	1149.62
643.92	1140.65
644.26	1132.06
644.61	1123.56
644.95	1114.87
645.29	1105.66
645.64	1096.54
645.98	1088.02
646.32	1080.24
646.66	1071.80
647.01	1063.62
647.35	1055.52
647.69	1047.34
648.04	1039.04
648.38	1030.19
648.72	1021.41
649.06	1013.06
649.41	1004.91
649.75	996.95
650.09	989.14
650.43	981.06
650.78	972.75
651.12	965.03
651.46	957.59
651.80	950.40
652.14	943.05
652.49	935.57
652.83	928.17
653.17	920.48
653.51	912.82
653.85	905.58
654.20	898.29
654.54	890.88
654.88	883.48
655.22	876.32
655.56	869.30
655.90	862.45
656.25	855.76
656.59	848.88
656.93	841.92
657.27	834.79
657.61	827.89
657.95	821.85
658.29	815.91
658.64	809.74
658.98	803.30
659.32	796.71
659.66	790.45
660.00	784.14
660.34	778.09
660.68	771.93
661.02	765.54
661.36	759.57
661.70	753.73
662.05	748.18
662.39	742.72
662.73	737.30
663.07	731.97
663.41	726.32
663.75	720.66
664.09	714.94
664.43	709.56
664.77	704.16
665.11	698.35
665.45	692.41
665.79	686.55
666.13	680.86
666.47	675.40
666.81	669.95
667.15	664.47
667.49	659.22
667.83	653.94
668.17	648.72
668.51	643.55
668.85	638.58
669.19	633.71
669.53	628.68
669.87	623.56
670.21	618.80
670.55	614.07
670.89	609.54
671.23	605.21
671.57	600.74
671.91	596.47
672.25	592.26
672.58	588.14
672.92	584.13
673.26	580.23
673.60	576.41
673.94	572.58
674.28	569.01
674.62	565.23
674.96	561.52
675.30	557.94
675.64	554.24
675.97	550.65
676.31	546.99
676.65	543.40
676.99	539.97
677.33	536.07
677.67	532.42
678.01	528.53
678.34	524.86
678.68	521.30
679.02	517.67
679.36	513.97
679.70	510.33
680.04	506.77
680.37	503.21
680.71	499.81
681.05	496.53
681.39	493.24
681.73	490.09
682.06	487.06
682.40	483.98
682.74	480.75
683.08	477.51
683.42	474.24
683.75	471.19
684.09	468.10
684.43	465.29
684.77	462.35
685.10	459.49
685.44	456.59
685.78	453.67
686.12	450.81
686.45	448.06
686.79	445.36
687.13	442.79
687.46	440.16
687.80	437.45
688.14	434.58
688.48	431.91
688.81	429.24
689.15	426.61
689.49	423.89
689.82	421.28
690.16	418.63
690.50	416.17
690.83	413.64
691.17	411.06
691.51	408.53
691.84	406.21
692.18	403.99
692.52	401.75
692.85	399.57
693.19	397.45
693.52	395.24
693.86	392.97
694.20	390.69
694.53	388.49
694.87	386.26
695.21	384.16
695.54	381.91
695.88	379.68
696.21	377.44
696.55	375.35
696.88	373.27
697.22	371.29
697.56	369.37
697.89	367.45
698.23	365.67
698.56	363.91
698.90	362.12
699.23	360.20
699.57	358.32
699.90	356.42
700.24	354.59
700.58	352.78
700.91	351.12
701.25	349.58
701.58	347.96
701.92	346.34
702.25	344.70
702.59	343.10
702.92	341.52
703.26	339.95
703.59	338.48
703.93	337.25
704.26	335.81
704.60	334.29
704.93	332.80
705.26	331.24
705.60	329.68
705.93	328.19
706.27	326.81
706.60	325.51
706.94	324.27
707.27	322.83
707.61	321.48
707.94	320.11
708.27	318.56
708.61	317.07
708.94	315.71
709.28	314.35
709.61	313.10
709.94	311.85
710.28	310.62
710.61	309.37
710.95	307.88
711.28	306.81
711.61	305.59
711.95	304.41
712.28	303.22
712.61	302.02
712.95	300.92
713.28	299.86
713.61	298.73
713.95	297.55
714.28	296.52
714.61	295.49
714.95	294.43
715.28	293.38
715.61	292.35
715.95	291.35
716.28	290.37
716.61	289.40
716.95	288.38
717.28	287.44
717.61	286.45
717.94	285.56
718.28	284.45
718.61	283.56
718.94	282.67
719.27	281.80
719.61	280.97
719.94	280.05
720.27	279.08
720.60	278.17
720.94	277.39
721.27	276.63
721.60	275.91
721.93	275.17
722.27	274.54
722.60	273.88
722.93	273.15
723.26	272.50
723.59	271.77
723.93	271.14
724.26	270.50
724.59	269.83
724.92	269.21
725.25	268.65
725.59	268.07
725.92	267.51
726.25	266.93
726.58	266.34
726.91	265.76
727.24	265.21
727.57	264.63
727.91	263.98
728.24	263.42
728.57	262.77
728.90	262.22
729.23	261.60
729.56	261.13
729.89	260.57
730.22	259.97
730.55	259.41
730.89	258.86
731.22	258.31
731.55	257.79
731.88	257.27
732.21	256.74
732.54	256.17
732.87	255.62
733.20	255.10
733.53	254.59
733.86	254.12
734.19	253.62
734.52	253.19
734.85	252.90
735.18	252.40
735.51	252.02
735.84	251.55
736.17	251.14
736.50	250.59
736.83	250.45
737.16	250.08
737.49	249.69
737.82	249.24
738.15	248.84
738.48	248.47
738.81	248.08
739.14	247.63
739.47	247.30
739.80	246.93
740.13	246.60
740.46	246.23
740.79	245.83
741.12	245.46
741.45	245.09
741.78	244.65
742.11	244.37
742.44	243.99
742.77	243.71
743.10	243.37
743.43	243.04
743.75	242.45
744.08	242.36
744.41	242.01
744.74	241.68
745.07	241.30
745.40	240.98
745.73	240.71
746.06	240.40
746.39	240.07
746.71	239.70
747.04	239.34
747.37	239.03
747.70	238.75
748.03	238.46
748.36	238.17
748.68	237.81
749.01	237.45
749.34	237.14
749.67	236.87
750.00	236.60
750.33	236.46
750.65	236.19
750.98	235.64
751.31	235.40
751.64	235.20
751.97	235.06
752.29	234.80
752.62	234.45
752.95	234.19
753.28	233.93
753.60	233.70
753.93	233.52
754.26	233.31
754.59	233.05
754.91	232.77
755.24	232.54
755.57	232.29
755.90	232.08
756.22	231.87
756.55	231.61
756.88	231.35
757.20	231.01
757.53	230.75
757.86	230.55
758.19	230.35
758.51	230.12
758.84	229.80
759.17	229.57
759.49	229.41
759.82	229.33
760.15	229.13
760.47	228.95
760.80	228.68
761.13	228.49
761.45	228.29
761.78	228.13
762.11	227.93
762.43	227.76
762.76	227.57
763.08	227.42
763.41	227.26
763.74	227.12
764.06	226.93
764.39	226.80
764.71	226.62
765.04	226.47
765.37	226.32
765.69	226.19
766.02	226.09
766.34	225.94
766.67	225.69
767.00	225.59
767.32	225.58
767.65	225.59
767.97	225.45
768.30	225.31
768.62	225.17
768.95	225.03
769.27	224.93
769.60	224.80
769.92	224.64
770.25	224.48
770.57	224.29
770.90	224.18
771.22	224.03
771.55	223.94
771.87	223.82
772.20	223.71
772.52	223.75
772.85	223.83
773.17	223.70
773.50	223.63
773.82	223.51
774.15	223.29
774.47	223.07
774.80	222.94
775.12	222.87
775.45	222.77
775.77	222.68
776.09	222.59
776.42	222.53
776.74	222.52
777.07	222.41
777.39	222.34
777.72	222.28
778.04	222.23
778.36	222.13
778.69	222.04
779.01	221.98
779.33	221.74
779.66	221.45
779.98	221.38
780.31	221.30
780.63	221.28
780.95	221.24
781.28	221.14
781.60	221.04
781.92	220.95
782.25	220.90
782.57	220.86
782.89	220.79
783.22	220.73
783.54	220.58
783.86	220.54
784.19	220.47
784.51	220.45
784.83	220.34
785.16	220.29
785.48	220.24
785.80	220.16
786.12	220.11
786.45	220.05
786.77	220.03
787.09	219.94
787.42	219.82
787.74	219.76
788.06	219.73
788.38	219.68
788.71	219.59
789.03	219.53
789.35	219.53
789.67	219.45
789.99	219.41
790.32	219.37
790.64	219.33
790.96	219.45
791.28	219.30
791.61	219.26
791.93	219.19
792.25	219.11
792.57	219.22
792.89	219.13
793.21	219.11
793.54	219.00
793.86	218.96
794.18	218.92
794.50	218.86
794.82	218.82
795.14	218.81
795.47	218.81
795.79	218.77
796.11	218.61
796.43	218.56
796.75	218.49
797.07	218.44
797.39	218.39
797.71	218.20
798.04	218.19
798.36	218.16
798.68	218.15
799.00	218.13
799.32	217.97
799.64	217.98
799.96	217.93
800.28	217.94
800.60	217.93
800.92	217.93
801.24	217.89
801.56	217.87
801.89	217.79
802.21	217.79
802.53	217.72
802.85	217.76
803.17	217.81
803.49	217.74
803.81	217.74
804.13	217.68
804.45	217.61
804.77	217.64
805.09	217.61
805.41	217.56
805.73	217.51
806.05	217.40
806.37	217.37
806.69	217.31
807.01	217.26
807.33	217.20
807.65	217.09
807.97	217.12
808.28	217.08
808.60	217.05
808.92	216.98
809.24	217.08
809.56	217.02
809.88	216.92
810.20	216.93
810.52	216.91
810.84	216.85
811.16	216.85
811.48	216.79
811.80	216.82
812.12	216.76
812.43	216.76
812.75	216.77
813.07	216.73
813.39	216.72
813.71	216.67
814.03	216.63
814.35	216.60
814.67	216.50
814.98	216.46
815.30	216.47
815.62	216.44
815.94	216.30
816.26	216.30
816.58	216.26
816.89	216.26
817.21	216.20
817.53	216.20
817.85	216.16
818.17	216.11
818.48	216.00
818.80	216.05
819.12	216.01
819.44	215.94
819.76	215.91
820.07	215.91
820.39	215.87
820.71	215.91
821.03	215.88
821.34	215.89
821.66	215.92
821.98	215.92
822.30	215.88
822.61	215.96
822.93	215.95
823.25	215.94
823.57	215.88
823.88	215.89
824.20	215.85
824.52	215.89
824.83	215.87
825.15	215.84
825.47	215.84
825.79	215.82
826.10	215.80
826.42	215.78
826.74	215.75
827.05	215.75
827.37	215.74
827.69	215.75
828.00	215.71
828.32	215.68
828.64	215.63
828.95	215.71
829.27	215.66
829.58	215.65
829.90	215.66
830.22	215.68
830.53	215.61
830.85	215.60
831.17	215.51
831.48	215.54
831.80	215.53
832.11	215.47
832.43	215.47
832.75	215.46
833.06	215.58
833.38	215.54
833.69	215.51
834.01	215.53
834.32	215.50
834.64	215.48
834.96	215.47
835.27	215.48
835.59	215.42
835.90	215.37
836.22	215.34
836.53	215.28
836.85	215.22
837.16	215.44
837.48	215.41
837.79	215.47
838.11	215.45
838.42	215.44
838.74	215.46
839.05	215.43
839.37	215.44
839.68	215.32
840.00	215.32
840.31	215.35
840.63	215.28
840.94	215.27
841.26	215.22
841.57	215.18
841.88	215.18
842.20	215.12
842.51	215.09
842.83	215.06
843.14	215.25
843.46	215.23
843.77	215.09
844.08	215.13
844.40	215.05
844.71	215.00
845.03	214.99
845.34	214.95
845.65	214.92
845.97	214.89
846.28	214.85
846.60	214.83
846.91	214.80
847.22	214.79
847.54	214.81
847.85	214.83
848.16	214.82
848.48	214.77
848.79	214.88
849.10	214.88
849.42	214.88
849.73	214.69
850.04	214.71
850.36	214.63
850.67	214.66
850.98	214.66
851.30	214.69
851.61	214.71
851.92	214.73
852.23	214.81
852.55	214.88
852.86	214.91
853.17	214.93
853.49	214.96
853.80	215.00
854.11	215.01
854.42	215.03
854.74	215.01
855.05	214.99
855.36	214.89
855.67	214.93
855.99	214.93
856.30	215.13
856.61	215.13
856.92	215.17
857.23	215.17
857.55	215.13
857.86	215.12
858.17	215.13
858.48	215.08
858.79	215.01
859.11	214.98
859.42	214.96
859.73	214.93
860.04	214.91
860.35	214.84
860.66	214.79
860.98	214.77
861.29	214.80
861.60	214.81
861.91	214.84
862.22	214.78
862.53	214.79
862.84	214.60
863.16	214.64
863.47	214.59
863.78	214.55
864.09	214.59
864.40	214.61
864.71	214.63
865.02	214.67
865.33	214.65
865.64	214.58
865.95	214.60
866.27	214.76
866.58	214.72
866.89	214.76
867.20	214.74
867.51	214.69
867.82	214.70
868.13	214.71
868.44	214.64
868.75	214.67
869.06	214.63
869.37	214.67
869.68	214.57
869.99	214.56
870.30	214.59
870.61	214.59
870.92	214.54
871.23	214.48
871.54	214.51
871.85	214.57
872.16	214.63
872.47	214.60
872.78	214.44
873.09	214.48
873.40	214.43
873.71	214.44
874.02	214.45
874.33	214.44
874.64	214.44
874.95	214.51
875.26	214.45
875.56	214.44
875.87	214.40
876.18	214.42
876.49	214.64
876.80	214.63
877.11	214.58
877.42	214.59
877.73	214.64
878.04	214.59
878.35	214.59
878.66	214.61
878.96	214.61
879.27	214.63
879.58	214.64
879.89	214.64
880.20	214.69
880.51	214.69
880.82	214.70
881.12	214.69
881.43	214.68
881.74	214.67
882.05	214.69
882.36	214.69
882.67	214.72
882.97	214.49
883.28	214.48
883.59	214.49
883.90	214.50
884.21	214.52
884.51	214.51
884.82	214.47
885.13	214.46
885.44	214.43
885.74	214.41
886.05	214.39
886.36	214.42
886.67	214.37
886.98	214.48
887.28	214.50
887.59	214.49
887.90	214.46
888.20	214.46
888.51	214.47
888.82	214.43
889.13	214.44
889.43	214.60
889.74	214.54
890.05	214.56
890.35	214.55
890.66	214.49
890.97	214.46
891.28	214.46
891.58	214.44
891.89	214.43
892.20	214.41
892.50	214.39
892.81	214.36
893.12	214.35
893.42	214.23
893.73	214.21
894.04	214.20
894.34	214.23
894.65	214.20
894.95	214.19
895.26	214.21
895.57	214.29
895.87	214.09
896.18	214.15
896.48	214.15
896.79	214.13
897.10	214.15
897.40	214.15
897.71	214.17
898.01	214.12
898.32	214.15
898.63	214.12
898.93	214.14
899.24	214.16
899.54	214.14
899.85	214.14
900.15	214.13
900.46	214.16
900.76	214.19
901.07	214.18
901.38	214.19
901.68	214.20
901.99	214.11
902.29	214.12
902.60	214.11
902.90	214.09
903.21	214.10
903.51	214.08
903.82	214.11
904.12	214.12
904.43	214.18
904.73	214.16
905.03	214.18
905.34	214.36
905.64	214.33
905.95	214.34
906.25	214.35
906.56	214.36
906.86	214.34
907.17	214.33
907.47	214.36
907.77	214.34
908.08	214.34
908.38	214.33
908.69	214.39
908.99	214.43
909.30	214.43
909.60	214.45
909.90	214.45
910.21	214.40
910.51	214.36
910.81	214.34
911.12	214.35
911.42	214.39
911.73	214.17
912.03	214.19
912.33	214.23
912.64	214.23
912.94	214.17
913.24	214.13
913.55	214.08
913.85	214.04
914.15	214.05
914.46	214.05
914.76	214.02
915.06	213.98
915.37	213.93
915.67	213.93
915.97	213.91
916.27	213.90
916.58	213.94
916.88	213.93
917.18	213.91
917.49	214.04
917.79	214.02
918.09	214.08
918.39	214.13
918.70	214.10
919.00	214.11
919.30	214.22
919.60	214.23
919.91	214.24
920.21	214.29
920.51	214.28
920.81	214.25
921.12	214.27
921.42	214.24
921.72	214.26
922.02	214.26
922.32	214.28
922.63	214.24
922.93	214.33
923.23	214.32
923.53	214.30
923.83	214.17
924.13	214.19
924.44	214.17
924.74	214.21
925.04	214.28
925.34	214.27
925.64	214.19
925.94	214.16
926.24	214.26
926.55	214.25
926.85	214.27
927.15	214.31
927.45	214.34
927.75	214.38
928.05	214.38
928.35	214.38
928.65	214.42
928.95	214.47
929.26	214.37
929.56	214.44
929.86	214.47
930.16	214.47
930.46	214.43
930.76	214.43
931.06	214.32
931.36	214.26
931.66	214.29
931.96	214.33
932.26	214.36
932.56	214.28
932.86	214.27
933.16	214.29
933.46	214.27
933.76	214.23
934.06	214.27
934.36	214.34
934.66	214.34
934.96	214.31
935.26	214.32
935.56	214.34
935.86	214.27
936.16	214.25
936.46	214.24
936.76	214.27
937.06	214.23
937.36	214.27
937.66	214.27
937.96	214.26
938.26	214.22
938.56	214.23
938.86	214.24
939.16	214.29
939.46	214.29
939.76	214.26
940.06	214.27
940.35	214.21
940.65	214.08
940.95	214.09
941.25	214.09
941.55	214.03
941.85	214.01
942.15	214.07
942.45	214.13
942.75	214.12
943.04	214.10
943.34	214.15
943.64	214.09
943.94	214.04
944.24	214.01
944.54	214.02
944.84	213.98
945.13	213.92
945.43	213.89
945.73	213.89
946.03	213.88
946.33	213.87
946.62	213.85
946.92	213.87
947.22	213.86
947.52	213.86
947.82	213.93
948.11	213.90
948.41	213.85
948.71	213.78
949.01	213.82
949.31	213.81
949.60	213.78
949.90	213.83
950.20	213.85
950.50	213.89
950.79	213.84
951.09	213.90
951.39	213.91
951.69	213.89
951.98	213.94
952.28	213.95
952.58	213.93
952.87	213.98
953.17	214.00
953.47	213.96
953.76	213.91
954.06	213.85
954.36	213.81
954.66	213.84
954.95	213.88
955.25	213.87
955.55	213.91
955.84	213.87
956.14	213.89
956.44	213.90
956.73	213.85
957.03	213.90
957.32	213.87
957.62	213.89
957.92	213.92
958.21	213.87
958.51	214.12
958.81	214.14
959.10	214.14
959.40	214.17
959.69	214.21
959.99	214.25
960.29	214.26
960.58	214.27
960.88	214.30
961.17	214.32
961.47	214.34
961.76	214.31
962.06	214.36
962.36	214.33
962.65	214.33
962.95	214.33
963.24	214.31
963.54	214.34
963.83	214.35
964.13	214.34
964.42	214.27
964.72	214.09
965.01	214.09
965.31	214.09
965.60	214.04
965.90	214.14
966.19	214.12
966.49	214.16
966.78	214.16
967.08	214.17
967.37	214.16
967.67	214.10
967.96	214.13
968.26	214.13
968.55	214.15
968.85	214.17
969.14	214.21
969.43	214.20
969.73	214.14
970.02	214.13
970.32	214.12
970.61	214.13
970.91	214.10
971.20	214.09
971.49	214.07
971.79	214.09
972.08	213.96
972.38	213.95
972.67	213.91
972.96	213.95
973.26	213.90
973.55	213.98
973.85	213.96
974.14	213.96
974.43	213.96
974.73	213.92
975.02	213.88
975.31	213.88
975.61	213.85
975.90	213.88
976.19	213.86
976.49	213.89
976.78	213.94
977.07	213.91
977.37	213.92
977.66	213.92
977.95	213.89
978.24	213.91
978.54	213.97
978.83	213.95
979.12	213.92
979.42	213.92
979.71	213.86
980.00	213.87
980.29	213.86
980.59	213.79
980.88	213.83
981.17	213.83
981.46	213.84
981.76	213.88
982.05	213.90
982.34	213.90
982.63	213.89
982.93	213.89
983.22	213.93
983.51	213.92
983.80	213.96
984.09	214.01
984.39	213.99
984.68	213.94
984.97	213.95
985.26	213.92
985.55	213.92
985.85	213.89
986.14	213.93
986.43	213.95
986.72	213.99
987.01	213.94
987.30	213.95
987.59	213.90
987.89	213.87
988.18	213.81
988.47	213.81
988.76	213.78
989.05	213.73
989.34	213.70
989.63	213.74
989.92	213.72
990.22	213.66
990.51	213.65
990.80	213.65
991.09	213.69
991.38	213.71
991.67	213.70
991.96	213.65
992.25	213.66
992.54	213.64
992.83	213.62
993.12	213.61
993.41	213.63
993.70	213.75
993.99	213.81
994.28	213.86
994.58	213.91
994.87	213.87
995.16	213.89
995.45	213.86
995.74	213.79
996.03	213.79
996.32	213.84
996.61	213.89
996.90	213.87
997.19	213.85
997.48	213.87
997.77	213.85
998.06	213.91
998.34	213.88
998.63	213.86
998.92	213.88
999.21	213.94
999.50	213.92
999.79	213.83
1000.08	213.81
1000.37	213.79
1000.66	213.77
1000.95	213.88
1001.24	213.86
1001.53	213.89
1001.82	213.90
1002.11	213.88
1002.40	213.91
1002.68	213.92
1002.97	214.09
1003.26	214.08
1003.55	214.05
1003.84	214.07
1004.13	214.11
1004.42	214.07
1004.71	214.09
1004.99	214.07
1005.28	214.09
1005.57	214.08
1005.86	214.06
1006.15	214.07
1006.44	214.02
1006.72	214.02
1007.01	213.91
1007.30	213.97
1007.59	213.95
1007.88	213.95
1008.17	213.93
1008.45	213.92
1008.74	213.86
1009.03	213.74
1009.32	213.74
1009.60	213.72
1009.89	213.71
1010.18	213.64
1010.47	213.66
1010.76	213.66
1011.04	213.66
1011.33	213.67
1011.62	213.67
1011.91	213.68
1012.19	213.65
1012.48	213.69
1012.77	213.69
1013.05	213.82
1013.34	213.75
1013.63	213.74
1013.92	213.77
1014.20	213.78
1014.49	213.77
1014.78	213.79
1015.06	213.78
1015.35	213.76
1015.64	213.85
1015.92	213.87
1016.21	213.88
1016.50	213.88
1016.78	213.89
1017.07	213.89
1017.36	213.84
1017.64	213.84
1017.93	213.84
1018.22	213.87
1018.50	213.84
1018.79	213.83
1019.08	213.73
1019.36	213.78
1019.65	213.77
1019.93	213.81
1020.22	213.82
1020.51	213.92
1020.79	213.89
1021.08	213.96
1021.36	213.20
1021.65	213.59
1021.94	213.29
1022.22	214.18
1022.51	213.39
1022.79	214.68
1023.08	213.77
1023.36	216.55
1023.65	213.46
>>>>>End Processed Spectral Data<<<<<
