SpectraSuite Data File
++++++++++++++++++++++++++++++++++++
Date: Tue Jan 29 16:49:26 EST 2013
User: group
Dark Spectrum Present: No
Reference Spectrum Present: No
Number of Sampled Component Spectra: 1
Spectrometers: USB2E7196
Integration Time (usec): 65000 (USB2E7196)
Spectra Averaged: 100 (USB2E7196)
Boxcar Smoothing: 10 (USB2E7196)
Correct for Electrical Dark: No (USB2E7196)
Strobe/Lamp Enabled: No (USB2E7196)
Correct for Detector Non-linearity: No (USB2E7196)
Correct for Stray Light: No (USB2E7196)
Number of Pixels in Processed Spectrum: 2048
>>>>>Begin Processed Spectral Data<<<<<
339.09	0.00
339.48	201.40
339.86	202.57
340.24	204.28
340.63	205.53
341.01	209.79
341.39	208.13
341.78	210.11
342.16	211.03
342.54	210.92
342.93	200.58
343.31	210.72
343.69	211.27
344.07	211.77
344.46	212.23
344.84	212.65
345.22	212.84
345.60	213.12
345.99	213.30
346.37	213.44
346.75	213.59
347.13	213.68
347.52	213.79
347.90	213.92
348.28	213.96
348.66	214.05
349.05	214.03
349.43	214.16
349.81	214.26
350.19	214.32
350.57	214.38
350.96	214.50
351.34	214.63
351.72	214.75
352.10	214.87
352.48	214.93
352.87	214.97
353.25	215.05
353.63	215.15
354.01	215.22
354.39	215.32
354.77	215.39
355.15	215.55
355.54	215.61
355.92	215.62
356.30	215.70
356.68	215.94
357.06	216.02
357.44	216.05
357.82	216.09
358.20	216.16
358.58	216.26
358.97	216.30
359.35	216.39
359.73	216.50
360.11	216.58
360.49	216.65
360.87	216.73
361.25	216.83
361.63	216.92
362.01	216.99
362.39	217.01
362.77	217.10
363.15	217.11
363.53	217.15
363.91	217.20
364.29	217.25
364.67	217.04
365.05	217.08
365.43	217.13
365.81	217.19
366.19	217.31
366.57	217.37
366.95	217.38
367.33	217.32
367.71	217.30
368.09	217.30
368.47	217.28
368.85	217.26
369.23	217.27
369.61	217.19
369.99	217.25
370.37	217.27
370.75	217.34
371.13	217.25
371.51	217.18
371.89	217.17
372.27	217.14
372.65	217.13
373.03	217.09
373.41	217.02
373.78	216.95
374.16	216.78
374.54	216.69
374.92	216.66
375.30	216.65
375.68	216.55
376.06	216.50
376.44	216.46
376.82	216.43
377.19	216.37
377.57	216.34
377.95	216.23
378.33	216.17
378.71	215.97
379.09	215.99
379.47	215.96
379.84	215.90
380.22	215.84
380.60	215.76
380.98	215.73
381.36	215.69
381.73	215.62
382.11	215.63
382.49	215.59
382.87	215.49
383.25	215.39
383.62	215.62
384.00	215.55
384.38	215.52
384.76	215.50
385.13	215.53
385.51	215.48
385.89	215.40
386.27	215.35
386.64	215.34
387.02	215.29
387.40	215.26
387.78	215.21
388.15	215.17
388.53	215.13
388.91	215.07
389.29	215.02
389.66	215.05
390.04	214.99
390.42	214.99
390.79	215.00
391.17	215.00
391.55	214.73
391.92	214.69
392.30	214.69
392.68	214.66
393.05	214.61
393.43	214.62
393.81	214.65
394.18	214.63
394.56	214.64
394.94	214.67
395.31	214.64
395.69	214.71
396.06	214.79
396.44	214.82
396.82	214.84
397.19	214.97
397.57	214.99
397.95	215.06
398.32	215.05
398.70	215.11
399.07	215.21
399.45	215.24
399.82	215.29
400.20	215.32
400.58	215.35
400.95	215.34
401.33	215.47
401.70	215.67
402.08	215.77
402.45	215.87
402.83	216.01
403.20	216.16
403.58	216.23
403.95	216.38
404.33	216.57
404.71	216.74
405.08	217.00
405.46	217.14
405.83	217.31
406.21	217.51
406.58	217.74
406.96	217.96
407.33	218.23
407.70	218.57
408.08	219.03
408.45	219.39
408.83	219.78
409.20	220.10
409.58	220.39
409.95	220.86
410.33	221.34
410.70	221.76
411.08	222.28
411.45	222.88
411.82	223.43
412.20	224.10
412.57	224.95
412.95	225.51
413.32	226.36
413.69	227.20
414.07	228.08
414.44	229.06
414.82	230.13
415.19	231.36
415.56	232.55
415.94	233.78
416.31	235.20
416.68	236.64
417.06	238.32
417.43	239.84
417.81	241.55
418.18	243.34
418.55	245.29
418.93	247.38
419.30	249.49
419.67	251.76
420.04	254.05
420.42	256.42
420.79	259.28
421.16	262.06
421.54	264.99
421.91	268.03
422.28	271.16
422.66	274.44
423.03	277.72
423.40	281.13
423.77	284.73
424.15	288.42
424.52	292.30
424.89	296.44
425.26	300.63
425.64	304.59
426.01	308.94
426.38	313.48
426.75	318.05
427.13	322.79
427.50	327.81
427.87	333.05
428.24	338.28
428.61	343.30
428.99	348.92
429.36	355.01
429.73	360.99
430.10	366.92
430.47	373.06
430.85	379.43
431.22	386.11
431.59	393.29
431.96	400.20
432.33	407.75
432.70	415.07
433.08	423.63
433.45	431.72
433.82	439.78
434.19	448.74
434.56	457.53
434.93	465.94
435.30	474.27
435.68	483.48
436.05	492.50
436.42	501.54
436.79	509.70
437.16	518.50
437.53	527.80
437.90	537.01
438.27	546.07
438.64	555.28
439.01	563.87
439.38	571.53
439.75	578.90
440.13	587.37
440.50	595.36
440.87	601.84
441.24	608.60
441.61	616.00
441.98	621.43
442.35	627.81
442.72	634.25
443.09	640.34
443.46	644.09
443.83	646.77
444.20	648.95
444.57	652.21
444.94	653.71
445.31	655.23
445.68	656.64
446.05	657.26
446.42	656.62
446.79	655.78
447.16	654.68
447.53	653.92
447.90	650.61
448.27	647.40
448.64	642.77
449.01	639.41
449.37	633.47
449.74	627.75
450.11	620.79
450.48	613.39
450.85	605.89
451.22	599.40
451.59	593.22
451.96	587.30
452.33	579.39
452.70	572.25
453.07	563.71
453.43	555.04
453.80	546.67
454.17	538.55
454.54	530.92
454.91	522.67
455.28	514.63
455.65	507.14
456.02	499.52
456.38	493.12
456.75	485.19
457.12	478.57
457.49	471.98
457.86	465.74
458.23	460.20
458.59	454.23
458.96	448.18
459.33	442.74
459.70	437.39
460.07	433.03
460.43	428.07
460.80	423.40
461.17	419.35
461.54	415.11
461.91	411.06
462.27	406.89
462.64	403.45
463.01	399.63
463.38	395.90
463.74	392.14
464.11	388.84
464.48	386.02
464.85	382.95
465.21	380.49
465.58	377.82
465.95	374.66
466.32	372.05
466.68	369.39
467.05	366.81
467.42	364.20
467.78	361.50
468.15	358.91
468.52	356.98
468.88	354.51
469.25	352.22
469.62	350.39
469.98	348.37
470.35	346.50
470.72	344.76
471.08	342.94
471.45	341.40
471.82	339.85
472.18	338.12
472.55	336.86
472.92	335.45
473.28	334.22
473.65	333.08
474.02	331.92
474.38	331.04
474.75	330.24
475.11	329.37
475.48	328.77
475.85	328.30
476.21	327.79
476.58	327.40
476.94	327.16
477.31	326.83
477.67	326.56
478.04	326.37
478.41	326.33
478.77	326.46
479.14	326.44
479.50	326.55
479.87	326.86
480.23	327.15
480.60	327.38
480.96	327.67
481.33	328.27
481.69	328.84
482.06	329.33
482.42	329.81
482.79	330.44
483.15	331.23
483.52	332.16
483.88	333.05
484.25	333.98
484.61	335.01
484.98	336.07
485.34	337.40
485.71	338.85
486.07	340.31
486.44	341.67
486.80	343.26
487.17	344.94
487.53	346.73
487.90	348.61
488.26	350.66
488.62	352.88
488.99	354.89
489.35	357.03
489.72	359.44
490.08	361.99
490.44	364.55
490.81	367.26
491.17	370.00
491.54	373.00
491.90	376.04
492.26	379.29
492.63	382.71
492.99	386.21
493.36	389.83
493.72	393.67
494.08	397.73
494.45	401.96
494.81	406.31
495.17	410.74
495.54	415.47
495.90	420.28
496.26	425.13
496.63	430.34
496.99	435.74
497.35	441.33
497.72	447.10
498.08	453.03
498.44	459.12
498.80	465.56
499.17	472.02
499.53	478.73
499.89	485.70
500.26	492.69
500.62	499.85
500.98	507.26
501.34	514.72
501.71	522.47
502.07	530.28
502.43	538.30
502.79	546.46
503.16	554.88
503.52	563.46
503.88	572.21
504.24	581.17
504.60	590.30
504.97	599.59
505.33	608.90
505.69	618.72
506.05	628.57
506.41	638.45
506.78	648.52
507.14	658.81
507.50	669.16
507.86	679.84
508.22	690.46
508.59	701.19
508.95	712.14
509.31	723.39
509.67	734.82
510.03	746.17
510.39	757.87
510.75	769.60
511.12	781.50
511.48	793.63
511.84	805.83
512.20	818.09
512.56	830.65
512.92	843.49
513.28	856.21
513.64	868.97
514.00	881.87
514.37	894.93
514.73	908.04
515.09	921.07
515.45	934.05
515.81	947.24
516.17	960.57
516.53	973.96
516.89	986.96
517.25	1000.15
517.61	1013.70
517.97	1027.21
518.33	1040.43
518.69	1054.10
519.05	1067.85
519.41	1081.59
519.77	1095.57
520.13	1108.87
520.49	1121.95
520.85	1135.29
521.21	1148.63
521.57	1162.26
521.93	1175.33
522.29	1189.19
522.65	1202.89
523.01	1216.48
523.37	1229.62
523.73	1242.99
524.09	1256.22
524.45	1269.81
524.81	1283.38
525.17	1296.90
525.53	1310.03
525.89	1323.37
526.25	1336.51
526.61	1349.34
526.97	1362.57
527.33	1375.64
527.68	1389.17
528.04	1402.77
528.40	1415.92
528.76	1429.33
529.12	1442.21
529.48	1455.45
529.84	1467.65
530.20	1480.42
530.56	1493.01
530.91	1506.36
531.27	1519.25
531.63	1532.05
531.99	1544.84
532.35	1557.15
532.71	1569.57
533.07	1582.60
533.42	1595.00
533.78	1607.13
534.14	1619.38
534.50	1630.61
534.86	1642.23
535.21	1653.17
535.57	1664.83
535.93	1676.22
536.29	1687.43
536.65	1699.10
537.00	1710.37
537.36	1721.80
537.72	1732.92
538.08	1744.53
538.44	1755.62
538.79	1766.89
539.15	1777.95
539.51	1788.80
539.87	1800.16
540.22	1811.04
540.58	1821.95
540.94	1832.91
541.29	1843.34
541.65	1853.08
542.01	1863.69
542.37	1873.69
542.72	1884.00
543.08	1893.87
543.44	1904.49
543.79	1913.77
544.15	1923.12
544.51	1933.06
544.87	1943.00
545.22	1952.22
545.58	1961.09
545.94	1970.04
546.29	1978.47
546.65	1986.84
547.01	1995.11
547.36	2002.96
547.72	2010.86
548.07	2018.60
548.43	2026.34
548.79	2034.24
549.14	2042.45
549.50	2051.03
549.86	2059.07
550.21	2066.55
550.57	2074.23
550.92	2081.06
551.28	2088.76
551.64	2096.17
551.99	2103.77
552.35	2110.93
552.70	2117.95
553.06	2124.65
553.41	2130.85
553.77	2137.47
554.13	2143.98
554.48	2151.12
554.84	2158.16
555.19	2164.72
555.55	2171.19
555.90	2177.53
556.26	2184.31
556.61	2190.53
556.97	2195.37
557.32	2201.10
557.68	2207.42
558.03	2213.25
558.39	2218.45
558.74	2224.36
559.10	2229.79
559.45	2235.19
559.81	2240.82
560.16	2246.16
560.52	2252.06
560.87	2258.55
561.23	2264.36
561.58	2270.82
561.94	2275.99
562.29	2280.55
562.64	2286.49
563.00	2291.97
563.35	2297.41
563.71	2303.07
564.06	2308.58
564.42	2314.43
564.77	2319.31
565.12	2324.45
565.48	2329.46
565.83	2334.90
566.19	2340.16
566.54	2345.41
566.89	2349.91
567.25	2354.40
567.60	2360.24
567.96	2365.13
568.31	2369.55
568.66	2373.72
569.02	2377.51
569.37	2381.14
569.72	2385.49
570.08	2388.90
570.43	2391.98
570.78	2395.10
571.14	2397.46
571.49	2400.48
571.84	2403.90
572.20	2406.85
572.55	2409.83
572.90	2411.87
573.26	2414.60
573.61	2417.09
573.96	2419.10
574.31	2421.15
574.67	2422.93
575.02	2423.42
575.37	2424.90
575.72	2425.38
576.08	2426.68
576.43	2426.85
576.78	2427.24
577.13	2428.60
577.49	2429.68
577.84	2430.55
578.19	2431.71
578.54	2432.08
578.90	2432.54
579.25	2432.23
579.60	2431.85
579.95	2430.86
580.30	2430.79
580.66	2429.92
581.01	2428.03
581.36	2425.53
581.71	2423.85
582.06	2422.43
582.42	2421.34
582.77	2418.88
583.12	2417.16
583.47	2415.73
583.82	2414.60
584.17	2413.10
584.53	2410.95
584.88	2408.63
585.23	2406.58
585.58	2404.11
585.93	2402.03
586.28	2399.77
586.63	2397.13
586.98	2394.84
587.34	2392.65
587.69	2390.17
588.04	2388.05
588.39	2386.39
588.74	2383.83
589.09	2380.84
589.44	2377.46
589.79	2374.74
590.14	2372.56
590.49	2369.63
590.84	2365.47
591.19	2362.36
591.54	2358.96
591.89	2354.58
592.25	2351.18
592.60	2346.85
592.95	2342.57
593.30	2338.17
593.65	2333.53
594.00	2328.93
594.35	2325.76
594.70	2321.05
595.05	2316.16
595.40	2310.52
595.75	2304.62
596.10	2300.92
596.45	2296.18
596.80	2291.54
597.15	2286.49
597.50	2280.49
597.85	2275.43
598.19	2270.31
598.54	2264.55
598.89	2259.13
599.24	2254.71
599.59	2248.40
599.94	2242.42
600.29	2236.37
600.64	2230.47
600.99	2223.63
601.34	2218.20
601.69	2211.31
602.04	2204.89
602.39	2198.40
602.74	2192.28
603.08	2186.95
603.43	2180.45
603.78	2173.48
604.13	2166.41
604.48	2158.99
604.83	2152.90
605.18	2146.53
605.53	2139.56
605.87	2132.43
606.22	2125.71
606.57	2117.70
606.92	2109.79
607.27	2102.89
607.62	2096.14
607.96	2089.20
608.31	2082.87
608.66	2075.12
609.01	2067.35
609.36	2060.19
609.70	2052.40
610.05	2044.52
610.40	2035.93
610.75	2027.41
611.10	2019.78
611.44	2010.93
611.79	2002.19
612.14	1992.30
612.49	1981.74
612.83	1972.39
613.18	1963.06
613.53	1953.85
613.88	1944.30
614.22	1935.66
614.57	1925.86
614.92	1915.36
615.27	1905.02
615.61	1894.88
615.96	1885.23
616.31	1875.68
616.65	1866.27
617.00	1856.71
617.35	1847.07
617.70	1837.46
618.04	1827.65
618.39	1817.59
618.74	1808.01
619.08	1798.33
619.43	1789.60
619.78	1781.33
620.12	1772.78
620.47	1763.34
620.82	1752.97
621.16	1743.30
621.51	1733.51
621.85	1723.74
622.20	1713.50
622.55	1703.10
622.89	1693.08
623.24	1683.34
623.59	1673.57
623.93	1663.51
624.28	1653.66
624.62	1643.76
624.97	1633.57
625.32	1623.75
625.66	1614.73
626.01	1606.00
626.35	1596.83
626.70	1586.92
627.04	1577.09
627.39	1567.03
627.73	1557.92
628.08	1549.18
628.43	1539.73
628.77	1530.69
629.12	1521.91
629.46	1514.17
629.81	1506.01
630.15	1496.86
630.50	1487.15
630.84	1476.85
631.19	1467.02
631.53	1457.87
631.88	1447.78
632.22	1437.90
632.57	1428.61
632.91	1418.77
633.26	1409.00
633.60	1399.54
633.95	1390.33
634.29	1380.89
634.64	1371.66
634.98	1361.70
635.32	1352.41
635.67	1343.93
636.01	1334.65
636.36	1324.90
636.70	1315.40
637.05	1306.06
637.39	1297.15
637.73	1288.56
638.08	1280.99
638.42	1273.09
638.77	1264.41
639.11	1256.28
639.45	1248.65
639.80	1240.26
640.14	1231.54
640.49	1222.87
640.83	1214.10
641.17	1205.93
641.52	1197.77
641.86	1189.31
642.20	1181.49
642.55	1172.93
642.89	1164.11
643.23	1155.54
643.58	1147.62
643.92	1138.70
644.26	1130.05
644.61	1121.65
644.95	1113.01
645.29	1103.96
645.64	1094.79
645.98	1086.31
646.32	1078.44
646.66	1069.87
647.01	1061.57
647.35	1053.47
647.69	1045.13
648.04	1036.96
648.38	1028.24
648.72	1019.69
649.06	1011.25
649.41	1003.14
649.75	995.26
650.09	987.47
650.43	979.53
650.78	971.22
651.12	963.53
651.46	956.17
651.80	948.89
652.14	941.61
652.49	934.23
652.83	926.98
653.17	919.30
653.51	911.78
653.85	904.65
654.20	897.51
654.54	890.11
654.88	882.82
655.22	875.58
655.56	868.57
655.90	861.67
656.25	855.05
656.59	848.26
656.93	841.28
657.27	834.22
657.61	827.12
657.95	821.01
658.29	815.15
658.64	809.03
658.98	802.68
659.32	796.12
659.66	789.76
660.00	783.45
660.34	777.40
660.68	771.24
661.02	764.89
661.36	758.77
661.70	753.00
662.05	747.47
662.39	741.98
662.73	736.61
663.07	731.21
663.41	725.65
663.75	719.88
664.09	714.12
664.43	708.69
664.77	703.48
665.11	697.68
665.45	691.79
665.79	685.99
666.13	680.32
666.47	674.90
666.81	669.50
667.15	664.03
667.49	658.89
667.83	653.57
668.17	648.34
668.51	643.35
668.85	638.43
669.19	633.55
669.53	628.55
669.87	623.43
670.21	618.69
670.55	613.96
670.89	609.42
671.23	605.10
671.57	600.66
671.91	596.31
672.25	592.14
672.58	587.94
672.92	583.87
673.26	579.88
673.60	576.05
673.94	572.22
674.28	568.63
674.62	564.86
674.96	561.20
675.30	557.63
675.64	553.87
675.97	550.18
676.31	546.46
676.65	542.86
676.99	539.40
677.33	535.52
677.67	531.82
678.01	528.02
678.34	524.42
678.68	520.87
679.02	517.31
679.36	513.62
679.70	509.97
680.04	506.36
680.37	502.93
680.71	499.47
681.05	496.24
681.39	492.93
681.73	489.71
682.06	486.64
682.40	483.55
682.74	480.37
683.08	477.14
683.42	473.94
683.75	470.88
684.09	467.82
684.43	464.97
684.77	462.03
685.10	459.15
685.44	456.19
685.78	453.25
686.12	450.37
686.45	447.63
686.79	444.96
687.13	442.38
687.46	439.69
687.80	436.99
688.14	434.07
688.48	431.43
688.81	428.72
689.15	426.10
689.49	423.46
689.82	420.89
690.16	418.29
690.50	415.86
690.83	413.33
691.17	410.77
691.51	408.26
691.84	405.99
692.18	403.75
692.52	401.50
692.85	399.34
693.19	397.22
693.52	395.01
693.86	392.74
694.20	390.55
694.53	388.39
694.87	386.19
695.21	384.06
695.54	381.87
695.88	379.72
696.21	377.49
696.55	375.35
696.88	373.29
697.22	371.30
697.56	369.36
697.89	367.46
698.23	365.68
698.56	363.89
698.90	362.07
699.23	360.15
699.57	358.26
699.90	356.35
700.24	354.47
700.58	352.68
700.91	350.98
701.25	349.40
701.58	347.79
701.92	346.20
702.25	344.60
702.59	342.91
702.92	341.32
703.26	339.78
703.59	338.25
703.93	336.97
704.26	335.49
704.60	333.95
704.93	332.48
705.26	330.95
705.60	329.49
705.93	327.94
706.27	326.59
706.60	325.29
706.94	324.05
707.27	322.66
707.61	321.31
707.94	319.93
708.27	318.39
708.61	316.91
708.94	315.46
709.28	314.14
709.61	312.92
709.94	311.67
710.28	310.39
710.61	309.17
710.95	307.71
711.28	306.62
711.61	305.40
711.95	304.20
712.28	302.99
712.61	301.74
712.95	300.68
713.28	299.62
713.61	298.51
713.95	297.33
714.28	296.30
714.61	295.24
714.95	294.24
715.28	293.20
715.61	292.18
715.95	291.24
716.28	290.24
716.61	289.27
716.95	288.24
717.28	287.33
717.61	286.34
717.94	285.44
718.28	284.37
718.61	283.48
718.94	282.61
719.27	281.73
719.61	280.93
719.94	280.04
720.27	279.07
720.60	278.19
720.94	277.38
721.27	276.58
721.60	275.88
721.93	275.13
722.27	274.51
722.60	273.86
722.93	273.14
723.26	272.50
723.59	271.75
723.93	271.16
724.26	270.48
724.59	269.84
724.92	269.23
725.25	268.70
725.59	268.15
725.92	267.57
726.25	266.99
726.58	266.43
726.91	265.79
727.24	265.23
727.57	264.61
727.91	263.99
728.24	263.48
728.57	262.87
728.90	262.31
729.23	261.61
729.56	261.14
729.89	260.57
730.22	259.98
730.55	259.43
730.89	258.86
731.22	258.31
731.55	257.80
731.88	257.25
732.21	256.68
732.54	256.10
732.87	255.59
733.20	255.10
733.53	254.56
733.86	254.12
734.19	253.66
734.52	253.27
734.85	252.99
735.18	252.46
735.51	252.05
735.84	251.60
736.17	251.24
736.50	250.74
736.83	250.56
737.16	250.18
737.49	249.79
737.82	249.38
738.15	249.00
738.48	248.60
738.81	248.23
739.14	247.81
739.47	247.45
739.80	247.09
740.13	246.71
740.46	246.32
740.79	245.91
741.12	245.51
741.45	245.11
741.78	244.63
742.11	244.34
742.44	243.96
742.77	243.65
743.10	243.27
743.43	242.86
743.75	242.28
744.08	242.19
744.41	241.81
744.74	241.46
745.07	241.07
745.40	240.75
745.73	240.48
746.06	240.14
746.39	239.81
746.71	239.43
747.04	239.09
747.37	238.77
747.70	238.50
748.03	238.21
748.36	237.94
748.68	237.64
749.01	237.27
749.34	236.99
749.67	236.71
750.00	236.45
750.33	236.31
750.65	236.09
750.98	235.55
751.31	235.34
751.64	235.10
751.97	234.99
752.29	234.72
752.62	234.38
752.95	234.12
753.28	233.84
753.60	233.60
753.93	233.44
754.26	233.23
754.59	232.97
754.91	232.69
755.24	232.45
755.57	232.17
755.90	231.95
756.22	231.69
756.55	231.44
756.88	231.17
757.20	230.84
757.53	230.54
757.86	230.33
758.19	230.12
758.51	229.91
758.84	229.59
759.17	229.38
759.49	229.25
759.82	229.17
760.15	228.99
760.47	228.81
760.80	228.52
761.13	228.36
761.45	228.12
761.78	227.93
762.11	227.76
762.43	227.62
762.76	227.45
763.08	227.30
763.41	227.14
763.74	227.00
764.06	226.85
764.39	226.69
764.71	226.52
765.04	226.35
765.37	226.20
765.69	226.05
766.02	225.91
766.34	225.73
766.67	225.53
767.00	225.44
767.32	225.44
767.65	225.45
767.97	225.31
768.30	225.26
768.62	225.13
768.95	224.97
769.27	224.86
769.60	224.77
769.92	224.60
770.25	224.44
770.57	224.29
770.90	224.17
771.22	224.05
771.55	223.97
771.87	223.89
772.20	223.76
772.52	223.80
772.85	223.95
773.17	223.84
773.50	223.69
773.82	223.55
774.15	223.34
774.47	223.13
774.80	222.95
775.12	222.83
775.45	222.78
775.77	222.67
776.09	222.56
776.42	222.46
776.74	222.47
777.07	222.38
777.39	222.29
777.72	222.19
778.04	222.14
778.36	222.05
778.69	221.98
779.01	221.90
779.33	221.66
779.66	221.32
779.98	221.23
780.31	221.12
780.63	221.11
780.95	221.10
781.28	221.01
781.60	220.96
781.92	220.90
782.25	220.77
782.57	220.75
782.89	220.66
783.22	220.60
783.54	220.47
783.86	220.42
784.19	220.36
784.51	220.38
784.83	220.29
785.16	220.21
785.48	220.12
785.80	220.09
786.12	220.04
786.45	219.96
786.77	219.91
787.09	219.89
787.42	219.74
787.74	219.67
788.06	219.61
788.38	219.56
788.71	219.48
789.03	219.45
789.35	219.39
789.67	219.31
789.99	219.27
790.32	219.17
790.64	219.11
790.96	219.22
791.28	219.07
791.61	218.99
791.93	218.93
792.25	218.90
792.57	218.98
792.89	218.88
793.21	218.86
793.54	218.81
793.86	218.73
794.18	218.74
794.50	218.64
794.82	218.62
795.14	218.60
795.47	218.58
795.79	218.55
796.11	218.45
796.43	218.42
796.75	218.35
797.07	218.34
797.39	218.27
797.71	218.08
798.04	218.05
798.36	218.06
798.68	218.01
799.00	217.95
799.32	217.78
799.64	217.78
799.96	217.76
800.28	217.77
800.60	217.72
800.92	217.70
801.24	217.64
801.56	217.59
801.89	217.50
802.21	217.52
802.53	217.41
802.85	217.43
803.17	217.50
803.49	217.44
803.81	217.37
804.13	217.35
804.45	217.27
804.77	217.26
805.09	217.23
805.41	217.19
805.73	217.13
806.05	217.06
806.37	217.03
806.69	216.96
807.01	216.88
807.33	216.91
807.65	216.77
807.97	216.86
808.28	216.79
808.60	216.76
808.92	216.68
809.24	216.80
809.56	216.74
809.88	216.60
810.20	216.62
810.52	216.64
810.84	216.61
811.16	216.58
811.48	216.52
811.80	216.60
812.12	216.53
812.43	216.56
812.75	216.54
813.07	216.48
813.39	216.50
813.71	216.41
814.03	216.37
814.35	216.37
814.67	216.26
814.98	216.24
815.30	216.22
815.62	216.14
815.94	216.00
816.26	216.02
816.58	216.00
816.89	215.96
817.21	215.91
817.53	215.90
817.85	215.90
818.17	215.86
818.48	215.74
818.80	215.78
819.12	215.71
819.44	215.66
819.76	215.63
820.07	215.59
820.39	215.59
820.71	215.56
821.03	215.56
821.34	215.55
821.66	215.58
821.98	215.57
822.30	215.55
822.61	215.68
822.93	215.61
823.25	215.58
823.57	215.54
823.88	215.56
824.20	215.54
824.52	215.56
824.83	215.53
825.15	215.48
825.47	215.46
825.79	215.46
826.10	215.50
826.42	215.48
826.74	215.49
827.05	215.51
827.37	215.50
827.69	215.46
828.00	215.43
828.32	215.41
828.64	215.39
828.95	215.51
829.27	215.42
829.58	215.41
829.90	215.44
830.22	215.44
830.53	215.39
830.85	215.34
831.17	215.31
831.48	215.34
831.80	215.33
832.11	215.32
832.43	215.29
832.75	215.21
833.06	215.31
833.38	215.26
833.69	215.22
834.01	215.25
834.32	215.24
834.64	215.22
834.96	215.20
835.27	215.20
835.59	215.11
835.90	215.06
836.22	215.06
836.53	215.01
836.85	214.99
837.16	215.19
837.48	215.17
837.79	215.22
838.11	215.24
838.42	215.25
838.74	215.26
839.05	215.23
839.37	215.23
839.68	215.09
840.00	215.08
840.31	215.15
840.63	215.12
840.94	215.12
841.26	215.09
841.57	215.08
841.88	215.09
842.20	215.05
842.51	215.03
842.83	215.00
843.14	215.17
843.46	215.16
843.77	215.04
844.08	215.04
844.40	214.95
844.71	214.90
845.03	214.89
845.34	214.84
845.65	214.84
845.97	214.87
846.28	214.90
846.60	214.92
846.91	214.83
847.22	214.77
847.54	214.80
847.85	214.81
848.16	214.80
848.48	214.74
848.79	214.81
849.10	214.82
849.42	214.88
849.73	214.70
850.04	214.68
850.36	214.61
850.67	214.63
850.98	214.64
851.30	214.66
851.61	214.66
851.92	214.67
852.23	214.75
852.55	214.77
852.86	214.74
853.17	214.73
853.49	214.81
853.80	214.90
854.11	214.91
854.42	214.94
854.74	214.93
855.05	214.95
855.36	214.89
855.67	214.88
855.99	214.83
856.30	215.06
856.61	215.05
856.92	215.03
857.23	215.05
857.55	215.02
857.86	215.00
858.17	215.02
858.48	214.97
858.79	214.91
859.11	214.89
859.42	214.89
859.73	214.89
860.04	214.85
860.35	214.73
860.66	214.68
860.98	214.65
861.29	214.66
861.60	214.65
861.91	214.67
862.22	214.64
862.53	214.61
862.84	214.37
863.16	214.43
863.47	214.41
863.78	214.36
864.09	214.35
864.40	214.33
864.71	214.33
865.02	214.34
865.33	214.30
865.64	214.27
865.95	214.25
866.27	214.35
866.58	214.36
866.89	214.37
867.20	214.35
867.51	214.31
867.82	214.33
868.13	214.34
868.44	214.27
868.75	214.28
869.06	214.31
869.37	214.33
869.68	214.24
869.99	214.30
870.30	214.31
870.61	214.35
870.92	214.34
871.23	214.31
871.54	214.37
871.85	214.43
872.16	214.47
872.47	214.46
872.78	214.35
873.09	214.35
873.40	214.38
873.71	214.39
874.02	214.40
874.33	214.38
874.64	214.36
874.95	214.42
875.26	214.42
875.56	214.41
875.87	214.39
876.18	214.37
876.49	214.54
876.80	214.50
877.11	214.44
877.42	214.42
877.73	214.43
878.04	214.36
878.35	214.36
878.66	214.34
878.96	214.33
879.27	214.31
879.58	214.32
879.89	214.29
880.20	214.37
880.51	214.37
880.82	214.37
881.12	214.36
881.43	214.31
881.74	214.29
882.05	214.25
882.36	214.26
882.67	214.29
882.97	214.07
883.28	214.06
883.59	214.06
883.90	214.10
884.21	214.11
884.51	214.10
884.82	214.08
885.13	214.09
885.44	214.06
885.74	214.08
886.05	214.00
886.36	214.02
886.67	213.92
886.98	214.01
887.28	214.01
887.59	214.02
887.90	214.02
888.20	214.00
888.51	214.06
888.82	214.05
889.13	214.09
889.43	214.29
889.74	214.31
890.05	214.31
890.35	214.28
890.66	214.23
890.97	214.21
891.28	214.19
891.58	214.19
891.89	214.20
892.20	214.15
892.50	214.16
892.81	214.12
893.12	214.12
893.42	214.03
893.73	214.04
894.04	214.04
894.34	214.06
894.65	214.05
894.95	214.01
895.26	213.99
895.57	214.09
895.87	213.86
896.18	213.88
896.48	213.89
896.79	213.87
897.10	213.95
897.40	213.99
897.71	214.05
898.01	214.02
898.32	214.04
898.63	214.06
898.93	214.09
899.24	214.08
899.54	214.10
899.85	214.07
900.15	214.05
900.46	214.00
900.76	214.03
901.07	214.04
901.38	214.07
901.68	214.08
901.99	213.95
902.29	213.95
902.60	213.92
902.90	213.90
903.21	213.92
903.51	213.91
903.82	213.92
904.12	213.89
904.43	213.91
904.73	213.91
905.03	213.94
905.34	214.11
905.64	214.14
905.95	214.12
906.25	214.13
906.56	214.15
906.86	214.17
907.17	214.12
907.47	214.13
907.77	214.11
908.08	214.07
908.38	214.09
908.69	214.12
908.99	214.17
909.30	214.21
909.60	214.21
909.90	214.20
910.21	214.16
910.51	214.11
910.81	214.09
911.12	214.10
911.42	214.08
911.73	213.87
912.03	213.90
912.33	213.94
912.64	213.95
912.94	213.95
913.24	213.93
913.55	213.94
913.85	213.92
914.15	213.97
914.46	214.02
914.76	214.01
915.06	214.00
915.37	213.96
915.67	213.93
915.97	213.92
916.27	213.90
916.58	213.90
916.88	213.92
917.18	213.91
917.49	214.03
917.79	214.03
918.09	214.07
918.39	214.12
918.70	214.10
919.00	214.09
919.30	214.17
919.60	214.19
919.91	214.17
920.21	214.18
920.51	214.12
920.81	214.10
921.12	214.13
921.42	214.11
921.72	214.11
922.02	214.13
922.32	214.15
922.63	214.13
922.93	214.23
923.23	214.21
923.53	214.17
923.83	214.01
924.13	214.05
924.44	214.06
924.74	214.05
925.04	214.12
925.34	214.09
925.64	214.00
925.94	213.98
926.24	214.09
926.55	214.10
926.85	214.13
927.15	214.13
927.45	214.12
927.75	214.13
928.05	214.15
928.35	214.14
928.65	214.20
928.95	214.25
929.26	214.16
929.56	214.25
929.86	214.31
930.16	214.34
930.46	214.32
930.76	214.29
931.06	214.21
931.36	214.12
931.66	214.13
931.96	214.15
932.26	214.16
932.56	214.08
932.86	214.08
933.16	214.06
933.46	214.04
933.76	214.02
934.06	214.05
934.36	214.12
934.66	214.11
934.96	214.08
935.26	214.06
935.56	214.10
935.86	214.03
936.16	213.98
936.46	213.94
936.76	213.93
937.06	213.93
937.36	213.93
937.66	213.95
937.96	213.98
938.26	213.91
938.56	213.86
938.86	213.84
939.16	213.85
939.46	213.88
939.76	213.91
940.06	213.91
940.35	213.87
940.65	213.75
940.95	213.75
941.25	213.69
941.55	213.63
941.85	213.62
942.15	213.67
942.45	213.74
942.75	213.75
943.04	213.78
943.34	213.78
943.64	213.79
943.94	213.75
944.24	213.75
944.54	213.81
944.84	213.85
945.13	213.84
945.43	213.79
945.73	213.77
946.03	213.75
946.33	213.70
946.62	213.70
946.92	213.71
947.22	213.74
947.52	213.75
947.82	213.78
948.11	213.75
948.41	213.68
948.71	213.62
949.01	213.63
949.31	213.60
949.60	213.58
949.90	213.63
950.20	213.64
950.50	213.64
950.79	213.60
951.09	213.63
951.39	213.61
951.69	213.61
951.98	213.64
952.28	213.65
952.58	213.64
952.87	213.63
953.17	213.67
953.47	213.63
953.76	213.61
954.06	213.58
954.36	213.55
954.66	213.55
954.95	213.61
955.25	213.62
955.55	213.61
955.84	213.60
956.14	213.58
956.44	213.60
956.73	213.57
957.03	213.59
957.32	213.60
957.62	213.65
957.92	213.71
958.21	213.69
958.51	213.94
958.81	214.01
959.10	214.04
959.40	214.08
959.69	214.11
959.99	214.17
960.29	214.16
960.58	214.20
960.88	214.27
961.17	214.23
961.47	214.22
961.76	214.22
962.06	214.25
962.36	214.25
962.65	214.25
962.95	214.23
963.24	214.19
963.54	214.14
963.83	214.12
964.13	214.11
964.42	214.06
964.72	213.88
965.01	213.85
965.31	213.85
965.60	213.83
965.90	213.93
966.19	213.88
966.49	213.91
966.78	213.90
967.08	213.92
967.37	213.93
967.67	213.93
967.96	213.95
968.26	213.94
968.55	213.95
968.85	213.94
969.14	213.98
969.43	213.99
969.73	214.02
970.02	214.02
970.32	213.96
970.61	213.98
970.91	213.92
971.20	213.92
971.49	213.91
971.79	213.89
972.08	213.78
972.38	213.79
972.67	213.78
972.96	213.80
973.26	213.75
973.55	213.83
973.85	213.82
974.14	213.81
974.43	213.82
974.73	213.82
975.02	213.79
975.31	213.78
975.61	213.77
975.90	213.73
976.19	213.72
976.49	213.73
976.78	213.71
977.07	213.69
977.37	213.68
977.66	213.66
977.95	213.66
978.24	213.66
978.54	213.73
978.83	213.74
979.12	213.73
979.42	213.71
979.71	213.67
980.00	213.63
980.29	213.66
980.59	213.64
980.88	213.65
981.17	213.67
981.46	213.69
981.76	213.73
982.05	213.82
982.34	213.82
982.63	213.84
982.93	213.87
983.22	213.94
983.51	213.96
983.80	214.01
984.09	214.03
984.39	214.04
984.68	213.97
984.97	213.94
985.26	213.91
985.55	213.93
985.85	213.88
986.14	213.94
986.43	213.95
986.72	213.94
987.01	213.88
987.30	213.87
987.59	213.82
987.89	213.82
988.18	213.77
988.47	213.76
988.76	213.76
989.05	213.73
989.34	213.72
989.63	213.77
989.92	213.72
990.22	213.70
990.51	213.69
990.80	213.69
991.09	213.72
991.38	213.77
991.67	213.76
991.96	213.75
992.25	213.77
992.54	213.71
992.83	213.70
993.12	213.74
993.41	213.76
993.70	213.86
993.99	213.89
994.28	213.89
994.58	213.92
994.87	213.92
995.16	213.91
995.45	213.87
995.74	213.79
996.03	213.84
996.32	213.88
996.61	213.90
996.90	213.92
997.19	213.90
997.48	213.89
997.77	213.88
998.06	213.85
998.34	213.83
998.63	213.87
998.92	213.85
999.21	213.86
999.50	213.87
999.79	213.79
1000.08	213.80
1000.37	213.79
1000.66	213.80
1000.95	213.81
1001.24	213.83
1001.53	213.86
1001.82	213.88
1002.11	213.80
1002.40	213.80
1002.68	213.82
1002.97	213.93
1003.26	213.90
1003.55	213.87
1003.84	213.89
1004.13	214.02
1004.42	213.98
1004.71	213.96
1004.99	213.98
1005.28	213.99
1005.57	213.96
1005.86	213.92
1006.15	213.88
1006.44	213.87
1006.72	213.87
1007.01	213.86
1007.30	213.85
1007.59	213.83
1007.88	213.78
1008.17	213.82
1008.45	213.76
1008.74	213.69
1009.03	213.62
1009.32	213.67
1009.60	213.66
1009.89	213.63
1010.18	213.51
1010.47	213.52
1010.76	213.51
1011.04	213.51
1011.33	213.57
1011.62	213.58
1011.91	213.61
1012.19	213.63
1012.48	213.63
1012.77	213.59
1013.05	213.70
1013.34	213.69
1013.63	213.68
1013.92	213.72
1014.20	213.69
1014.49	213.72
1014.78	213.74
1015.06	213.65
1015.35	213.64
1015.64	213.68
1015.92	213.71
1016.21	213.73
1016.50	213.71
1016.78	213.74
1017.07	213.76
1017.36	213.68
1017.64	213.68
1017.93	213.69
1018.22	213.68
1018.50	213.66
1018.79	213.64
1019.08	213.52
1019.36	213.52
1019.65	213.53
1019.93	213.57
1020.22	213.60
1020.51	213.69
1020.79	213.67
1021.08	213.83
1021.36	213.06
1021.65	212.86
1021.94	213.39
1022.22	213.35
1022.51	213.76
1022.79	214.48
1023.08	213.64
1023.36	215.82
1023.65	213.02
>>>>>End Processed Spectral Data<<<<<
