SpectraSuite Data File
++++++++++++++++++++++++++++++++++++
Date: Tue Jan 29 16:00:12 EST 2013
User: group
Dark Spectrum Present: No
Reference Spectrum Present: No
Number of Sampled Component Spectra: 1
Spectrometers: USB2E7196
Integration Time (usec): 65000 (USB2E7196)
Spectra Averaged: 100 (USB2E7196)
Boxcar Smoothing: 10 (USB2E7196)
Correct for Electrical Dark: No (USB2E7196)
Strobe/Lamp Enabled: No (USB2E7196)
Correct for Detector Non-linearity: No (USB2E7196)
Correct for Stray Light: No (USB2E7196)
Number of Pixels in Processed Spectrum: 2048
>>>>>Begin Processed Spectral Data<<<<<
339.09	0.00
339.48	202.45
339.86	203.97
340.24	205.88
340.63	207.13
341.01	211.45
341.39	209.48
341.78	211.66
342.16	212.53
342.54	212.61
342.93	201.98
343.31	212.18
343.69	212.76
344.07	213.23
344.46	213.67
344.84	214.07
345.22	214.25
345.60	214.56
345.99	214.76
346.37	214.88
346.75	215.01
347.13	215.10
347.52	215.20
347.90	215.33
348.28	215.34
348.66	215.42
349.05	215.39
349.43	215.49
349.81	215.52
350.19	215.57
350.57	215.62
350.96	215.75
351.34	215.84
351.72	215.95
352.10	216.05
352.48	216.11
352.87	216.18
353.25	216.28
353.63	216.30
354.01	216.37
354.39	216.48
354.77	216.58
355.15	216.68
355.54	216.71
355.92	216.73
356.30	216.82
356.68	217.02
357.06	217.08
357.44	217.10
357.82	217.17
358.20	217.26
358.58	217.34
358.97	217.35
359.35	217.47
359.73	217.56
360.11	217.65
360.49	217.72
360.87	217.74
361.25	217.75
361.63	217.88
362.01	217.92
362.39	217.92
362.77	217.95
363.15	218.00
363.53	218.04
363.91	218.05
364.29	218.07
364.67	217.92
365.05	217.90
365.43	217.95
365.81	218.00
366.19	218.05
366.57	218.13
366.95	218.17
367.33	218.11
367.71	218.08
368.09	218.09
368.47	218.06
368.85	218.05
369.23	218.10
369.61	218.02
369.99	218.05
370.37	218.05
370.75	218.10
371.13	218.04
371.51	217.97
371.89	217.96
372.27	217.95
372.65	217.92
373.03	217.90
373.41	217.82
373.78	217.76
374.16	217.63
374.54	217.53
374.92	217.44
375.30	217.38
375.68	217.29
376.06	217.26
376.44	217.23
376.82	217.21
377.19	217.15
377.57	217.08
377.95	216.98
378.33	216.97
378.71	216.80
379.09	216.78
379.47	216.77
379.84	216.72
380.22	216.65
380.60	216.57
380.98	216.51
381.36	216.50
381.73	216.41
382.11	216.41
382.49	216.35
382.87	216.29
383.25	216.28
383.62	216.52
384.00	216.44
384.38	216.40
384.76	216.43
385.13	216.49
385.51	216.47
385.89	216.40
386.27	216.33
386.64	216.38
387.02	216.37
387.40	216.31
387.78	216.29
388.15	216.31
388.53	216.29
388.91	216.29
389.29	216.24
389.66	216.29
390.04	216.25
390.42	216.27
390.79	216.30
391.17	216.26
391.55	215.99
391.92	216.00
392.30	216.03
392.68	215.93
393.05	215.89
393.43	215.88
393.81	215.91
394.18	215.89
394.56	215.83
394.94	215.86
395.31	215.88
395.69	215.94
396.06	215.93
396.44	215.98
396.82	216.00
397.19	216.16
397.57	216.14
397.95	216.19
398.32	216.16
398.70	216.20
399.07	216.34
399.45	216.40
399.82	216.43
400.20	216.45
400.58	216.50
400.95	216.50
401.33	216.61
401.70	216.84
402.08	216.93
402.45	217.06
402.83	217.18
403.20	217.27
403.58	217.40
403.95	217.56
404.33	217.72
404.71	217.87
405.08	218.12
405.46	218.32
405.83	218.55
406.21	218.77
406.58	218.99
406.96	219.20
407.33	219.43
407.70	219.73
408.08	220.18
408.45	220.57
408.83	220.96
409.20	221.27
409.58	221.50
409.95	221.99
410.33	222.45
410.70	222.86
411.08	223.40
411.45	223.95
411.82	224.52
412.20	225.18
412.57	226.00
412.95	226.54
413.32	227.34
413.69	228.12
414.07	229.02
414.44	229.97
414.82	230.91
415.19	232.07
415.56	233.20
415.94	234.31
416.31	235.64
416.68	236.99
417.06	238.55
417.43	240.05
417.81	241.68
418.18	243.37
418.55	245.24
418.93	247.18
419.30	249.16
419.67	251.31
420.04	253.47
420.42	255.70
420.79	258.41
421.16	261.06
421.54	263.88
421.91	266.73
422.28	269.72
422.66	272.91
423.03	276.01
423.40	279.25
423.77	282.73
424.15	286.31
424.52	290.01
424.89	294.06
425.26	298.01
425.64	301.77
426.01	305.89
426.38	310.21
426.75	314.61
427.13	319.16
427.50	323.90
427.87	328.93
428.24	333.98
428.61	338.75
428.99	344.04
429.36	349.80
429.73	355.46
430.10	361.11
430.47	366.93
430.85	373.01
431.22	379.51
431.59	386.32
431.96	392.84
432.33	400.04
432.70	407.02
433.08	415.22
433.45	422.96
433.82	430.73
434.19	439.18
434.56	447.54
434.93	455.57
435.30	463.58
435.68	472.29
436.05	480.91
436.42	489.52
436.79	497.42
437.16	505.90
437.53	514.84
437.90	523.63
438.27	532.25
438.64	541.15
439.01	549.35
439.38	556.69
439.75	563.78
440.13	571.93
440.50	579.53
440.87	585.63
441.24	592.06
441.61	599.10
441.98	604.40
442.35	610.50
442.72	616.53
443.09	622.33
443.46	625.96
443.83	628.35
444.20	630.42
444.57	633.42
444.94	634.79
445.31	636.10
445.68	637.41
446.05	638.00
446.42	637.13
446.79	636.15
447.16	635.07
447.53	634.28
447.90	631.04
448.27	627.78
448.64	623.30
449.01	620.04
449.37	614.37
449.74	608.83
450.11	602.19
450.48	595.14
450.85	587.95
451.22	581.69
451.59	575.89
451.96	570.27
452.33	562.70
452.70	555.78
453.07	547.69
453.43	539.43
453.80	531.48
454.17	523.92
454.54	516.69
454.91	508.87
455.28	501.23
455.65	494.11
456.02	487.06
456.38	481.07
456.75	473.55
457.12	467.26
457.49	461.06
457.86	455.18
458.23	450.05
458.59	444.37
458.96	438.69
459.33	433.64
459.70	428.51
460.07	424.46
460.43	419.89
460.80	415.52
461.17	411.71
461.54	407.66
461.91	403.75
462.27	399.79
462.64	396.48
463.01	392.77
463.38	389.21
463.74	385.60
464.11	382.47
464.48	379.74
464.85	376.71
465.21	374.39
465.58	371.77
465.95	368.71
466.32	366.19
466.68	363.65
467.05	361.09
467.42	358.65
467.78	356.07
468.15	353.59
468.52	351.77
468.88	349.42
469.25	347.31
469.62	345.61
469.98	343.78
470.35	342.09
470.72	340.49
471.08	338.75
471.45	337.35
471.82	335.90
472.18	334.27
472.55	333.18
472.92	331.85
473.28	330.74
473.65	329.67
474.02	328.66
474.38	327.80
474.75	327.11
475.11	326.35
475.48	325.80
475.85	325.33
476.21	324.83
476.58	324.49
476.94	324.28
477.31	324.05
477.67	323.84
478.04	323.69
478.41	323.71
478.77	323.92
479.14	323.84
479.50	323.99
479.87	324.38
480.23	324.70
480.60	324.93
480.96	325.25
481.33	325.88
481.69	326.47
482.06	327.06
482.42	327.56
482.79	328.14
483.15	328.96
483.52	329.93
483.88	330.84
484.25	331.78
484.61	332.80
484.98	333.82
485.34	335.06
485.71	336.44
486.07	337.91
486.44	339.26
486.80	340.93
487.17	342.60
487.53	344.39
487.90	346.27
488.26	348.37
488.62	350.51
488.99	352.53
489.35	354.68
489.72	357.08
490.08	359.55
490.44	362.13
490.81	364.84
491.17	367.52
491.54	370.55
491.90	373.59
492.26	376.84
492.63	380.25
492.99	383.79
493.36	387.44
493.72	391.30
494.08	395.23
494.45	399.43
494.81	403.78
495.17	408.23
495.54	412.93
495.90	417.71
496.26	422.61
496.63	427.79
496.99	433.15
497.35	438.71
497.72	444.54
498.08	450.50
498.44	456.55
498.80	462.99
499.17	469.42
499.53	476.09
499.89	482.99
500.26	489.93
500.62	497.00
500.98	504.39
501.34	511.73
501.71	519.49
502.07	527.22
502.43	535.17
502.79	543.31
503.16	551.70
503.52	560.27
503.88	568.99
504.24	577.92
504.60	586.93
504.97	596.10
505.33	605.35
505.69	615.19
506.05	625.11
506.41	634.93
506.78	644.97
507.14	655.24
507.50	665.63
507.86	676.25
508.22	686.93
508.59	697.58
508.95	708.68
509.31	719.93
509.67	731.48
510.03	742.86
510.39	754.58
510.75	766.38
511.12	778.25
511.48	790.27
511.84	802.43
512.20	814.61
512.56	827.21
512.92	839.87
513.28	852.38
513.64	864.95
514.00	877.64
514.37	890.54
514.73	903.48
515.09	916.33
515.45	929.07
515.81	942.04
516.17	955.25
516.53	968.36
516.89	981.35
517.25	994.27
517.61	1007.69
517.97	1020.85
518.33	1033.76
518.69	1047.11
519.05	1060.65
519.41	1074.13
519.77	1087.88
520.13	1100.97
520.49	1114.03
520.85	1127.25
521.21	1140.43
521.57	1153.92
521.93	1166.80
522.29	1180.51
522.65	1193.95
523.01	1207.42
523.37	1220.30
523.73	1233.37
524.09	1246.30
524.45	1259.52
524.81	1272.77
525.17	1285.86
525.53	1298.74
525.89	1311.83
526.25	1324.69
526.61	1337.19
526.97	1350.04
527.33	1362.72
527.68	1375.91
528.04	1389.04
528.40	1401.81
528.76	1414.89
529.12	1427.51
529.48	1440.46
529.84	1452.32
530.20	1464.84
530.56	1477.16
530.91	1490.23
531.27	1502.77
531.63	1515.32
531.99	1527.70
532.35	1539.70
532.71	1551.76
533.07	1564.22
533.42	1576.10
533.78	1587.87
534.14	1599.73
534.50	1610.65
534.86	1621.99
535.21	1632.49
535.57	1643.69
535.93	1654.82
536.29	1665.71
536.65	1676.87
537.00	1687.51
537.36	1698.54
537.72	1709.11
538.08	1720.08
538.44	1730.67
538.79	1741.42
539.15	1751.86
539.51	1762.17
539.87	1773.12
540.22	1783.66
540.58	1794.27
540.94	1804.75
541.29	1814.70
541.65	1824.09
542.01	1834.38
542.37	1844.18
542.72	1854.16
543.08	1863.61
543.44	1873.59
543.79	1882.50
544.15	1891.51
544.51	1901.24
544.87	1910.79
545.22	1919.74
545.58	1928.41
545.94	1936.99
546.29	1945.14
546.65	1953.24
547.01	1961.29
547.36	1968.78
547.72	1976.22
548.07	1983.76
548.43	1991.32
548.79	1998.96
549.14	2006.91
549.50	2014.93
549.86	2022.45
550.21	2029.57
550.57	2036.98
550.92	2043.62
551.28	2050.80
551.64	2058.01
551.99	2065.32
552.35	2072.35
552.70	2079.01
553.06	2085.51
553.41	2091.66
553.77	2098.21
554.13	2104.38
554.48	2111.23
554.84	2117.96
555.19	2124.26
555.55	2130.53
555.90	2136.68
556.26	2143.23
556.61	2149.00
556.97	2153.86
557.32	2159.58
557.68	2165.88
558.03	2171.49
558.39	2176.70
558.74	2182.58
559.10	2188.03
559.45	2193.46
559.81	2198.94
560.16	2204.50
560.52	2210.43
560.87	2216.85
561.23	2222.80
561.58	2229.56
561.94	2234.71
562.29	2239.63
562.64	2245.97
563.00	2251.46
563.35	2257.02
563.71	2262.89
564.06	2268.71
564.42	2274.73
564.77	2279.90
565.12	2285.15
565.48	2290.62
565.83	2296.27
566.19	2302.02
566.54	2307.46
566.89	2312.20
567.25	2316.82
567.60	2322.57
567.96	2327.74
568.31	2332.26
568.66	2336.41
569.02	2340.25
569.37	2344.09
569.72	2348.59
570.08	2352.05
570.43	2355.21
570.78	2358.43
571.14	2361.18
571.49	2364.35
571.84	2367.81
572.20	2370.62
572.55	2373.76
572.90	2375.86
573.26	2378.87
573.61	2381.20
573.96	2383.48
574.31	2385.62
574.67	2387.62
575.02	2388.69
575.37	2390.12
575.72	2391.06
576.08	2392.79
576.43	2393.28
576.78	2394.19
577.13	2396.06
577.49	2397.36
577.84	2398.92
578.19	2400.54
578.54	2401.38
578.90	2402.58
579.25	2402.74
579.60	2403.21
579.95	2402.70
580.30	2403.43
580.66	2402.87
581.01	2401.43
581.36	2399.45
581.71	2398.34
582.06	2397.52
582.42	2396.79
582.77	2395.02
583.12	2393.75
583.47	2392.74
583.82	2392.39
584.17	2391.21
584.53	2389.11
584.88	2387.31
585.23	2385.49
585.58	2383.40
585.93	2381.36
586.28	2379.35
586.63	2377.19
586.98	2375.11
587.34	2373.46
587.69	2371.17
588.04	2369.45
588.39	2368.34
588.74	2366.13
589.09	2363.75
589.44	2360.90
589.79	2358.66
590.14	2357.04
590.49	2354.31
590.84	2350.70
591.19	2347.90
591.54	2344.77
591.89	2341.08
592.25	2337.96
592.60	2334.00
592.95	2330.06
593.30	2326.22
593.65	2321.90
594.00	2317.85
594.35	2314.87
594.70	2310.33
595.05	2305.87
595.40	2300.57
595.75	2295.16
596.10	2291.53
596.45	2286.72
596.80	2282.39
597.15	2277.14
597.50	2271.21
597.85	2266.44
598.19	2261.25
598.54	2255.51
598.89	2250.78
599.24	2246.25
599.59	2240.42
599.94	2234.83
600.29	2229.07
600.64	2223.15
600.99	2216.65
601.34	2211.25
601.69	2204.30
602.04	2197.97
602.39	2191.49
602.74	2185.55
603.08	2180.03
603.43	2173.62
603.78	2166.82
604.13	2159.58
604.48	2152.66
604.83	2146.74
605.18	2140.49
605.53	2133.60
605.87	2126.67
606.22	2119.79
606.57	2112.17
606.92	2104.33
607.27	2097.38
607.62	2090.86
607.96	2084.05
608.31	2077.54
608.66	2069.80
609.01	2062.40
609.36	2055.45
609.70	2047.82
610.05	2040.16
610.40	2031.89
610.75	2023.75
611.10	2016.26
611.44	2007.64
611.79	1998.87
612.14	1988.82
612.49	1978.47
612.83	1969.37
613.18	1960.22
613.53	1950.90
613.88	1941.20
614.22	1932.63
614.57	1922.83
614.92	1912.44
615.27	1902.39
615.61	1892.38
615.96	1882.76
616.31	1873.22
616.65	1863.77
617.00	1853.84
617.35	1844.21
617.70	1834.49
618.04	1824.27
618.39	1813.90
618.74	1804.26
619.08	1794.68
619.43	1786.08
619.78	1777.88
620.12	1769.11
620.47	1759.30
620.82	1749.04
621.16	1739.26
621.51	1729.22
621.85	1719.28
622.20	1708.62
622.55	1697.92
622.89	1688.16
623.24	1678.38
623.59	1668.65
623.93	1658.61
624.28	1649.00
624.62	1638.67
624.97	1628.40
625.32	1618.88
625.66	1610.11
626.01	1601.10
626.35	1591.65
626.70	1581.44
627.04	1571.26
627.39	1561.20
627.73	1551.95
628.08	1542.79
628.43	1533.19
628.77	1523.99
629.12	1515.17
629.46	1507.36
629.81	1498.95
630.15	1489.28
630.50	1479.40
630.84	1468.91
631.19	1458.99
631.53	1449.47
631.88	1439.36
632.22	1429.31
632.57	1419.94
632.91	1409.74
633.26	1400.12
633.60	1390.59
633.95	1381.23
634.29	1371.67
634.64	1362.23
634.98	1352.30
635.32	1343.13
635.67	1334.53
636.01	1325.15
636.36	1315.23
636.70	1305.64
637.05	1296.36
637.39	1287.36
637.73	1278.86
638.08	1271.23
638.42	1262.81
638.77	1253.98
639.11	1245.73
639.45	1237.76
639.80	1228.98
640.14	1220.34
640.49	1211.31
640.83	1202.44
641.17	1194.32
641.52	1186.10
641.86	1177.49
642.20	1169.65
642.55	1160.96
642.89	1152.10
643.23	1143.49
643.58	1135.46
643.92	1126.37
644.26	1117.60
644.61	1109.08
644.95	1100.18
645.29	1090.81
645.64	1081.64
645.98	1073.34
646.32	1065.38
646.66	1056.91
647.01	1048.55
647.35	1040.34
647.69	1031.89
648.04	1023.55
648.38	1014.66
648.72	1005.86
649.06	997.41
649.41	989.15
649.75	981.19
650.09	973.30
650.43	965.25
650.78	957.01
651.12	949.39
651.46	941.94
651.80	934.76
652.14	927.41
652.49	919.97
652.83	912.72
653.17	904.96
653.51	897.43
653.85	890.24
654.20	882.94
654.54	875.38
654.88	868.28
655.22	861.17
655.56	854.12
655.90	847.31
656.25	840.70
656.59	833.75
656.93	826.77
657.27	819.65
657.61	812.81
657.95	806.73
658.29	800.89
658.64	794.81
658.98	788.38
659.32	781.84
659.66	775.66
660.00	769.38
660.34	763.36
660.68	757.24
661.02	750.97
661.36	745.11
661.70	739.42
662.05	733.74
662.39	728.28
662.73	723.02
663.07	717.75
663.41	712.17
663.75	706.59
664.09	701.04
664.43	695.69
664.77	690.34
665.11	684.54
665.45	678.63
665.79	672.84
666.13	667.15
666.47	661.73
666.81	656.39
667.15	651.10
667.49	645.99
667.83	640.67
668.17	635.44
668.51	630.38
668.85	625.48
669.19	620.75
669.53	615.80
669.87	610.73
670.21	606.00
670.55	601.36
670.89	597.02
671.23	592.75
671.57	588.42
671.91	584.18
672.25	580.16
672.58	576.07
672.92	572.08
673.26	568.21
673.60	564.40
673.94	560.59
674.28	556.97
674.62	553.17
674.96	549.52
675.30	546.12
675.64	542.54
675.97	539.02
676.31	535.42
676.65	531.83
676.99	528.44
677.33	524.62
677.67	520.98
678.01	517.08
678.34	513.47
678.68	510.07
679.02	506.47
679.36	502.78
679.70	499.24
680.04	495.79
680.37	492.44
680.71	489.17
681.05	486.04
681.39	482.88
681.73	479.88
682.06	476.88
682.40	473.78
682.74	470.60
683.08	467.41
683.42	464.25
683.75	461.32
684.09	458.38
684.43	455.65
684.77	452.82
685.10	450.15
685.44	447.26
685.78	444.31
686.12	441.68
686.45	439.02
686.79	436.40
687.13	433.88
687.46	431.30
687.80	428.69
688.14	425.95
688.48	423.40
688.81	420.76
689.15	418.31
689.49	415.73
689.82	413.31
690.16	410.84
690.50	408.38
690.83	405.93
691.17	403.41
691.51	401.02
691.84	398.84
692.18	396.61
692.52	394.44
692.85	392.34
693.19	390.24
693.52	388.09
693.86	385.91
694.20	383.80
694.53	381.73
694.87	379.60
695.21	377.51
695.54	375.34
695.88	373.23
696.21	371.04
696.55	368.98
696.88	366.93
697.22	365.00
697.56	363.23
697.89	361.37
698.23	359.70
698.56	357.97
698.90	356.18
699.23	354.28
699.57	352.47
699.90	350.69
700.24	348.89
700.58	347.21
700.91	345.60
701.25	344.07
701.58	342.47
701.92	340.92
702.25	339.35
702.59	337.80
702.92	336.30
703.26	334.79
703.59	333.40
703.93	332.18
704.26	330.79
704.60	329.30
704.93	327.87
705.26	326.38
705.60	324.94
705.93	323.46
706.27	322.20
706.60	320.97
706.94	319.79
707.27	318.42
707.61	317.10
707.94	315.81
708.27	314.28
708.61	312.88
708.94	311.53
709.28	310.27
709.61	309.09
709.94	307.89
710.28	306.73
710.61	305.53
710.95	304.12
711.28	303.03
711.61	301.87
711.95	300.77
712.28	299.61
712.61	298.47
712.95	297.46
713.28	296.47
713.61	295.34
713.95	294.14
714.28	293.16
714.61	292.13
714.95	291.10
715.28	290.15
715.61	289.17
715.95	288.23
716.28	287.28
716.61	286.35
716.95	285.41
717.28	284.50
717.61	283.59
717.94	282.76
718.28	281.78
718.61	280.94
718.94	280.08
719.27	279.27
719.61	278.45
719.94	277.61
720.27	276.67
720.60	275.87
720.94	275.14
721.27	274.44
721.60	273.80
721.93	273.13
722.27	272.49
722.60	271.83
722.93	271.19
723.26	270.58
723.59	269.91
723.93	269.29
724.26	268.62
724.59	268.00
724.92	267.42
725.25	266.91
725.59	266.31
725.92	265.74
726.25	265.17
726.58	264.62
726.91	264.06
727.24	263.52
727.57	262.96
727.91	262.36
728.24	261.84
728.57	261.25
728.90	260.73
729.23	260.16
729.56	259.74
729.89	259.17
730.22	258.61
730.55	258.07
730.89	257.55
731.22	257.07
731.55	256.52
731.88	256.03
732.21	255.48
732.54	255.02
732.87	254.58
733.20	254.09
733.53	253.63
733.86	253.15
734.19	252.70
734.52	252.31
734.85	252.06
735.18	251.58
735.51	251.21
735.84	250.76
736.17	250.39
736.50	249.87
736.83	249.75
737.16	249.40
737.49	249.04
737.82	248.63
738.15	248.30
738.48	247.98
738.81	247.62
739.14	247.23
739.47	246.85
739.80	246.51
740.13	246.23
740.46	245.84
740.79	245.46
741.12	245.12
741.45	244.76
741.78	244.30
742.11	244.03
742.44	243.65
742.77	243.40
743.10	243.07
743.43	242.74
743.75	242.17
744.08	242.09
744.41	241.73
744.74	241.41
745.07	241.04
745.40	240.71
745.73	240.47
746.06	240.19
746.39	239.91
746.71	239.53
747.04	239.15
747.37	238.87
747.70	238.63
748.03	238.37
748.36	238.08
748.68	237.79
749.01	237.46
749.34	237.17
749.67	236.89
750.00	236.60
750.33	236.47
750.65	236.25
750.98	235.69
751.31	235.47
751.64	235.25
751.97	235.13
752.29	234.89
752.62	234.58
752.95	234.30
753.28	234.00
753.60	233.76
753.93	233.64
754.26	233.44
754.59	233.16
754.91	232.92
755.24	232.68
755.57	232.44
755.90	232.22
756.22	232.02
756.55	231.77
756.88	231.57
757.20	231.23
757.53	230.93
757.86	230.73
758.19	230.52
758.51	230.33
758.84	230.02
759.17	229.83
759.49	229.65
759.82	229.60
760.15	229.48
760.47	229.30
760.80	229.05
761.13	228.89
761.45	228.72
761.78	228.54
762.11	228.41
762.43	228.22
762.76	228.03
763.08	227.86
763.41	227.73
763.74	227.56
764.06	227.41
764.39	227.27
764.71	227.15
765.04	226.98
765.37	226.79
765.69	226.65
766.02	226.51
766.34	226.33
766.67	226.11
767.00	225.94
767.32	225.95
767.65	225.94
767.97	225.76
768.30	225.64
768.62	225.52
768.95	225.35
769.27	225.27
769.60	225.17
769.92	225.03
770.25	224.86
770.57	224.71
770.90	224.62
771.22	224.53
771.55	224.44
771.87	224.39
772.20	224.30
772.52	224.37
772.85	224.49
773.17	224.40
773.50	224.30
773.82	224.20
774.15	224.00
774.47	223.75
774.80	223.65
775.12	223.55
775.45	223.46
775.77	223.37
776.09	223.28
776.42	223.20
776.74	223.22
777.07	223.15
777.39	223.07
777.72	222.97
778.04	222.94
778.36	222.84
778.69	222.78
779.01	222.72
779.33	222.45
779.66	222.15
779.98	222.08
780.31	222.01
780.63	222.04
780.95	222.00
781.28	221.96
781.60	221.89
781.92	221.85
782.25	221.79
782.57	221.72
782.89	221.66
783.22	221.60
783.54	221.47
783.86	221.43
784.19	221.37
784.51	221.35
784.83	221.24
785.16	221.15
785.48	221.08
785.80	220.98
786.12	220.95
786.45	220.87
786.77	220.84
787.09	220.74
787.42	220.60
787.74	220.55
788.06	220.49
788.38	220.44
788.71	220.37
789.03	220.31
789.35	220.30
789.67	220.24
789.99	220.19
790.32	220.11
790.64	220.05
790.96	220.17
791.28	220.07
791.61	220.02
791.93	220.01
792.25	219.92
792.57	220.04
792.89	219.93
793.21	219.90
793.54	219.84
793.86	219.80
794.18	219.76
794.50	219.68
794.82	219.65
795.14	219.65
795.47	219.63
795.79	219.61
796.11	219.50
796.43	219.40
796.75	219.37
797.07	219.33
797.39	219.28
797.71	219.10
798.04	219.07
798.36	219.03
798.68	218.97
799.00	218.97
799.32	218.85
799.64	218.88
799.96	218.84
800.28	218.82
800.60	218.75
800.92	218.73
801.24	218.69
801.56	218.68
801.89	218.61
802.21	218.59
802.53	218.51
802.85	218.54
803.17	218.65
803.49	218.56
803.81	218.53
804.13	218.47
804.45	218.41
804.77	218.38
805.09	218.32
805.41	218.28
805.73	218.22
806.05	218.15
806.37	218.10
806.69	218.05
807.01	218.02
807.33	218.02
807.65	217.91
807.97	217.97
808.28	217.92
808.60	217.89
808.92	217.79
809.24	217.88
809.56	217.82
809.88	217.72
810.20	217.71
810.52	217.75
810.84	217.73
811.16	217.68
811.48	217.66
811.80	217.75
812.12	217.76
812.43	217.78
812.75	217.76
813.07	217.73
813.39	217.73
813.71	217.68
814.03	217.62
814.35	217.63
814.67	217.53
814.98	217.51
815.30	217.49
815.62	217.44
815.94	217.32
816.26	217.32
816.58	217.25
816.89	217.27
817.21	217.17
817.53	217.17
817.85	217.19
818.17	217.16
818.48	217.04
818.80	217.04
819.12	217.01
819.44	216.94
819.76	216.88
820.07	216.86
820.39	216.84
820.71	216.84
821.03	216.84
821.34	216.82
821.66	216.80
821.98	216.83
822.30	216.82
822.61	216.90
822.93	216.85
823.25	216.82
823.57	216.78
823.88	216.84
824.20	216.80
824.52	216.81
824.83	216.78
825.15	216.74
825.47	216.70
825.79	216.70
826.10	216.69
826.42	216.68
826.74	216.67
827.05	216.64
827.37	216.66
827.69	216.62
828.00	216.62
828.32	216.64
828.64	216.57
828.95	216.69
829.27	216.64
829.58	216.66
829.90	216.72
830.22	216.71
830.53	216.62
830.85	216.59
831.17	216.54
831.48	216.55
831.80	216.55
832.11	216.53
832.43	216.49
832.75	216.47
833.06	216.63
833.38	216.58
833.69	216.59
834.01	216.59
834.32	216.59
834.64	216.57
834.96	216.54
835.27	216.56
835.59	216.50
835.90	216.45
836.22	216.44
836.53	216.35
836.85	216.33
837.16	216.54
837.48	216.55
837.79	216.59
838.11	216.59
838.42	216.59
838.74	216.61
839.05	216.58
839.37	216.55
839.68	216.39
840.00	216.40
840.31	216.40
840.63	216.34
840.94	216.31
841.26	216.26
841.57	216.23
841.88	216.21
842.20	216.14
842.51	216.12
842.83	216.11
843.14	216.30
843.46	216.30
843.77	216.17
844.08	216.15
844.40	216.08
844.71	216.03
845.03	216.04
845.34	216.01
845.65	216.03
845.97	216.05
846.28	216.05
846.60	216.07
846.91	216.05
847.22	216.09
847.54	216.14
847.85	216.17
848.16	216.14
848.48	216.12
848.79	216.17
849.10	216.16
849.42	216.16
849.73	215.96
850.04	215.95
850.36	215.86
850.67	215.90
850.98	215.88
851.30	215.90
851.61	215.90
851.92	215.91
852.23	215.95
852.55	215.95
852.86	215.96
853.17	215.93
853.49	215.94
853.80	215.96
854.11	215.94
854.42	215.96
854.74	215.97
855.05	215.99
855.36	215.90
855.67	215.96
855.99	215.93
856.30	216.18
856.61	216.15
856.92	216.13
857.23	216.11
857.55	216.11
857.86	216.09
858.17	216.10
858.48	216.03
858.79	215.98
859.11	216.00
859.42	215.98
859.73	215.96
860.04	215.97
860.35	215.92
860.66	215.90
860.98	215.88
861.29	215.89
861.60	215.86
861.91	215.92
862.22	215.84
862.53	215.83
862.84	215.60
863.16	215.64
863.47	215.63
863.78	215.62
864.09	215.62
864.40	215.63
864.71	215.63
865.02	215.66
865.33	215.64
865.64	215.58
865.95	215.54
866.27	215.69
866.58	215.66
866.89	215.65
867.20	215.63
867.51	215.59
867.82	215.54
868.13	215.58
868.44	215.53
868.75	215.59
869.06	215.61
869.37	215.62
869.68	215.58
869.99	215.63
870.30	215.64
870.61	215.66
870.92	215.63
871.23	215.61
871.54	215.61
871.85	215.68
872.16	215.68
872.47	215.67
872.78	215.54
873.09	215.55
873.40	215.55
873.71	215.57
874.02	215.57
874.33	215.56
874.64	215.54
874.95	215.56
875.26	215.50
875.56	215.47
875.87	215.45
876.18	215.43
876.49	215.64
876.80	215.61
877.11	215.55
877.42	215.56
877.73	215.58
878.04	215.56
878.35	215.55
878.66	215.56
878.96	215.56
879.27	215.54
879.58	215.55
879.89	215.53
880.20	215.58
880.51	215.54
880.82	215.58
881.12	215.56
881.43	215.51
881.74	215.48
882.05	215.47
882.36	215.46
882.67	215.49
882.97	215.24
883.28	215.20
883.59	215.21
883.90	215.22
884.21	215.21
884.51	215.22
884.82	215.18
885.13	215.20
885.44	215.20
885.74	215.20
886.05	215.17
886.36	215.15
886.67	215.07
886.98	215.19
887.28	215.20
887.59	215.20
887.90	215.22
888.20	215.21
888.51	215.24
888.82	215.23
889.13	215.20
889.43	215.35
889.74	215.38
890.05	215.39
890.35	215.35
890.66	215.33
890.97	215.29
891.28	215.28
891.58	215.30
891.89	215.28
892.20	215.25
892.50	215.25
892.81	215.26
893.12	215.28
893.42	215.19
893.73	215.23
894.04	215.24
894.34	215.26
894.65	215.30
894.95	215.28
895.26	215.27
895.57	215.38
895.87	215.21
896.18	215.24
896.48	215.25
896.79	215.27
897.10	215.28
897.40	215.30
897.71	215.32
898.01	215.29
898.32	215.36
898.63	215.35
898.93	215.36
899.24	215.37
899.54	215.36
899.85	215.38
900.15	215.34
900.46	215.34
900.76	215.36
901.07	215.36
901.38	215.36
901.68	215.41
901.99	215.32
902.29	215.34
902.60	215.31
902.90	215.29
903.21	215.27
903.51	215.29
903.82	215.37
904.12	215.35
904.43	215.36
904.73	215.33
905.03	215.37
905.34	215.56
905.64	215.52
905.95	215.51
906.25	215.48
906.56	215.48
906.86	215.48
907.17	215.45
907.47	215.42
907.77	215.44
908.08	215.39
908.38	215.39
908.69	215.44
908.99	215.50
909.30	215.50
909.60	215.51
909.90	215.50
910.21	215.42
910.51	215.38
910.81	215.43
911.12	215.45
911.42	215.41
911.73	215.19
912.03	215.25
912.33	215.28
912.64	215.27
912.94	215.26
913.24	215.23
913.55	215.20
913.85	215.21
914.15	215.22
914.46	215.24
914.76	215.22
915.06	215.19
915.37	215.13
915.67	215.13
915.97	215.14
916.27	215.10
916.58	215.09
916.88	215.11
917.18	215.03
917.49	215.15
917.79	215.18
918.09	215.21
918.39	215.23
918.70	215.22
919.00	215.24
919.30	215.34
919.60	215.31
919.91	215.33
920.21	215.31
920.51	215.26
920.81	215.26
921.12	215.32
921.42	215.31
921.72	215.31
922.02	215.33
922.32	215.34
922.63	215.37
922.93	215.51
923.23	215.51
923.53	215.52
923.83	215.37
924.13	215.40
924.44	215.43
924.74	215.46
925.04	215.51
925.34	215.51
925.64	215.42
925.94	215.45
926.24	215.54
926.55	215.52
926.85	215.56
927.15	215.56
927.45	215.55
927.75	215.52
928.05	215.53
928.35	215.51
928.65	215.56
928.95	215.57
929.26	215.45
929.56	215.51
929.86	215.52
930.16	215.52
930.46	215.48
930.76	215.43
931.06	215.36
931.36	215.30
931.66	215.31
931.96	215.35
932.26	215.33
932.56	215.27
932.86	215.31
933.16	215.34
933.46	215.32
933.76	215.26
934.06	215.33
934.36	215.39
934.66	215.38
934.96	215.32
935.26	215.31
935.56	215.35
935.86	215.28
936.16	215.26
936.46	215.23
936.76	215.21
937.06	215.21
937.36	215.21
937.66	215.22
937.96	215.21
938.26	215.14
938.56	215.13
938.86	215.12
939.16	215.17
939.46	215.16
939.76	215.17
940.06	215.20
940.35	215.17
940.65	215.07
940.95	215.08
941.25	215.07
941.55	215.04
941.85	214.99
942.15	215.01
942.45	215.06
942.75	215.06
943.04	215.06
943.34	215.08
943.64	215.05
943.94	214.98
944.24	214.99
944.54	215.02
944.84	215.04
945.13	215.03
945.43	214.99
945.73	214.97
946.03	214.96
946.33	214.92
946.62	214.90
946.92	214.91
947.22	214.93
947.52	214.96
947.82	214.98
948.11	214.96
948.41	214.98
948.71	214.93
949.01	214.96
949.31	214.99
949.60	214.99
949.90	215.04
950.20	215.04
950.50	215.05
950.79	215.03
951.09	215.05
951.39	215.01
951.69	215.00
951.98	215.03
952.28	215.03
952.58	215.02
952.87	214.98
953.17	215.03
953.47	214.99
953.76	214.97
954.06	214.93
954.36	214.94
954.66	214.90
954.95	214.96
955.25	214.98
955.55	214.95
955.84	214.92
956.14	214.90
956.44	214.95
956.73	214.91
957.03	214.91
957.32	214.92
957.62	214.94
957.92	214.98
958.21	214.95
958.51	215.19
958.81	215.21
959.10	215.26
959.40	215.29
959.69	215.31
959.99	215.34
960.29	215.39
960.58	215.35
960.88	215.45
961.17	215.40
961.47	215.41
961.76	215.41
962.06	215.46
962.36	215.46
962.65	215.43
962.95	215.44
963.24	215.42
963.54	215.41
963.83	215.41
964.13	215.41
964.42	215.35
964.72	215.18
965.01	215.19
965.31	215.17
965.60	215.11
965.90	215.25
966.19	215.20
966.49	215.21
966.78	215.24
967.08	215.22
967.37	215.20
967.67	215.15
967.96	215.17
968.26	215.16
968.55	215.18
968.85	215.20
969.14	215.21
969.43	215.20
969.73	215.18
970.02	215.19
970.32	215.17
970.61	215.18
970.91	215.11
971.20	215.09
971.49	215.06
971.79	215.08
972.08	214.92
972.38	214.94
972.67	214.91
972.96	214.93
973.26	214.89
973.55	215.01
973.85	215.02
974.14	215.00
974.43	214.99
974.73	214.94
975.02	214.90
975.31	214.89
975.61	214.92
975.90	214.92
976.19	214.90
976.49	214.92
976.78	214.91
977.07	214.90
977.37	214.92
977.66	214.97
977.95	214.94
978.24	214.95
978.54	214.98
978.83	214.98
979.12	214.94
979.42	214.90
979.71	214.87
980.00	214.85
980.29	214.87
980.59	214.87
980.88	214.95
981.17	214.97
981.46	214.96
981.76	214.96
982.05	214.99
982.34	215.02
982.63	214.97
982.93	214.98
983.22	215.07
983.51	215.08
983.80	215.10
984.09	215.12
984.39	215.10
984.68	215.07
984.97	215.07
985.26	215.06
985.55	215.12
985.85	215.07
986.14	215.10
986.43	215.12
986.72	215.10
987.01	215.02
987.30	215.02
987.59	215.01
987.89	214.99
988.18	214.94
988.47	214.90
988.76	214.92
989.05	214.89
989.34	214.87
989.63	214.92
989.92	214.88
990.22	214.86
990.51	214.86
990.80	214.87
991.09	214.87
991.38	214.90
991.67	214.86
991.96	214.82
992.25	214.82
992.54	214.79
992.83	214.79
993.12	214.79
993.41	214.86
993.70	214.93
993.99	214.99
994.28	215.03
994.58	215.08
994.87	215.05
995.16	215.08
995.45	215.02
995.74	214.96
996.03	214.99
996.32	215.01
996.61	215.07
996.90	215.09
997.19	215.07
997.48	215.09
997.77	215.10
998.06	215.13
998.34	215.12
998.63	215.15
998.92	215.18
999.21	215.19
999.50	215.17
999.79	215.13
1000.08	215.12
1000.37	215.13
1000.66	215.08
1000.95	215.16
1001.24	215.17
1001.53	215.19
1001.82	215.21
1002.11	215.16
1002.40	215.18
1002.68	215.21
1002.97	215.30
1003.26	215.27
1003.55	215.23
1003.84	215.23
1004.13	215.33
1004.42	215.34
1004.71	215.34
1004.99	215.30
1005.28	215.38
1005.57	215.33
1005.86	215.30
1006.15	215.27
1006.44	215.23
1006.72	215.24
1007.01	215.21
1007.30	215.19
1007.59	215.16
1007.88	215.14
1008.17	215.19
1008.45	215.18
1008.74	215.09
1009.03	214.99
1009.32	215.03
1009.60	215.03
1009.89	214.99
1010.18	214.86
1010.47	214.84
1010.76	214.80
1011.04	214.81
1011.33	214.79
1011.62	214.82
1011.91	214.81
1012.19	214.83
1012.48	214.82
1012.77	214.81
1013.05	214.89
1013.34	214.90
1013.63	214.93
1013.92	214.94
1014.20	214.89
1014.49	214.90
1014.78	214.93
1015.06	214.86
1015.35	214.84
1015.64	214.86
1015.92	214.93
1016.21	214.97
1016.50	214.99
1016.78	215.03
1017.07	215.06
1017.36	215.03
1017.64	215.04
1017.93	215.05
1018.22	215.02
1018.50	215.02
1018.79	215.05
1019.08	214.93
1019.36	214.95
1019.65	214.93
1019.93	214.98
1020.22	215.04
1020.51	215.13
1020.79	215.09
1021.08	214.53
1021.36	214.42
1021.65	215.11
1021.94	214.28
1022.22	215.39
1022.51	214.54
1022.79	216.02
1023.08	215.54
1023.36	217.39
1023.65	214.45
>>>>>End Processed Spectral Data<<<<<
