SpectraSuite Data File
++++++++++++++++++++++++++++++++++++
Date: Tue Jan 29 16:11:56 EST 2013
User: group
Dark Spectrum Present: No
Reference Spectrum Present: No
Number of Sampled Component Spectra: 1
Spectrometers: USB2E7196
Integration Time (usec): 65000 (USB2E7196)
Spectra Averaged: 100 (USB2E7196)
Boxcar Smoothing: 10 (USB2E7196)
Correct for Electrical Dark: No (USB2E7196)
Strobe/Lamp Enabled: No (USB2E7196)
Correct for Detector Non-linearity: No (USB2E7196)
Correct for Stray Light: No (USB2E7196)
Number of Pixels in Processed Spectrum: 2048
>>>>>Begin Processed Spectral Data<<<<<
339.09	0.00
339.48	202.80
339.86	203.94
340.24	205.64
340.63	206.88
341.01	212.10
341.39	209.66
341.78	212.02
342.16	213.01
342.54	213.53
342.93	202.00
343.31	212.21
343.69	212.72
344.07	213.20
344.46	213.65
344.84	214.04
345.22	214.18
345.60	214.44
345.99	214.60
346.37	214.71
346.75	214.79
347.13	214.88
347.52	214.96
347.90	215.07
348.28	215.10
348.66	215.16
349.05	215.12
349.43	215.20
349.81	215.29
350.19	215.32
350.57	215.38
350.96	215.50
351.34	215.56
351.72	215.66
352.10	215.76
352.48	215.77
352.87	215.82
353.25	215.88
353.63	215.90
354.01	215.95
354.39	216.02
354.77	216.07
355.15	216.18
355.54	216.15
355.92	216.13
356.30	216.17
356.68	216.36
357.06	216.46
357.44	216.46
357.82	216.53
358.20	216.63
358.58	216.67
358.97	216.71
359.35	216.82
359.73	216.94
360.11	216.97
360.49	217.07
360.87	217.13
361.25	217.18
361.63	217.32
362.01	217.35
362.39	217.36
362.77	217.42
363.15	217.40
363.53	217.48
363.91	217.53
364.29	217.57
364.67	217.39
365.05	217.43
365.43	217.47
365.81	217.46
366.19	217.58
366.57	217.66
366.95	217.70
367.33	217.66
367.71	217.63
368.09	217.69
368.47	217.69
368.85	217.66
369.23	217.67
369.61	217.61
369.99	217.67
370.37	217.68
370.75	217.77
371.13	217.75
371.51	217.70
371.89	217.71
372.27	217.68
372.65	217.64
373.03	217.60
373.41	217.59
373.78	217.56
374.16	217.37
374.54	217.25
374.92	217.20
375.30	217.21
375.68	217.14
376.06	217.10
376.44	217.06
376.82	217.05
377.19	217.02
377.57	216.99
377.95	216.89
378.33	216.85
378.71	216.68
379.09	216.68
379.47	216.66
379.84	216.58
380.22	216.52
380.60	216.48
380.98	216.40
381.36	216.32
381.73	216.25
382.11	216.31
382.49	216.26
382.87	216.20
383.25	216.14
383.62	216.35
384.00	216.26
384.38	216.21
384.76	216.21
385.13	216.25
385.51	216.20
385.89	216.14
386.27	216.11
386.64	216.10
387.02	216.05
387.40	216.00
387.78	215.99
388.15	215.98
388.53	215.96
388.91	215.97
389.29	215.95
389.66	215.95
390.04	215.86
390.42	215.93
390.79	215.92
391.17	215.89
391.55	215.67
391.92	215.66
392.30	215.66
392.68	215.61
393.05	215.55
393.43	215.56
393.81	215.57
394.18	215.57
394.56	215.62
394.94	215.66
395.31	215.63
395.69	215.69
396.06	215.73
396.44	215.78
396.82	215.77
397.19	215.91
397.57	215.92
397.95	215.98
398.32	215.92
398.70	215.98
399.07	216.06
399.45	216.07
399.82	216.13
400.20	216.19
400.58	216.25
400.95	216.24
401.33	216.34
401.70	216.57
402.08	216.64
402.45	216.72
402.83	216.84
403.20	216.99
403.58	217.06
403.95	217.22
404.33	217.39
404.71	217.54
405.08	217.81
405.46	217.98
405.83	218.18
406.21	218.38
406.58	218.61
406.96	218.82
407.33	219.09
407.70	219.35
408.08	219.82
408.45	220.18
408.83	220.58
409.20	220.90
409.58	221.13
409.95	221.60
410.33	222.03
410.70	222.46
411.08	222.98
411.45	223.55
411.82	224.08
412.20	224.71
412.57	225.52
412.95	226.04
413.32	226.86
413.69	227.66
414.07	228.56
414.44	229.51
414.82	230.49
415.19	231.61
415.56	232.78
415.94	233.87
416.31	235.25
416.68	236.59
417.06	238.14
417.43	239.67
417.81	241.33
418.18	243.05
418.55	244.87
418.93	246.85
419.30	248.86
419.67	251.03
420.04	253.25
420.42	255.51
420.79	258.24
421.16	260.91
421.54	263.73
421.91	266.59
422.28	269.57
422.66	272.75
423.03	275.94
423.40	279.19
423.77	282.68
424.15	286.16
424.52	289.85
424.89	293.88
425.26	297.84
425.64	301.59
426.01	305.76
426.38	310.12
426.75	314.51
427.13	319.12
427.50	323.93
427.87	328.93
428.24	333.96
428.61	338.73
428.99	344.04
429.36	349.78
429.73	355.46
430.10	361.14
430.47	366.99
430.85	373.06
431.22	379.52
431.59	386.37
431.96	393.01
432.33	400.22
432.70	407.23
433.08	415.43
433.45	423.21
433.82	430.95
434.19	439.56
434.56	448.01
434.93	456.06
435.30	464.08
435.68	472.84
436.05	481.52
436.42	490.12
436.79	498.00
437.16	506.53
437.53	515.50
437.90	524.26
438.27	532.89
438.64	541.84
439.01	550.05
439.38	557.41
439.75	564.47
440.13	572.63
440.50	580.30
440.87	586.47
441.24	592.95
441.61	600.05
441.98	605.22
442.35	611.28
442.72	617.33
443.09	623.14
443.46	626.79
443.83	629.19
444.20	631.33
444.57	634.35
444.94	635.72
445.31	637.09
445.68	638.48
446.05	639.13
446.42	638.32
446.79	637.42
447.16	636.33
447.53	635.55
447.90	632.33
448.27	629.10
448.64	624.62
449.01	621.28
449.37	615.58
449.74	610.09
450.11	603.42
450.48	596.29
450.85	589.10
451.22	582.82
451.59	576.94
451.96	571.32
452.33	563.73
452.70	556.93
453.07	548.77
453.43	540.45
453.80	532.44
454.17	524.74
454.54	517.49
454.91	509.67
455.28	502.01
455.65	494.86
456.02	487.71
456.38	481.61
456.75	474.13
457.12	467.79
457.49	461.52
457.86	455.59
458.23	450.46
458.59	444.72
458.96	439.00
459.33	433.93
459.70	428.80
460.07	424.72
460.43	420.01
460.80	415.57
461.17	411.76
461.54	407.70
461.91	403.80
462.27	399.84
462.64	396.53
463.01	392.85
463.38	389.29
463.74	385.70
464.11	382.60
464.48	379.85
464.85	376.85
465.21	374.50
465.58	371.97
465.95	368.88
466.32	366.36
466.68	363.80
467.05	361.29
467.42	358.79
467.78	356.22
468.15	353.76
468.52	351.98
468.88	349.60
469.25	347.47
469.62	345.73
469.98	343.81
470.35	342.07
470.72	340.46
471.08	338.77
471.45	337.37
471.82	335.90
472.18	334.26
472.55	333.10
472.92	331.78
473.28	330.60
473.65	329.54
474.02	328.55
474.38	327.73
474.75	327.01
475.11	326.23
475.48	325.69
475.85	325.27
476.21	324.77
476.58	324.45
476.94	324.26
477.31	324.00
477.67	323.80
478.04	323.63
478.41	323.58
478.77	323.75
479.14	323.72
479.50	323.86
479.87	324.17
480.23	324.54
480.60	324.84
480.96	325.11
481.33	325.76
481.69	326.28
482.06	326.81
482.42	327.31
482.79	327.99
483.15	328.87
483.52	329.81
483.88	330.69
484.25	331.62
484.61	332.67
484.98	333.74
485.34	335.10
485.71	336.46
486.07	337.96
486.44	339.27
486.80	340.88
487.17	342.59
487.53	344.47
487.90	346.32
488.26	348.31
488.62	350.48
488.99	352.46
489.35	354.65
489.72	357.01
490.08	359.51
490.44	362.04
490.81	364.68
491.17	367.35
491.54	370.37
491.90	373.43
492.26	376.64
492.63	380.05
492.99	383.52
493.36	387.21
493.72	391.11
494.08	395.12
494.45	399.31
494.81	403.62
495.17	408.11
495.54	412.80
495.90	417.63
496.26	422.51
496.63	427.70
496.99	433.04
497.35	438.66
497.72	444.48
498.08	450.42
498.44	456.49
498.80	462.88
499.17	469.37
499.53	475.98
499.89	482.83
500.26	489.74
500.62	496.76
500.98	504.11
501.34	511.48
501.71	519.20
502.07	526.94
502.43	534.91
502.79	542.96
503.16	551.33
503.52	559.86
503.88	568.53
504.24	577.42
504.60	586.41
504.97	595.51
505.33	604.73
505.69	614.53
506.05	624.30
506.41	634.11
506.78	644.06
507.14	654.28
507.50	664.73
507.86	675.34
508.22	686.12
508.59	696.83
508.95	707.79
509.31	718.96
509.67	730.39
510.03	741.69
510.39	753.32
510.75	765.06
511.12	776.87
511.48	788.87
511.84	801.04
512.20	813.32
512.56	825.93
512.92	838.61
513.28	851.16
513.64	863.81
514.00	876.49
514.37	889.35
514.73	902.19
515.09	914.99
515.45	927.73
515.81	940.51
516.17	953.64
516.53	966.67
516.89	979.60
517.25	992.61
517.61	1005.97
517.97	1019.17
518.33	1032.09
518.69	1045.41
519.05	1058.98
519.41	1072.48
519.77	1086.19
520.13	1099.23
520.49	1112.13
520.85	1125.28
521.21	1138.47
521.57	1151.94
521.93	1164.80
522.29	1178.49
522.65	1191.85
523.01	1205.31
523.37	1218.29
523.73	1231.29
524.09	1244.27
524.45	1257.47
524.81	1270.74
525.17	1283.84
525.53	1296.70
525.89	1309.79
526.25	1322.68
526.61	1335.23
526.97	1347.94
527.33	1360.55
527.68	1373.71
528.04	1386.93
528.40	1399.74
528.76	1412.75
529.12	1425.23
529.48	1438.25
529.84	1450.17
530.20	1462.54
530.56	1474.83
530.91	1487.82
531.27	1500.48
531.63	1512.94
531.99	1525.44
532.35	1537.31
532.71	1549.35
533.07	1561.94
533.42	1573.83
533.78	1585.59
534.14	1597.32
534.50	1608.28
534.86	1619.52
535.21	1630.09
535.57	1641.30
535.93	1652.32
536.29	1663.06
536.65	1674.26
537.00	1684.83
537.36	1695.84
537.72	1706.65
538.08	1717.50
538.44	1728.12
538.79	1738.78
539.15	1749.26
539.51	1759.52
539.87	1770.52
540.22	1780.98
540.58	1791.59
540.94	1802.07
541.29	1811.93
541.65	1821.41
542.01	1831.63
542.37	1841.37
542.72	1851.23
543.08	1860.67
543.44	1870.76
543.79	1879.72
544.15	1888.87
544.51	1898.73
544.87	1908.43
545.22	1917.29
545.58	1926.07
545.94	1934.61
546.29	1942.87
546.65	1951.02
547.01	1958.97
547.36	1966.28
547.72	1973.91
548.07	1981.34
548.43	1988.84
548.79	1996.47
549.14	2004.39
549.50	2012.61
549.86	2020.27
550.21	2027.43
550.57	2034.86
550.92	2041.42
551.28	2048.67
551.64	2055.80
551.99	2062.90
552.35	2069.82
552.70	2076.57
553.06	2083.04
553.41	2089.12
553.77	2095.48
554.13	2101.72
554.48	2108.54
554.84	2115.54
555.19	2121.82
555.55	2128.01
555.90	2134.14
556.26	2140.96
556.61	2146.70
556.97	2151.36
557.32	2157.13
557.68	2163.41
558.03	2169.06
558.39	2174.29
558.74	2180.11
559.10	2185.51
559.45	2191.06
559.81	2196.45
560.16	2201.93
560.52	2207.62
560.87	2214.02
561.23	2219.91
561.58	2226.52
561.94	2231.80
562.29	2236.56
562.64	2242.65
563.00	2248.16
563.35	2253.93
563.71	2259.63
564.06	2265.45
564.42	2271.52
564.77	2276.57
565.12	2281.88
565.48	2287.14
565.83	2292.61
566.19	2298.20
566.54	2303.57
566.89	2308.09
567.25	2312.77
567.60	2318.45
567.96	2323.82
568.31	2328.36
568.66	2332.66
569.02	2336.55
569.37	2340.36
569.72	2344.75
570.08	2348.39
570.43	2351.61
570.78	2354.66
571.14	2357.28
571.49	2360.39
571.84	2363.82
572.20	2366.76
572.55	2369.89
572.90	2372.26
573.26	2375.33
573.61	2377.96
573.96	2380.50
574.31	2382.73
574.67	2384.68
575.02	2385.65
575.37	2387.05
575.72	2387.99
576.08	2389.57
576.43	2390.04
576.78	2390.82
577.13	2392.73
577.49	2393.92
577.84	2395.40
578.19	2396.94
578.54	2397.79
578.90	2398.91
579.25	2399.01
579.60	2399.26
579.95	2398.59
580.30	2398.93
580.66	2398.32
581.01	2396.77
581.36	2394.53
581.71	2393.29
582.06	2392.57
582.42	2391.84
582.77	2389.92
583.12	2388.52
583.47	2387.48
583.82	2386.90
584.17	2385.70
584.53	2383.45
584.88	2381.61
585.23	2379.68
585.58	2377.59
585.93	2375.48
586.28	2373.38
586.63	2371.20
586.98	2369.23
587.34	2367.52
587.69	2365.31
588.04	2363.61
588.39	2362.28
588.74	2359.97
589.09	2357.69
589.44	2354.55
589.79	2352.32
590.14	2350.65
590.49	2347.88
590.84	2344.20
591.19	2341.34
591.54	2338.27
591.89	2334.52
592.25	2331.35
592.60	2327.44
592.95	2323.53
593.30	2319.56
593.65	2315.30
594.00	2311.15
594.35	2308.08
594.70	2303.60
595.05	2299.04
595.40	2293.52
595.75	2287.95
596.10	2284.43
596.45	2279.43
596.80	2275.06
597.15	2269.99
597.50	2264.08
597.85	2259.29
598.19	2254.02
598.54	2248.33
598.89	2243.26
599.24	2239.02
599.59	2233.02
599.94	2227.46
600.29	2221.58
600.64	2216.09
600.99	2209.60
601.34	2204.14
601.69	2197.18
602.04	2190.93
602.39	2184.46
602.74	2178.59
603.08	2173.30
603.43	2166.95
603.78	2160.22
604.13	2153.14
604.48	2146.05
604.83	2140.09
605.18	2133.85
605.53	2127.10
605.87	2120.21
606.22	2113.53
606.57	2105.49
606.92	2097.87
607.27	2090.79
607.62	2084.11
607.96	2076.96
608.31	2070.35
608.66	2062.72
609.01	2055.21
609.36	2048.09
609.70	2040.44
610.05	2032.78
610.40	2024.47
610.75	2016.17
611.10	2008.79
611.44	2000.13
611.79	1991.40
612.14	1981.49
612.49	1971.12
612.83	1962.02
613.18	1952.91
613.53	1943.61
613.88	1934.26
614.22	1925.56
614.57	1915.79
614.92	1905.34
615.27	1895.37
615.61	1885.43
615.96	1875.86
616.31	1866.24
616.65	1856.96
617.00	1847.25
617.35	1837.56
617.70	1827.95
618.04	1817.89
618.39	1807.38
618.74	1797.77
619.08	1788.29
619.43	1779.56
619.78	1771.41
620.12	1762.70
620.47	1752.96
620.82	1742.72
621.16	1732.98
621.51	1722.97
621.85	1713.01
622.20	1702.69
622.55	1692.14
622.89	1682.35
623.24	1672.52
623.59	1662.92
623.93	1652.74
624.28	1643.01
624.62	1632.80
624.97	1622.46
625.32	1612.81
625.66	1604.14
626.01	1595.33
626.35	1585.80
626.70	1575.74
627.04	1565.49
627.39	1555.38
627.73	1546.08
628.08	1537.13
628.43	1527.45
628.77	1518.33
629.12	1509.59
629.46	1501.77
629.81	1493.26
630.15	1483.66
630.50	1473.87
630.84	1463.33
631.19	1453.54
631.53	1444.07
631.88	1434.07
632.22	1424.10
632.57	1414.75
632.91	1404.56
633.26	1394.79
633.60	1385.20
633.95	1375.94
634.29	1366.67
634.64	1357.36
634.98	1347.55
635.32	1338.23
635.67	1329.75
636.01	1320.53
636.36	1310.67
636.70	1301.04
637.05	1291.79
637.39	1282.86
637.73	1274.28
638.08	1266.85
638.42	1258.49
638.77	1249.81
639.11	1241.62
639.45	1233.86
639.80	1225.29
640.14	1216.69
640.49	1207.84
640.83	1199.05
641.17	1190.91
641.52	1182.62
641.86	1174.08
642.20	1166.17
642.55	1157.70
642.89	1148.90
643.23	1140.30
643.58	1132.33
643.92	1123.43
644.26	1114.78
644.61	1106.40
644.95	1097.64
645.29	1088.41
645.64	1079.30
645.98	1070.95
646.32	1062.99
646.66	1054.43
647.01	1046.09
647.35	1037.93
647.69	1029.50
648.04	1021.27
648.38	1012.45
648.72	1003.74
649.06	995.28
649.41	987.23
649.75	979.24
650.09	971.46
650.43	963.39
650.78	955.21
651.12	947.52
651.46	940.13
651.80	932.91
652.14	925.65
652.49	918.18
652.83	910.98
653.17	903.33
653.51	895.76
653.85	888.63
654.20	881.35
654.54	873.88
654.88	866.82
655.22	859.76
655.56	852.80
655.90	846.10
656.25	839.54
656.59	832.58
656.93	825.61
657.27	818.50
657.61	811.72
657.95	805.65
658.29	799.91
658.64	793.81
658.98	787.36
659.32	780.87
659.66	774.71
660.00	768.44
660.34	762.43
660.68	756.33
661.02	750.10
661.36	744.30
661.70	738.67
662.05	733.03
662.39	727.49
662.73	722.24
663.07	716.94
663.41	711.37
663.75	705.82
664.09	700.29
664.43	694.96
664.77	689.61
665.11	683.84
665.45	677.95
665.79	672.18
666.13	666.64
666.47	661.25
666.81	655.88
667.15	650.58
667.49	645.47
667.83	640.37
668.17	635.19
668.51	630.18
668.85	625.25
669.19	620.42
669.53	615.57
669.87	610.54
670.21	605.82
670.55	601.26
670.89	596.88
671.23	592.60
671.57	588.30
671.91	584.09
672.25	580.09
672.58	576.00
672.92	572.05
673.26	568.13
673.60	564.35
673.94	560.61
674.28	557.03
674.62	553.33
674.96	549.65
675.30	546.26
675.64	542.62
675.97	539.18
676.31	535.60
676.65	532.01
676.99	528.53
677.33	524.76
677.67	521.10
678.01	517.31
678.34	513.71
678.68	510.26
679.02	506.71
679.36	503.02
679.70	499.45
680.04	495.95
680.37	492.59
680.71	489.33
681.05	486.17
681.39	483.00
681.73	479.87
682.06	476.85
682.40	473.76
682.74	470.61
683.08	467.39
683.42	464.30
683.75	461.34
684.09	458.45
684.43	455.68
684.77	452.81
685.10	450.05
685.44	447.19
685.78	444.32
686.12	441.63
686.45	438.99
686.79	436.45
687.13	433.98
687.46	431.40
687.80	428.81
688.14	426.03
688.48	423.49
688.81	420.88
689.15	418.38
689.49	415.79
689.82	413.34
690.16	410.83
690.50	408.44
690.83	405.97
691.17	403.45
691.51	401.08
691.84	398.85
692.18	396.64
692.52	394.46
692.85	392.37
693.19	390.23
693.52	388.13
693.86	385.89
694.20	383.68
694.53	381.56
694.87	379.36
695.21	377.29
695.54	375.17
695.88	373.05
696.21	370.85
696.55	368.79
696.88	366.77
697.22	364.83
697.56	362.99
697.89	361.21
698.23	359.54
698.56	357.73
698.90	356.02
699.23	354.15
699.57	352.35
699.90	350.46
700.24	348.70
700.58	346.93
700.91	345.33
701.25	343.88
701.58	342.35
701.92	340.82
702.25	339.27
702.59	337.66
702.92	336.17
703.26	334.66
703.59	333.24
703.93	332.00
704.26	330.59
704.60	329.07
704.93	327.61
705.26	326.13
705.60	324.73
705.93	323.27
706.27	322.02
706.60	320.81
706.94	319.60
707.27	318.25
707.61	316.96
707.94	315.69
708.27	314.17
708.61	312.76
708.94	311.39
709.28	310.08
709.61	308.85
709.94	307.62
710.28	306.46
710.61	305.27
710.95	303.85
711.28	302.85
711.61	301.71
711.95	300.63
712.28	299.46
712.61	298.28
712.95	297.27
713.28	296.26
713.61	295.11
713.95	293.97
714.28	292.99
714.61	291.96
714.95	290.93
715.28	289.94
715.61	288.97
715.95	288.06
716.28	287.15
716.61	286.25
716.95	285.35
717.28	284.41
717.61	283.49
717.94	282.66
718.28	281.60
718.61	280.76
718.94	279.87
719.27	279.07
719.61	278.28
719.94	277.43
720.27	276.46
720.60	275.59
720.94	274.88
721.27	274.16
721.60	273.50
721.93	272.82
722.27	272.23
722.60	271.57
722.93	270.89
723.26	270.28
723.59	269.67
723.93	269.08
724.26	268.47
724.59	267.85
724.92	267.26
725.25	266.77
725.59	266.18
725.92	265.69
726.25	265.12
726.58	264.54
726.91	263.96
727.24	263.49
727.57	262.99
727.91	262.33
728.24	261.77
728.57	261.21
728.90	260.67
729.23	260.09
729.56	259.64
729.89	259.11
730.22	258.53
730.55	257.95
730.89	257.42
731.22	256.91
731.55	256.42
731.88	255.95
732.21	255.39
732.54	254.86
732.87	254.28
733.20	253.80
733.53	253.34
733.86	252.90
734.19	252.38
734.52	251.98
734.85	251.72
735.18	251.28
735.51	250.89
735.84	250.48
736.17	250.09
736.50	249.59
736.83	249.47
737.16	249.10
737.49	248.73
737.82	248.35
738.15	247.98
738.48	247.61
738.81	247.21
739.14	246.79
739.47	246.47
739.80	246.19
740.13	245.88
740.46	245.50
740.79	245.13
741.12	244.77
741.45	244.41
741.78	244.00
742.11	243.74
742.44	243.41
742.77	243.11
743.10	242.73
743.43	242.37
743.75	241.83
744.08	241.75
744.41	241.39
744.74	241.05
745.07	240.66
745.40	240.35
745.73	240.15
746.06	239.88
746.39	239.60
746.71	239.22
747.04	238.88
747.37	238.56
747.70	238.28
748.03	238.03
748.36	237.74
748.68	237.46
749.01	237.11
749.34	236.83
749.67	236.54
750.00	236.32
750.33	236.21
750.65	235.95
750.98	235.42
751.31	235.23
751.64	234.98
751.97	234.89
752.29	234.66
752.62	234.29
752.95	234.02
753.28	233.74
753.60	233.56
753.93	233.35
754.26	233.17
754.59	232.90
754.91	232.66
755.24	232.43
755.57	232.19
755.90	231.98
756.22	231.75
756.55	231.52
756.88	231.27
757.20	230.92
757.53	230.69
757.86	230.52
758.19	230.34
758.51	230.14
758.84	229.83
759.17	229.62
759.49	229.46
759.82	229.42
760.15	229.29
760.47	229.09
760.80	228.86
761.13	228.72
761.45	228.54
761.78	228.38
762.11	228.23
762.43	228.06
762.76	227.87
763.08	227.72
763.41	227.56
763.74	227.42
764.06	227.29
764.39	227.12
764.71	226.96
765.04	226.77
765.37	226.61
765.69	226.47
766.02	226.34
766.34	226.20
766.67	225.95
767.00	225.83
767.32	225.79
767.65	225.79
767.97	225.63
768.30	225.55
768.62	225.40
768.95	225.23
769.27	225.13
769.60	225.04
769.92	224.87
770.25	224.73
770.57	224.60
770.90	224.47
771.22	224.34
771.55	224.23
771.87	224.12
772.20	224.01
772.52	224.11
772.85	224.27
773.17	224.17
773.50	224.07
773.82	223.94
774.15	223.77
774.47	223.55
774.80	223.47
775.12	223.34
775.45	223.26
775.77	223.19
776.09	223.09
776.42	223.01
776.74	223.00
777.07	222.91
777.39	222.81
777.72	222.74
778.04	222.69
778.36	222.58
778.69	222.52
779.01	222.46
779.33	222.18
779.66	221.86
779.98	221.77
780.31	221.68
780.63	221.69
780.95	221.67
781.28	221.58
781.60	221.50
781.92	221.45
782.25	221.41
782.57	221.37
782.89	221.28
783.22	221.17
783.54	221.05
783.86	221.00
784.19	220.94
784.51	220.91
784.83	220.81
785.16	220.75
785.48	220.69
785.80	220.63
786.12	220.61
786.45	220.54
786.77	220.51
787.09	220.51
787.42	220.37
787.74	220.30
788.06	220.31
788.38	220.23
788.71	220.16
789.03	220.10
789.35	220.03
789.67	220.02
789.99	220.00
790.32	219.94
790.64	219.92
790.96	220.07
791.28	219.96
791.61	219.92
791.93	219.89
792.25	219.84
792.57	219.92
792.89	219.78
793.21	219.74
793.54	219.65
793.86	219.53
794.18	219.51
794.50	219.45
794.82	219.40
795.14	219.37
795.47	219.35
795.79	219.30
796.11	219.21
796.43	219.13
796.75	219.09
797.07	219.07
797.39	219.00
797.71	218.77
798.04	218.78
798.36	218.72
798.68	218.70
799.00	218.69
799.32	218.58
799.64	218.60
799.96	218.55
800.28	218.55
800.60	218.51
800.92	218.51
801.24	218.44
801.56	218.44
801.89	218.39
802.21	218.34
802.53	218.31
802.85	218.33
803.17	218.36
803.49	218.29
803.81	218.26
804.13	218.22
804.45	218.22
804.77	218.16
805.09	218.14
805.41	218.11
805.73	218.04
806.05	217.95
806.37	217.94
806.69	217.90
807.01	217.85
807.33	217.87
807.65	217.80
807.97	217.84
808.28	217.77
808.60	217.73
808.92	217.70
809.24	217.77
809.56	217.70
809.88	217.62
810.20	217.61
810.52	217.61
810.84	217.55
811.16	217.51
811.48	217.45
811.80	217.51
812.12	217.48
812.43	217.49
812.75	217.49
813.07	217.42
813.39	217.41
813.71	217.39
814.03	217.34
814.35	217.30
814.67	217.22
814.98	217.17
815.30	217.19
815.62	217.13
815.94	216.99
816.26	217.00
816.58	216.98
816.89	216.98
817.21	216.89
817.53	216.90
817.85	216.84
818.17	216.87
818.48	216.77
818.80	216.79
819.12	216.73
819.44	216.67
819.76	216.63
820.07	216.63
820.39	216.60
820.71	216.61
821.03	216.60
821.34	216.59
821.66	216.60
821.98	216.57
822.30	216.56
822.61	216.68
822.93	216.63
823.25	216.59
823.57	216.57
823.88	216.63
824.20	216.59
824.52	216.63
824.83	216.59
825.15	216.55
825.47	216.50
825.79	216.52
826.10	216.48
826.42	216.47
826.74	216.48
827.05	216.46
827.37	216.40
827.69	216.39
828.00	216.35
828.32	216.34
828.64	216.31
828.95	216.36
829.27	216.29
829.58	216.29
829.90	216.33
830.22	216.32
830.53	216.21
830.85	216.20
831.17	216.15
831.48	216.14
831.80	216.16
832.11	216.13
832.43	216.11
832.75	216.10
833.06	216.23
833.38	216.13
833.69	216.11
834.01	216.12
834.32	216.08
834.64	216.06
834.96	216.05
835.27	216.03
835.59	215.99
835.90	215.92
836.22	215.94
836.53	215.89
836.85	215.85
837.16	216.06
837.48	216.05
837.79	216.11
838.11	216.12
838.42	216.11
838.74	216.15
839.05	216.11
839.37	216.10
839.68	215.99
840.00	215.96
840.31	216.02
840.63	216.01
840.94	216.03
841.26	215.99
841.57	215.99
841.88	216.00
842.20	215.97
842.51	215.95
842.83	215.89
843.14	216.08
843.46	216.09
843.77	215.99
844.08	215.95
844.40	215.86
844.71	215.84
845.03	215.80
845.34	215.74
845.65	215.75
845.97	215.76
846.28	215.74
846.60	215.80
846.91	215.75
847.22	215.72
847.54	215.71
847.85	215.73
848.16	215.70
848.48	215.64
848.79	215.72
849.10	215.76
849.42	215.80
849.73	215.59
850.04	215.59
850.36	215.50
850.67	215.54
850.98	215.54
851.30	215.54
851.61	215.53
851.92	215.54
852.23	215.60
852.55	215.62
852.86	215.64
853.17	215.64
853.49	215.65
853.80	215.69
854.11	215.73
854.42	215.76
854.74	215.77
855.05	215.81
855.36	215.70
855.67	215.68
855.99	215.68
856.30	215.92
856.61	215.89
856.92	215.88
857.23	215.87
857.55	215.84
857.86	215.83
858.17	215.87
858.48	215.88
858.79	215.81
859.11	215.79
859.42	215.73
859.73	215.66
860.04	215.66
860.35	215.64
860.66	215.58
860.98	215.54
861.29	215.56
861.60	215.53
861.91	215.59
862.22	215.55
862.53	215.49
862.84	215.22
863.16	215.28
863.47	215.25
863.78	215.24
864.09	215.26
864.40	215.26
864.71	215.25
865.02	215.27
865.33	215.24
865.64	215.23
865.95	215.25
866.27	215.41
866.58	215.35
866.89	215.31
867.20	215.28
867.51	215.26
867.82	215.19
868.13	215.26
868.44	215.16
868.75	215.19
869.06	215.21
869.37	215.23
869.68	215.18
869.99	215.21
870.30	215.23
870.61	215.26
870.92	215.25
871.23	215.22
871.54	215.23
871.85	215.26
872.16	215.26
872.47	215.27
872.78	215.14
873.09	215.20
873.40	215.17
873.71	215.18
874.02	215.21
874.33	215.23
874.64	215.18
874.95	215.25
875.26	215.19
875.56	215.20
875.87	215.21
876.18	215.20
876.49	215.40
876.80	215.36
877.11	215.31
877.42	215.29
877.73	215.31
878.04	215.25
878.35	215.26
878.66	215.28
878.96	215.24
879.27	215.22
879.58	215.21
879.89	215.22
880.20	215.29
880.51	215.28
880.82	215.27
881.12	215.24
881.43	215.21
881.74	215.22
882.05	215.20
882.36	215.17
882.67	215.17
882.97	214.92
883.28	214.91
883.59	214.90
883.90	214.96
884.21	214.95
884.51	214.95
884.82	214.92
885.13	214.90
885.44	214.93
885.74	214.93
886.05	214.94
886.36	214.95
886.67	214.88
886.98	214.98
887.28	214.99
887.59	215.03
887.90	215.06
888.20	215.04
888.51	215.09
888.82	215.09
889.13	215.12
889.43	215.32
889.74	215.31
890.05	215.28
890.35	215.25
890.66	215.26
890.97	215.23
891.28	215.19
891.58	215.19
891.89	215.18
892.20	215.15
892.50	215.11
892.81	215.11
893.12	215.11
893.42	214.99
893.73	215.02
894.04	215.00
894.34	215.00
894.65	214.99
894.95	214.97
895.26	214.98
895.57	215.04
895.87	214.86
896.18	214.91
896.48	214.97
896.79	214.95
897.10	214.96
897.40	214.97
897.71	215.03
898.01	215.00
898.32	215.01
898.63	215.02
898.93	215.05
899.24	215.05
899.54	215.02
899.85	215.03
900.15	215.01
900.46	215.03
900.76	215.07
901.07	215.08
901.38	215.07
901.68	215.08
901.99	214.95
902.29	214.92
902.60	214.91
902.90	214.87
903.21	214.89
903.51	214.86
903.82	214.94
904.12	214.95
904.43	214.99
904.73	214.96
905.03	214.94
905.34	215.11
905.64	215.07
905.95	215.11
906.25	215.09
906.56	215.10
906.86	215.05
907.17	215.00
907.47	215.04
907.77	215.01
908.08	214.99
908.38	215.04
908.69	215.10
908.99	215.14
909.30	215.16
909.60	215.18
909.90	215.20
910.21	215.14
910.51	215.09
910.81	215.10
911.12	215.11
911.42	215.14
911.73	214.97
912.03	214.99
912.33	215.05
912.64	215.06
912.94	214.99
913.24	214.97
913.55	214.97
913.85	214.94
914.15	215.00
914.46	215.01
914.76	214.98
915.06	214.96
915.37	214.91
915.67	214.89
915.97	214.87
916.27	214.82
916.58	214.82
916.88	214.85
917.18	214.80
917.49	214.94
917.79	214.94
918.09	214.96
918.39	215.05
918.70	215.00
919.00	215.00
919.30	215.14
919.60	215.14
919.91	215.12
920.21	215.12
920.51	215.03
920.81	215.03
921.12	215.07
921.42	215.07
921.72	215.07
922.02	215.09
922.32	215.09
922.63	215.09
922.93	215.19
923.23	215.17
923.53	215.17
923.83	215.04
924.13	215.05
924.44	215.05
924.74	215.05
925.04	215.08
925.34	215.08
925.64	215.01
925.94	215.01
926.24	215.10
926.55	215.09
926.85	215.16
927.15	215.16
927.45	215.14
927.75	215.14
928.05	215.15
928.35	215.14
928.65	215.21
928.95	215.26
929.26	215.15
929.56	215.19
929.86	215.21
930.16	215.19
930.46	215.18
930.76	215.16
931.06	215.07
931.36	215.04
931.66	215.06
931.96	215.06
932.26	215.09
932.56	215.03
932.86	215.08
933.16	215.04
933.46	215.00
933.76	214.99
934.06	215.05
934.36	215.16
934.66	215.13
934.96	215.08
935.26	215.07
935.56	215.11
935.86	215.05
936.16	215.01
936.46	214.99
936.76	214.95
937.06	214.93
937.36	214.91
937.66	214.92
937.96	214.91
938.26	214.87
938.56	214.84
938.86	214.83
939.16	214.83
939.46	214.87
939.76	214.91
940.06	214.90
940.35	214.83
940.65	214.68
940.95	214.74
941.25	214.68
941.55	214.65
941.85	214.63
942.15	214.72
942.45	214.78
942.75	214.77
943.04	214.80
943.34	214.84
943.64	214.85
943.94	214.81
944.24	214.81
944.54	214.83
944.84	214.82
945.13	214.80
945.43	214.76
945.73	214.72
946.03	214.71
946.33	214.66
946.62	214.67
946.92	214.66
947.22	214.63
947.52	214.67
947.82	214.70
948.11	214.69
948.41	214.63
948.71	214.59
949.01	214.62
949.31	214.62
949.60	214.61
949.90	214.62
950.20	214.61
950.50	214.61
950.79	214.59
951.09	214.62
951.39	214.62
951.69	214.61
951.98	214.68
952.28	214.66
952.58	214.68
952.87	214.67
953.17	214.71
953.47	214.71
953.76	214.70
954.06	214.67
954.36	214.67
954.66	214.66
954.95	214.71
955.25	214.72
955.55	214.75
955.84	214.72
956.14	214.74
956.44	214.76
956.73	214.72
957.03	214.75
957.32	214.74
957.62	214.75
957.92	214.75
958.21	214.72
958.51	214.97
958.81	215.00
959.10	215.01
959.40	215.07
959.69	215.05
959.99	215.07
960.29	215.06
960.58	215.03
960.88	215.09
961.17	215.06
961.47	215.08
961.76	215.05
962.06	215.09
962.36	215.06
962.65	215.08
962.95	215.08
963.24	215.06
963.54	215.05
963.83	215.07
964.13	215.09
964.42	215.01
964.72	214.87
965.01	214.87
965.31	214.85
965.60	214.79
965.90	214.91
966.19	214.85
966.49	214.87
966.78	214.84
967.08	214.82
967.37	214.83
967.67	214.80
967.96	214.86
968.26	214.83
968.55	214.88
968.85	214.87
969.14	214.88
969.43	214.89
969.73	214.88
970.02	214.87
970.32	214.85
970.61	214.84
970.91	214.76
971.20	214.74
971.49	214.73
971.79	214.76
972.08	214.64
972.38	214.67
972.67	214.66
972.96	214.74
973.26	214.71
973.55	214.78
973.85	214.76
974.14	214.71
974.43	214.74
974.73	214.64
975.02	214.63
975.31	214.66
975.61	214.61
975.90	214.61
976.19	214.58
976.49	214.59
976.78	214.63
977.07	214.63
977.37	214.63
977.66	214.65
977.95	214.61
978.24	214.62
978.54	214.66
978.83	214.63
979.12	214.59
979.42	214.61
979.71	214.56
980.00	214.55
980.29	214.57
980.59	214.53
980.88	214.63
981.17	214.64
981.46	214.62
981.76	214.64
982.05	214.71
982.34	214.75
982.63	214.72
982.93	214.71
983.22	214.76
983.51	214.79
983.80	214.80
984.09	214.80
984.39	214.76
984.68	214.77
984.97	214.79
985.26	214.73
985.55	214.73
985.85	214.70
986.14	214.75
986.43	214.78
986.72	214.78
987.01	214.71
987.30	214.71
987.59	214.73
987.89	214.72
988.18	214.65
988.47	214.61
988.76	214.62
989.05	214.63
989.34	214.57
989.63	214.62
989.92	214.59
990.22	214.58
990.51	214.62
990.80	214.57
991.09	214.60
991.38	214.66
991.67	214.61
991.96	214.58
992.25	214.59
992.54	214.55
992.83	214.55
993.12	214.53
993.41	214.55
993.70	214.60
993.99	214.68
994.28	214.72
994.58	214.77
994.87	214.74
995.16	214.75
995.45	214.75
995.74	214.67
996.03	214.72
996.32	214.75
996.61	214.77
996.90	214.78
997.19	214.78
997.48	214.83
997.77	214.83
998.06	214.85
998.34	214.84
998.63	214.83
998.92	214.86
999.21	214.92
999.50	214.92
999.79	214.88
1000.08	214.84
1000.37	214.83
1000.66	214.74
1000.95	214.82
1001.24	214.83
1001.53	214.82
1001.82	214.79
1002.11	214.75
1002.40	214.77
1002.68	214.82
1002.97	214.98
1003.26	214.94
1003.55	214.88
1003.84	214.90
1004.13	214.97
1004.42	214.96
1004.71	214.91
1004.99	214.88
1005.28	214.90
1005.57	214.87
1005.86	214.83
1006.15	214.81
1006.44	214.79
1006.72	214.86
1007.01	214.81
1007.30	214.83
1007.59	214.84
1007.88	214.86
1008.17	214.88
1008.45	214.85
1008.74	214.75
1009.03	214.64
1009.32	214.65
1009.60	214.64
1009.89	214.59
1010.18	214.49
1010.47	214.47
1010.76	214.52
1011.04	214.54
1011.33	214.55
1011.62	214.57
1011.91	214.58
1012.19	214.59
1012.48	214.57
1012.77	214.55
1013.05	214.65
1013.34	214.63
1013.63	214.61
1013.92	214.63
1014.20	214.60
1014.49	214.61
1014.78	214.63
1015.06	214.57
1015.35	214.58
1015.64	214.60
1015.92	214.69
1016.21	214.72
1016.50	214.72
1016.78	214.76
1017.07	214.78
1017.36	214.74
1017.64	214.73
1017.93	214.78
1018.22	214.77
1018.50	214.76
1018.79	214.76
1019.08	214.63
1019.36	214.62
1019.65	214.60
1019.93	214.68
1020.22	214.71
1020.51	214.82
1020.79	214.78
1021.08	214.38
1021.36	214.12
1021.65	214.63
1021.94	214.14
1022.22	214.28
1022.51	214.05
1022.79	216.14
1023.08	214.91
1023.36	217.14
1023.65	213.74
>>>>>End Processed Spectral Data<<<<<
