SpectraSuite Data File
++++++++++++++++++++++++++++++++++++
Date: Tue Jan 29 16:31:48 EST 2013
User: group
Dark Spectrum Present: No
Reference Spectrum Present: No
Number of Sampled Component Spectra: 1
Spectrometers: USB2E7196
Integration Time (usec): 65000 (USB2E7196)
Spectra Averaged: 100 (USB2E7196)
Boxcar Smoothing: 10 (USB2E7196)
Correct for Electrical Dark: No (USB2E7196)
Strobe/Lamp Enabled: No (USB2E7196)
Correct for Detector Non-linearity: No (USB2E7196)
Correct for Stray Light: No (USB2E7196)
Number of Pixels in Processed Spectrum: 2048
>>>>>Begin Processed Spectral Data<<<<<
339.09	0.00
339.48	201.96
339.86	203.34
340.24	204.57
340.63	206.56
341.01	210.70
341.39	208.92
341.78	210.58
342.16	212.01
342.54	211.77
342.93	201.23
343.31	211.38
343.69	211.93
344.07	212.39
344.46	212.87
344.84	213.25
345.22	213.45
345.60	213.71
345.99	213.92
346.37	214.07
346.75	214.21
347.13	214.29
347.52	214.33
347.90	214.47
348.28	214.53
348.66	214.61
349.05	214.60
349.43	214.69
349.81	214.78
350.19	214.87
350.57	214.94
350.96	215.06
351.34	215.19
351.72	215.30
352.10	215.41
352.48	215.48
352.87	215.53
353.25	215.55
353.63	215.63
354.01	215.68
354.39	215.75
354.77	215.82
355.15	215.93
355.54	215.99
355.92	216.00
356.30	216.05
356.68	216.26
357.06	216.35
357.44	216.38
357.82	216.40
358.20	216.49
358.58	216.56
358.97	216.60
359.35	216.70
359.73	216.79
360.11	216.87
360.49	216.93
360.87	216.97
361.25	217.06
361.63	217.17
362.01	217.23
362.39	217.27
362.77	217.31
363.15	217.32
363.53	217.34
363.91	217.35
364.29	217.36
364.67	217.15
365.05	217.17
365.43	217.22
365.81	217.27
366.19	217.35
366.57	217.40
366.95	217.35
367.33	217.28
367.71	217.29
368.09	217.32
368.47	217.29
368.85	217.28
369.23	217.30
369.61	217.21
369.99	217.23
370.37	217.21
370.75	217.30
371.13	217.24
371.51	217.19
371.89	217.16
372.27	217.13
372.65	217.12
373.03	217.09
373.41	217.02
373.78	216.95
374.16	216.78
374.54	216.70
374.92	216.69
375.30	216.64
375.68	216.52
376.06	216.47
376.44	216.42
376.82	216.41
377.19	216.36
377.57	216.32
377.95	216.19
378.33	216.12
378.71	215.92
379.09	215.91
379.47	215.89
379.84	215.84
380.22	215.80
380.60	215.73
380.98	215.63
381.36	215.58
381.73	215.52
382.11	215.55
382.49	215.49
382.87	215.40
383.25	215.37
383.62	215.59
384.00	215.49
384.38	215.46
384.76	215.48
385.13	215.52
385.51	215.46
385.89	215.42
386.27	215.42
386.64	215.45
387.02	215.40
387.40	215.39
387.78	215.37
388.15	215.37
388.53	215.39
388.91	215.36
389.29	215.35
389.66	215.35
390.04	215.31
390.42	215.37
390.79	215.40
391.17	215.38
391.55	215.14
391.92	215.15
392.30	215.18
392.68	215.10
393.05	215.06
393.43	215.10
393.81	215.11
394.18	215.06
394.56	215.04
394.94	215.10
395.31	215.07
395.69	215.14
396.06	215.17
396.44	215.21
396.82	215.24
397.19	215.36
397.57	215.37
397.95	215.46
398.32	215.41
398.70	215.43
399.07	215.53
399.45	215.57
399.82	215.61
400.20	215.63
400.58	215.72
400.95	215.69
401.33	215.78
401.70	216.01
402.08	216.13
402.45	216.23
402.83	216.36
403.20	216.49
403.58	216.57
403.95	216.72
404.33	216.86
404.71	217.03
405.08	217.27
405.46	217.45
405.83	217.65
406.21	217.85
406.58	218.12
406.96	218.32
407.33	218.61
407.70	218.95
408.08	219.43
408.45	219.78
408.83	220.21
409.20	220.52
409.58	220.80
409.95	221.27
410.33	221.74
410.70	222.19
411.08	222.74
411.45	223.29
411.82	223.86
412.20	224.55
412.57	225.37
412.95	225.94
413.32	226.80
413.69	227.60
414.07	228.53
414.44	229.51
414.82	230.55
415.19	231.72
415.56	232.86
415.94	234.04
416.31	235.46
416.68	236.82
417.06	238.45
417.43	240.00
417.81	241.75
418.18	243.56
418.55	245.48
418.93	247.52
419.30	249.63
419.67	251.83
420.04	254.11
420.42	256.52
420.79	259.35
421.16	262.12
421.54	265.02
421.91	267.98
422.28	271.05
422.66	274.32
423.03	277.55
423.40	280.96
423.77	284.52
424.15	288.17
424.52	292.04
424.89	296.24
425.26	300.31
425.64	304.14
426.01	308.45
426.38	312.95
426.75	317.52
427.13	322.23
427.50	327.24
427.87	332.45
428.24	337.62
428.61	342.64
428.99	348.18
429.36	354.24
429.73	360.11
430.10	366.04
430.47	372.17
430.85	378.51
431.22	385.19
431.59	392.29
431.96	399.14
432.33	406.63
432.70	413.85
433.08	422.40
433.45	430.46
433.82	438.48
434.19	447.37
434.56	456.02
434.93	464.44
435.30	472.69
435.68	481.80
436.05	490.81
436.42	499.79
436.79	507.89
437.16	516.60
437.53	525.91
437.90	535.04
438.27	543.98
438.64	553.19
439.01	561.68
439.38	569.29
439.75	576.60
440.13	584.98
440.50	592.97
440.87	599.35
441.24	606.08
441.61	613.34
441.98	618.73
442.35	625.06
442.72	631.33
443.09	637.41
443.46	641.20
443.83	643.69
444.20	645.84
444.57	648.98
444.94	650.49
445.31	651.96
445.68	653.37
446.05	654.02
446.42	653.24
446.79	652.37
447.16	651.31
447.53	650.57
447.90	647.26
448.27	643.92
448.64	639.31
449.01	635.98
449.37	630.12
449.74	624.43
450.11	617.49
450.48	610.15
450.85	602.72
451.22	596.15
451.59	590.07
451.96	584.13
452.33	576.29
452.70	569.16
453.07	560.63
453.43	551.97
453.80	543.64
454.17	535.60
454.54	527.99
454.91	519.78
455.28	511.74
455.65	504.37
456.02	496.88
456.38	490.52
456.75	482.58
457.12	476.03
457.49	469.52
457.86	463.38
458.23	457.92
458.59	452.01
458.96	446.05
459.33	440.76
459.70	435.44
460.07	431.15
460.43	426.25
460.80	421.68
461.17	417.70
461.54	413.50
461.91	409.55
462.27	405.42
462.64	402.00
463.01	398.24
463.38	394.52
463.74	390.81
464.11	387.56
464.48	384.77
464.85	381.66
465.21	379.22
465.58	376.61
465.95	373.51
466.32	370.87
466.68	368.25
467.05	365.63
467.42	363.04
467.78	360.37
468.15	357.81
468.52	355.92
468.88	353.41
469.25	351.18
469.62	349.34
469.98	347.40
470.35	345.60
470.72	343.92
471.08	342.11
471.45	340.62
471.82	339.10
472.18	337.44
472.55	336.20
472.92	334.80
473.28	333.55
473.65	332.40
474.02	331.30
474.38	330.43
474.75	329.67
475.11	328.87
475.48	328.33
475.85	327.87
476.21	327.34
476.58	327.01
476.94	326.78
477.31	326.45
477.67	326.21
478.04	326.06
478.41	325.97
478.77	326.10
479.14	326.05
479.50	326.24
479.87	326.54
480.23	326.86
480.60	327.11
480.96	327.39
481.33	327.95
481.69	328.49
482.06	328.99
482.42	329.45
482.79	330.03
483.15	330.82
483.52	331.75
483.88	332.68
484.25	333.61
484.61	334.60
484.98	335.72
485.34	337.05
485.71	338.35
486.07	339.81
486.44	341.18
486.80	342.78
487.17	344.41
487.53	346.18
487.90	348.09
488.26	350.12
488.62	352.36
488.99	354.44
489.35	356.58
489.72	358.97
490.08	361.52
490.44	364.13
490.81	366.78
491.17	369.49
491.54	372.42
491.90	375.46
492.26	378.69
492.63	382.12
492.99	385.63
493.36	389.36
493.72	393.25
494.08	397.25
494.45	401.48
494.81	405.89
495.17	410.40
495.54	415.07
495.90	419.94
496.26	424.84
496.63	430.05
496.99	435.53
497.35	441.12
497.72	446.93
498.08	452.87
498.44	459.07
498.80	465.56
499.17	472.09
499.53	478.82
499.89	485.80
500.26	492.80
500.62	499.88
500.98	507.28
501.34	514.77
501.71	522.63
502.07	530.48
502.43	538.51
502.79	546.67
503.16	555.10
503.52	563.73
503.88	572.45
504.24	581.45
504.60	590.53
504.97	599.82
505.33	609.18
505.69	619.11
506.05	628.94
506.41	638.84
506.78	649.03
507.14	659.38
507.50	669.84
507.86	680.57
508.22	691.39
508.59	702.09
508.95	713.27
509.31	724.52
509.67	736.06
510.03	747.50
510.39	759.35
510.75	771.28
511.12	783.28
511.48	795.45
511.84	807.78
512.20	820.14
512.56	832.96
512.92	845.88
513.28	858.48
513.64	871.37
514.00	884.26
514.37	897.17
514.73	910.39
515.09	923.44
515.45	936.34
515.81	949.52
516.17	963.06
516.53	976.43
516.89	989.63
517.25	1002.92
517.61	1016.49
517.97	1029.90
518.33	1043.09
518.69	1056.75
519.05	1070.65
519.41	1084.50
519.77	1098.52
520.13	1111.78
520.49	1124.99
520.85	1138.55
521.21	1151.99
521.57	1165.76
521.93	1179.07
522.29	1192.77
522.65	1206.61
523.01	1220.40
523.37	1233.68
523.73	1247.05
524.09	1260.25
524.45	1273.78
524.81	1287.36
525.17	1300.92
525.53	1314.29
525.89	1327.72
526.25	1340.90
526.61	1353.85
526.97	1366.98
527.33	1380.06
527.68	1393.65
528.04	1407.28
528.40	1420.56
528.76	1434.05
529.12	1447.06
529.48	1460.47
529.84	1472.98
530.20	1485.80
530.56	1498.50
530.91	1511.89
531.27	1524.81
531.63	1537.70
531.99	1550.62
532.35	1562.96
532.71	1575.42
533.07	1588.38
533.42	1600.77
533.78	1612.99
534.14	1625.09
534.50	1636.48
534.86	1648.17
535.21	1659.10
535.57	1670.65
535.93	1681.99
536.29	1693.11
536.65	1704.66
537.00	1715.76
537.36	1727.32
537.72	1738.40
538.08	1750.04
538.44	1761.15
538.79	1772.44
539.15	1783.37
539.51	1794.23
539.87	1805.73
540.22	1816.71
540.58	1827.68
540.94	1838.61
541.29	1849.02
541.65	1858.99
542.01	1869.62
542.37	1879.80
542.72	1890.11
543.08	1900.03
543.44	1910.66
543.79	1920.10
544.15	1929.69
544.51	1939.75
544.87	1949.66
545.22	1959.06
545.58	1967.89
545.94	1976.91
546.29	1985.53
546.65	1994.04
547.01	2002.48
547.36	2010.16
547.72	2018.12
548.07	2025.97
548.43	2033.83
548.79	2041.76
549.14	2050.10
549.50	2058.58
549.86	2066.53
550.21	2074.06
550.57	2081.83
550.92	2088.73
551.28	2096.32
551.64	2103.62
551.99	2111.11
552.35	2118.31
552.70	2125.19
553.06	2131.97
553.41	2138.25
553.77	2144.80
554.13	2151.25
554.48	2158.16
554.84	2165.34
555.19	2171.89
555.55	2178.32
555.90	2184.76
556.26	2191.71
556.61	2197.65
556.97	2202.51
557.32	2208.25
557.68	2214.79
558.03	2220.80
558.39	2226.20
558.74	2232.22
559.10	2237.90
559.45	2243.58
559.81	2249.09
560.16	2254.67
560.52	2260.62
560.87	2267.05
561.23	2273.01
561.58	2279.76
561.94	2285.07
562.29	2289.79
562.64	2295.73
563.00	2301.38
563.35	2306.89
563.71	2312.58
564.06	2318.32
564.42	2324.42
564.77	2329.54
565.12	2334.83
565.48	2339.84
565.83	2345.24
566.19	2350.63
566.54	2355.98
566.89	2360.49
567.25	2365.17
567.60	2370.88
567.96	2376.05
568.31	2380.55
568.66	2384.74
569.02	2388.59
569.37	2392.19
569.72	2396.64
570.08	2400.34
570.43	2403.44
570.78	2406.60
571.14	2409.18
571.49	2412.30
571.84	2415.71
572.20	2418.64
572.55	2421.54
572.90	2423.90
573.26	2426.73
573.61	2429.39
573.96	2431.52
574.31	2433.65
574.67	2435.48
575.02	2436.20
575.37	2437.56
575.72	2438.24
576.08	2439.72
576.43	2439.92
576.78	2440.62
577.13	2442.12
577.49	2443.10
577.84	2444.07
578.19	2445.29
578.54	2445.78
578.90	2446.40
579.25	2446.19
579.60	2446.06
579.95	2445.33
580.30	2445.24
580.66	2444.49
581.01	2442.73
581.36	2440.28
581.71	2438.85
582.06	2437.68
582.42	2436.89
582.77	2434.54
583.12	2432.93
583.47	2431.52
583.82	2430.73
584.17	2429.33
584.53	2427.17
584.88	2425.07
585.23	2423.22
585.58	2420.86
585.93	2418.77
586.28	2416.59
586.63	2414.16
586.98	2412.02
587.34	2409.85
587.69	2407.41
588.04	2405.28
588.39	2403.77
588.74	2401.22
589.09	2398.45
589.44	2395.10
589.79	2392.46
590.14	2390.54
590.49	2387.62
590.84	2383.72
591.19	2380.56
591.54	2377.23
591.89	2373.05
592.25	2369.70
592.60	2365.36
592.95	2361.26
593.30	2357.02
593.65	2352.58
594.00	2348.00
594.35	2344.87
594.70	2340.21
595.05	2335.48
595.40	2329.97
595.75	2324.04
596.10	2320.44
596.45	2315.51
596.80	2311.09
597.15	2305.80
597.50	2299.83
597.85	2294.86
598.19	2289.61
598.54	2283.75
598.89	2278.55
599.24	2274.05
599.59	2267.81
599.94	2261.96
600.29	2256.06
600.64	2250.10
600.99	2243.24
601.34	2237.78
601.69	2230.78
602.04	2224.32
602.39	2217.75
602.74	2211.78
603.08	2206.28
603.43	2199.70
603.78	2192.71
604.13	2185.53
604.48	2178.30
604.83	2172.04
605.18	2165.82
605.53	2158.89
605.87	2151.84
606.22	2144.92
606.57	2136.86
606.92	2128.98
607.27	2122.10
607.62	2115.21
607.96	2108.12
608.31	2101.75
608.66	2093.91
609.01	2086.20
609.36	2079.07
609.70	2071.22
610.05	2063.25
610.40	2054.82
610.75	2046.41
611.10	2038.68
611.44	2029.86
611.79	2020.99
612.14	2011.03
612.49	2000.21
612.83	1990.82
613.18	1981.54
613.53	1972.22
613.88	1962.57
614.22	1953.87
614.57	1943.88
614.92	1933.32
615.27	1923.00
615.61	1912.64
615.96	1902.88
616.31	1893.19
616.65	1883.70
617.00	1874.00
617.35	1864.24
617.70	1854.47
618.04	1844.38
618.39	1834.18
618.74	1824.37
619.08	1814.88
619.43	1806.15
619.78	1797.82
620.12	1789.12
620.47	1779.59
620.82	1769.15
621.16	1759.35
621.51	1749.43
621.85	1739.51
622.20	1729.06
622.55	1718.55
622.89	1708.59
623.24	1699.03
623.59	1689.26
623.93	1679.08
624.28	1669.35
624.62	1659.27
624.97	1648.95
625.32	1639.13
625.66	1630.24
626.01	1621.44
626.35	1611.85
626.70	1601.69
627.04	1591.67
627.39	1581.49
627.73	1572.11
628.08	1563.19
628.43	1553.59
628.77	1544.30
629.12	1535.29
629.46	1527.51
629.81	1519.08
630.15	1509.58
630.50	1499.64
630.84	1489.08
631.19	1479.22
631.53	1469.70
631.88	1459.42
632.22	1449.40
632.57	1440.07
632.91	1429.80
633.26	1419.90
633.60	1410.39
633.95	1401.13
634.29	1391.59
634.64	1382.30
634.98	1372.31
635.32	1362.92
635.67	1354.50
636.01	1345.17
636.36	1335.40
636.70	1325.80
637.05	1316.44
637.39	1307.45
637.73	1298.76
638.08	1291.23
638.42	1283.02
638.77	1274.25
639.11	1266.02
639.45	1258.19
639.80	1249.53
640.14	1240.82
640.49	1231.92
640.83	1222.88
641.17	1214.56
641.52	1206.38
641.86	1197.69
642.20	1189.73
642.55	1181.03
642.89	1172.02
643.23	1163.33
643.58	1155.22
643.92	1146.19
644.26	1137.47
644.61	1129.02
644.95	1120.16
645.29	1110.76
645.64	1101.48
645.98	1092.94
646.32	1084.96
646.66	1076.38
647.01	1068.07
647.35	1059.89
647.69	1051.52
648.04	1043.23
648.38	1034.34
648.72	1025.49
649.06	1016.96
649.41	1008.73
649.75	1000.78
650.09	992.88
650.43	984.80
650.78	976.44
651.12	968.59
651.46	961.15
651.80	953.79
652.14	946.53
652.49	938.96
652.83	931.57
653.17	923.85
653.51	916.11
653.85	908.73
654.20	901.31
654.54	893.78
654.88	886.47
655.22	879.28
655.56	872.20
655.90	865.37
656.25	858.65
656.59	851.69
656.93	844.55
657.27	837.33
657.61	830.22
657.95	824.07
658.29	818.11
658.64	811.92
658.98	805.42
659.32	798.77
659.66	792.56
660.00	786.19
660.34	780.05
660.68	773.89
661.02	767.54
661.36	761.62
661.70	755.75
662.05	750.07
662.39	744.52
662.73	739.18
663.07	733.75
663.41	728.17
663.75	722.36
664.09	716.66
664.43	711.18
664.77	705.90
665.11	700.04
665.45	694.00
665.79	688.12
666.13	682.38
666.47	676.75
666.81	671.21
667.15	665.78
667.49	660.57
667.83	655.32
668.17	650.05
668.51	644.86
668.85	639.88
669.19	634.88
669.53	629.78
669.87	624.56
670.21	619.73
670.55	614.95
670.89	610.49
671.23	606.15
671.57	601.78
671.91	597.39
672.25	593.24
672.58	589.14
672.92	585.01
673.26	581.01
673.60	577.13
673.94	573.31
674.28	569.65
674.62	565.86
674.96	562.07
675.30	558.53
675.64	554.80
675.97	551.19
676.31	547.52
676.65	543.89
676.99	540.43
677.33	536.52
677.67	532.77
678.01	528.88
678.34	525.20
678.68	521.60
679.02	518.00
679.36	514.20
679.70	510.51
680.04	506.85
680.37	503.42
680.71	500.07
681.05	496.82
681.39	493.48
681.73	490.26
682.06	487.12
682.40	483.96
682.74	480.72
683.08	477.49
683.42	474.25
683.75	471.26
684.09	468.15
684.43	465.38
684.77	462.44
685.10	459.55
685.44	456.58
685.78	453.58
686.12	450.72
686.45	447.98
686.79	445.25
687.13	442.75
687.46	440.04
687.80	437.33
688.14	434.45
688.48	431.83
688.81	429.10
689.15	426.54
689.49	423.90
689.82	421.32
690.16	418.65
690.50	416.23
690.83	413.66
691.17	411.13
691.51	408.63
691.84	406.31
692.18	404.06
692.52	401.79
692.85	399.65
693.19	397.48
693.52	395.29
693.86	393.08
694.20	390.85
694.53	388.66
694.87	386.43
695.21	384.26
695.54	382.08
695.88	379.89
696.21	377.63
696.55	375.45
696.88	373.39
697.22	371.43
697.56	369.44
697.89	367.49
698.23	365.70
698.56	363.82
698.90	362.05
699.23	360.13
699.57	358.29
699.90	356.40
700.24	354.57
700.58	352.75
700.91	351.03
701.25	349.43
701.58	347.79
701.92	346.17
702.25	344.53
702.59	342.82
702.92	341.28
703.26	339.74
703.59	338.27
703.93	336.96
704.26	335.52
704.60	334.00
704.93	332.53
705.26	330.95
705.60	329.46
705.93	327.91
706.27	326.55
706.60	325.25
706.94	324.01
707.27	322.61
707.61	321.23
707.94	319.90
708.27	318.38
708.61	316.95
708.94	315.53
709.28	314.22
709.61	312.99
709.94	311.73
710.28	310.48
710.61	309.26
710.95	307.86
711.28	306.76
711.61	305.60
711.95	304.44
712.28	303.28
712.61	302.08
712.95	301.02
713.28	299.96
713.61	298.79
713.95	297.62
714.28	296.59
714.61	295.55
714.95	294.47
715.28	293.43
715.61	292.38
715.95	291.42
716.28	290.46
716.61	289.48
716.95	288.50
717.28	287.58
717.61	286.59
717.94	285.67
718.28	284.62
718.61	283.70
718.94	282.80
719.27	281.95
719.61	281.11
719.94	280.22
720.27	279.22
720.60	278.34
720.94	277.50
721.27	276.74
721.60	276.03
721.93	275.34
722.27	274.70
722.60	274.04
722.93	273.34
723.26	272.68
723.59	271.98
723.93	271.33
724.26	270.63
724.59	269.98
724.92	269.36
725.25	268.79
725.59	268.21
725.92	267.64
726.25	267.06
726.58	266.47
726.91	265.85
727.24	265.31
727.57	264.76
727.91	264.16
728.24	263.59
728.57	262.97
728.90	262.38
729.23	261.77
729.56	261.33
729.89	260.78
730.22	260.19
730.55	259.66
730.89	259.09
731.22	258.58
731.55	258.10
731.88	257.56
732.21	257.02
732.54	256.45
732.87	255.95
733.20	255.48
733.53	254.97
733.86	254.52
734.19	254.06
734.52	253.67
734.85	253.37
735.18	252.88
735.51	252.52
735.84	252.10
736.17	251.68
736.50	251.10
736.83	250.93
737.16	250.54
737.49	250.14
737.82	249.75
738.15	249.34
738.48	248.95
738.81	248.53
739.14	248.12
739.47	247.72
739.80	247.29
740.13	246.93
740.46	246.56
740.79	246.16
741.12	245.77
741.45	245.34
741.78	244.88
742.11	244.60
742.44	244.23
742.77	243.93
743.10	243.57
743.43	243.29
743.75	242.71
744.08	242.63
744.41	242.24
744.74	241.91
745.07	241.53
745.40	241.22
745.73	240.96
746.06	240.64
746.39	240.35
746.71	240.03
747.04	239.66
747.37	239.37
747.70	239.12
748.03	238.81
748.36	238.53
748.68	238.24
749.01	237.88
749.34	237.57
749.67	237.23
750.00	236.97
750.33	236.79
750.65	236.53
750.98	235.97
751.31	235.74
751.64	235.47
751.97	235.33
752.29	235.06
752.62	234.72
752.95	234.44
753.28	234.16
753.60	233.90
753.93	233.71
754.26	233.47
754.59	233.13
754.91	232.89
755.24	232.68
755.57	232.41
755.90	232.19
756.22	231.96
756.55	231.74
756.88	231.44
757.20	231.12
757.53	230.87
757.86	230.65
758.19	230.47
758.51	230.23
758.84	229.96
759.17	229.75
759.49	229.59
759.82	229.53
760.15	229.40
760.47	229.20
760.80	228.96
761.13	228.83
761.45	228.63
761.78	228.47
762.11	228.27
762.43	228.12
762.76	227.95
763.08	227.80
763.41	227.65
763.74	227.52
764.06	227.32
764.39	227.17
764.71	227.05
765.04	226.89
765.37	226.78
765.69	226.62
766.02	226.48
766.34	226.35
766.67	226.09
767.00	225.99
767.32	225.99
767.65	225.98
767.97	225.78
768.30	225.72
768.62	225.57
768.95	225.38
769.27	225.25
769.60	225.15
769.92	224.98
770.25	224.80
770.57	224.68
770.90	224.58
771.22	224.45
771.55	224.32
771.87	224.16
772.20	224.04
772.52	224.13
772.85	224.25
773.17	224.10
773.50	223.99
773.82	223.84
774.15	223.67
774.47	223.41
774.80	223.34
775.12	223.18
775.45	223.10
775.77	223.03
776.09	222.92
776.42	222.80
776.74	222.77
777.07	222.69
777.39	222.60
777.72	222.49
778.04	222.41
778.36	222.35
778.69	222.34
779.01	222.24
779.33	221.94
779.66	221.65
779.98	221.53
780.31	221.48
780.63	221.49
780.95	221.43
781.28	221.36
781.60	221.25
781.92	221.18
782.25	221.15
782.57	221.08
782.89	221.02
783.22	220.97
783.54	220.85
783.86	220.80
784.19	220.72
784.51	220.71
784.83	220.62
785.16	220.52
785.48	220.43
785.80	220.35
786.12	220.31
786.45	220.23
786.77	220.24
787.09	220.14
787.42	220.01
787.74	219.92
788.06	219.92
788.38	219.89
788.71	219.80
789.03	219.71
789.35	219.72
789.67	219.65
789.99	219.61
790.32	219.56
790.64	219.54
790.96	219.66
791.28	219.54
791.61	219.50
791.93	219.44
792.25	219.39
792.57	219.46
792.89	219.36
793.21	219.34
793.54	219.27
793.86	219.20
794.18	219.16
794.50	219.09
794.82	219.03
795.14	218.96
795.47	218.97
795.79	218.90
796.11	218.77
796.43	218.71
796.75	218.66
797.07	218.59
797.39	218.52
797.71	218.32
798.04	218.31
798.36	218.26
798.68	218.24
799.00	218.20
799.32	218.10
799.64	218.13
799.96	218.07
800.28	218.06
800.60	218.06
800.92	218.03
801.24	217.98
801.56	217.95
801.89	217.89
802.21	217.87
802.53	217.83
802.85	217.86
803.17	217.96
803.49	217.88
803.81	217.86
804.13	217.80
804.45	217.78
804.77	217.73
805.09	217.70
805.41	217.67
805.73	217.59
806.05	217.50
806.37	217.41
806.69	217.36
807.01	217.31
807.33	217.27
807.65	217.19
807.97	217.26
808.28	217.22
808.60	217.21
808.92	217.15
809.24	217.26
809.56	217.18
809.88	217.04
810.20	217.04
810.52	217.04
810.84	217.02
811.16	216.96
811.48	216.94
811.80	217.00
812.12	216.94
812.43	216.95
812.75	216.94
813.07	216.93
813.39	216.92
813.71	216.87
814.03	216.84
814.35	216.80
814.67	216.69
814.98	216.66
815.30	216.65
815.62	216.60
815.94	216.44
816.26	216.41
816.58	216.37
816.89	216.35
817.21	216.25
817.53	216.24
817.85	216.21
818.17	216.18
818.48	216.09
818.80	216.15
819.12	216.12
819.44	216.06
819.76	216.02
820.07	216.01
820.39	215.97
820.71	215.95
821.03	215.94
821.34	215.92
821.66	215.93
821.98	215.92
822.30	215.92
822.61	216.04
822.93	216.02
823.25	215.99
823.57	215.96
823.88	216.01
824.20	215.97
824.52	215.98
824.83	215.97
825.15	215.91
825.47	215.85
825.79	215.86
826.10	215.83
826.42	215.81
826.74	215.81
827.05	215.78
827.37	215.79
827.69	215.78
828.00	215.74
828.32	215.73
828.64	215.67
828.95	215.72
829.27	215.62
829.58	215.60
829.90	215.64
830.22	215.66
830.53	215.61
830.85	215.59
831.17	215.55
831.48	215.55
831.80	215.56
832.11	215.55
832.43	215.50
832.75	215.51
833.06	215.64
833.38	215.58
833.69	215.58
834.01	215.60
834.32	215.58
834.64	215.58
834.96	215.56
835.27	215.57
835.59	215.53
835.90	215.52
836.22	215.51
836.53	215.46
836.85	215.43
837.16	215.60
837.48	215.60
837.79	215.68
838.11	215.66
838.42	215.67
838.74	215.69
839.05	215.68
839.37	215.67
839.68	215.56
840.00	215.52
840.31	215.54
840.63	215.48
840.94	215.46
841.26	215.42
841.57	215.41
841.88	215.44
842.20	215.38
842.51	215.34
842.83	215.36
843.14	215.50
843.46	215.48
843.77	215.37
844.08	215.35
844.40	215.26
844.71	215.24
845.03	215.19
845.34	215.16
845.65	215.15
845.97	215.15
846.28	215.10
846.60	215.14
846.91	215.11
847.22	215.10
847.54	215.16
847.85	215.19
848.16	215.18
848.48	215.08
848.79	215.21
849.10	215.22
849.42	215.21
849.73	215.04
850.04	215.03
850.36	214.95
850.67	214.97
850.98	214.98
851.30	214.99
851.61	215.03
851.92	215.02
852.23	215.06
852.55	215.07
852.86	215.09
853.17	215.08
853.49	215.12
853.80	215.16
854.11	215.13
854.42	215.16
854.74	215.11
855.05	215.13
855.36	215.02
855.67	215.02
855.99	215.03
856.30	215.30
856.61	215.26
856.92	215.27
857.23	215.24
857.55	215.19
857.86	215.19
858.17	215.20
858.48	215.15
858.79	215.08
859.11	215.07
859.42	215.04
859.73	215.02
860.04	214.98
860.35	214.93
860.66	214.88
860.98	214.84
861.29	214.87
861.60	214.87
861.91	214.90
862.22	214.87
862.53	214.78
862.84	214.52
863.16	214.60
863.47	214.57
863.78	214.56
864.09	214.59
864.40	214.57
864.71	214.54
865.02	214.60
865.33	214.62
865.64	214.59
865.95	214.62
866.27	214.78
866.58	214.76
866.89	214.76
867.20	214.75
867.51	214.73
867.82	214.72
868.13	214.78
868.44	214.71
868.75	214.76
869.06	214.80
869.37	214.81
869.68	214.75
869.99	214.79
870.30	214.81
870.61	214.84
870.92	214.85
871.23	214.85
871.54	214.85
871.85	214.87
872.16	214.90
872.47	214.85
872.78	214.67
873.09	214.69
873.40	214.71
873.71	214.74
874.02	214.75
874.33	214.73
874.64	214.67
874.95	214.73
875.26	214.67
875.56	214.63
875.87	214.65
876.18	214.64
876.49	214.85
876.80	214.80
877.11	214.77
877.42	214.75
877.73	214.75
878.04	214.72
878.35	214.75
878.66	214.72
878.96	214.75
879.27	214.79
879.58	214.80
879.89	214.75
880.20	214.78
880.51	214.76
880.82	214.75
881.12	214.77
881.43	214.71
881.74	214.68
882.05	214.71
882.36	214.69
882.67	214.71
882.97	214.47
883.28	214.46
883.59	214.44
883.90	214.47
884.21	214.49
884.51	214.46
884.82	214.41
885.13	214.42
885.44	214.40
885.74	214.39
886.05	214.36
886.36	214.38
886.67	214.35
886.98	214.47
887.28	214.52
887.59	214.55
887.90	214.57
888.20	214.57
888.51	214.59
888.82	214.57
889.13	214.59
889.43	214.74
889.74	214.79
890.05	214.77
890.35	214.76
890.66	214.72
890.97	214.71
891.28	214.72
891.58	214.71
891.89	214.72
892.20	214.69
892.50	214.69
892.81	214.68
893.12	214.63
893.42	214.52
893.73	214.50
894.04	214.47
894.34	214.49
894.65	214.52
894.95	214.50
895.26	214.52
895.57	214.60
895.87	214.40
896.18	214.38
896.48	214.42
896.79	214.42
897.10	214.44
897.40	214.46
897.71	214.45
898.01	214.43
898.32	214.46
898.63	214.44
898.93	214.45
899.24	214.46
899.54	214.48
899.85	214.50
900.15	214.50
900.46	214.47
900.76	214.50
901.07	214.48
901.38	214.50
901.68	214.50
901.99	214.40
902.29	214.43
902.60	214.46
902.90	214.43
903.21	214.42
903.51	214.43
903.82	214.49
904.12	214.50
904.43	214.56
904.73	214.54
905.03	214.59
905.34	214.79
905.64	214.76
905.95	214.77
906.25	214.75
906.56	214.72
906.86	214.75
907.17	214.71
907.47	214.71
907.77	214.67
908.08	214.63
908.38	214.65
908.69	214.70
908.99	214.73
909.30	214.75
909.60	214.76
909.90	214.77
910.21	214.70
910.51	214.68
910.81	214.66
911.12	214.69
911.42	214.67
911.73	214.48
912.03	214.50
912.33	214.53
912.64	214.54
912.94	214.53
913.24	214.52
913.55	214.50
913.85	214.53
914.15	214.59
914.46	214.63
914.76	214.61
915.06	214.59
915.37	214.54
915.67	214.50
915.97	214.48
916.27	214.41
916.58	214.40
916.88	214.37
917.18	214.35
917.49	214.49
917.79	214.48
918.09	214.50
918.39	214.53
918.70	214.55
919.00	214.52
919.30	214.66
919.60	214.60
919.91	214.58
920.21	214.55
920.51	214.48
920.81	214.44
921.12	214.47
921.42	214.43
921.72	214.45
922.02	214.46
922.32	214.51
922.63	214.51
922.93	214.65
923.23	214.67
923.53	214.65
923.83	214.48
924.13	214.48
924.44	214.47
924.74	214.53
925.04	214.57
925.34	214.58
925.64	214.47
925.94	214.48
926.24	214.61
926.55	214.58
926.85	214.59
927.15	214.61
927.45	214.61
927.75	214.61
928.05	214.62
928.35	214.60
928.65	214.62
928.95	214.68
929.26	214.56
929.56	214.60
929.86	214.63
930.16	214.65
930.46	214.66
930.76	214.65
931.06	214.57
931.36	214.50
931.66	214.56
931.96	214.55
932.26	214.57
932.56	214.47
932.86	214.50
933.16	214.50
933.46	214.48
933.76	214.47
934.06	214.51
934.36	214.57
934.66	214.56
934.96	214.53
935.26	214.52
935.56	214.60
935.86	214.56
936.16	214.56
936.46	214.52
936.76	214.53
937.06	214.52
937.36	214.50
937.66	214.50
937.96	214.44
938.26	214.43
938.56	214.38
938.86	214.41
939.16	214.47
939.46	214.50
939.76	214.51
940.06	214.50
940.35	214.46
940.65	214.35
940.95	214.36
941.25	214.31
941.55	214.29
941.85	214.24
942.15	214.24
942.45	214.27
942.75	214.30
943.04	214.30
943.34	214.32
943.64	214.30
943.94	214.26
944.24	214.26
944.54	214.26
944.84	214.29
945.13	214.25
945.43	214.20
945.73	214.18
946.03	214.18
946.33	214.15
946.62	214.13
946.92	214.14
947.22	214.17
947.52	214.21
947.82	214.23
948.11	214.20
948.41	214.18
948.71	214.11
949.01	214.11
949.31	214.09
949.60	214.08
949.90	214.12
950.20	214.14
950.50	214.13
950.79	214.10
951.09	214.11
951.39	214.10
951.69	214.07
951.98	214.10
952.28	214.06
952.58	214.05
952.87	214.04
953.17	214.09
953.47	214.03
953.76	214.00
954.06	213.94
954.36	213.93
954.66	213.91
954.95	213.98
955.25	213.97
955.55	213.99
955.84	213.95
956.14	213.95
956.44	213.96
956.73	213.95
957.03	214.00
957.32	214.03
957.62	214.03
957.92	214.10
958.21	214.11
958.51	214.34
958.81	214.40
959.10	214.42
959.40	214.44
959.69	214.47
959.99	214.53
960.29	214.53
960.58	214.53
960.88	214.64
961.17	214.61
961.47	214.62
961.76	214.58
962.06	214.61
962.36	214.59
962.65	214.59
962.95	214.60
963.24	214.59
963.54	214.57
963.83	214.58
964.13	214.57
964.42	214.50
964.72	214.33
965.01	214.30
965.31	214.31
965.60	214.24
965.90	214.37
966.19	214.29
966.49	214.32
966.78	214.32
967.08	214.30
967.37	214.31
967.67	214.29
967.96	214.32
968.26	214.32
968.55	214.35
968.85	214.33
969.14	214.32
969.43	214.30
969.73	214.26
970.02	214.26
970.32	214.23
970.61	214.25
970.91	214.22
971.20	214.20
971.49	214.17
971.79	214.21
972.08	214.04
972.38	214.08
972.67	214.07
972.96	214.10
973.26	214.05
973.55	214.10
973.85	214.09
974.14	214.08
974.43	214.10
974.73	214.06
975.02	214.06
975.31	214.05
975.61	214.09
975.90	214.10
976.19	214.04
976.49	214.07
976.78	214.10
977.07	214.07
977.37	214.08
977.66	214.09
977.95	214.07
978.24	214.12
978.54	214.18
978.83	214.18
979.12	214.19
979.42	214.16
979.71	214.13
980.00	214.14
980.29	214.15
980.59	214.11
980.88	214.19
981.17	214.17
981.46	214.21
981.76	214.16
982.05	214.21
982.34	214.25
982.63	214.22
982.93	214.21
983.22	214.30
983.51	214.30
983.80	214.34
984.09	214.37
984.39	214.35
984.68	214.29
984.97	214.30
985.26	214.27
985.55	214.28
985.85	214.25
986.14	214.29
986.43	214.32
986.72	214.30
987.01	214.21
987.30	214.22
987.59	214.18
987.89	214.19
988.18	214.13
988.47	214.12
988.76	214.13
989.05	214.10
989.34	214.04
989.63	214.09
989.92	214.07
990.22	214.03
990.51	214.03
990.80	214.04
991.09	214.05
991.38	214.08
991.67	214.07
991.96	214.04
992.25	214.02
992.54	213.95
992.83	213.99
993.12	214.00
993.41	214.04
993.70	214.13
993.99	214.17
994.28	214.19
994.58	214.22
994.87	214.18
995.16	214.20
995.45	214.20
995.74	214.15
996.03	214.15
996.32	214.19
996.61	214.22
996.90	214.19
997.19	214.20
997.48	214.20
997.77	214.15
998.06	214.17
998.34	214.13
998.63	214.15
998.92	214.12
999.21	214.18
999.50	214.15
999.79	214.09
1000.08	214.11
1000.37	214.13
1000.66	214.09
1000.95	214.18
1001.24	214.17
1001.53	214.18
1001.82	214.17
1002.11	214.14
1002.40	214.16
1002.68	214.21
1002.97	214.34
1003.26	214.30
1003.55	214.26
1003.84	214.29
1004.13	214.39
1004.42	214.37
1004.71	214.38
1004.99	214.36
1005.28	214.36
1005.57	214.35
1005.86	214.33
1006.15	214.26
1006.44	214.24
1006.72	214.30
1007.01	214.27
1007.30	214.25
1007.59	214.25
1007.88	214.22
1008.17	214.23
1008.45	214.18
1008.74	214.10
1009.03	214.02
1009.32	214.02
1009.60	214.06
1009.89	214.04
1010.18	213.93
1010.47	213.94
1010.76	213.92
1011.04	213.95
1011.33	213.99
1011.62	214.02
1011.91	214.04
1012.19	214.06
1012.48	214.04
1012.77	213.99
1013.05	214.09
1013.34	214.14
1013.63	214.13
1013.92	214.17
1014.20	214.14
1014.49	214.16
1014.78	214.18
1015.06	214.10
1015.35	214.09
1015.64	214.10
1015.92	214.14
1016.21	214.19
1016.50	214.17
1016.78	214.23
1017.07	214.22
1017.36	214.16
1017.64	214.12
1017.93	214.12
1018.22	214.11
1018.50	214.13
1018.79	214.14
1019.08	214.00
1019.36	214.02
1019.65	214.00
1019.93	214.05
1020.22	214.08
1020.51	214.17
1020.79	214.14
1021.08	213.95
1021.36	213.72
1021.65	214.14
1021.94	213.70
1022.22	214.44
1022.51	213.86
1022.79	215.09
1023.08	214.27
1023.36	216.16
1023.65	213.57
>>>>>End Processed Spectral Data<<<<<
