SpectraSuite Data File
++++++++++++++++++++++++++++++++++++
Date: Tue Jan 29 16:27:47 EST 2013
User: group
Dark Spectrum Present: No
Reference Spectrum Present: No
Number of Sampled Component Spectra: 1
Spectrometers: USB2E7196
Integration Time (usec): 65000 (USB2E7196)
Spectra Averaged: 100 (USB2E7196)
Boxcar Smoothing: 10 (USB2E7196)
Correct for Electrical Dark: No (USB2E7196)
Strobe/Lamp Enabled: No (USB2E7196)
Correct for Detector Non-linearity: No (USB2E7196)
Correct for Stray Light: No (USB2E7196)
Number of Pixels in Processed Spectrum: 2048
>>>>>Begin Processed Spectral Data<<<<<
339.09	0.00
339.48	202.70
339.86	204.07
340.24	204.85
340.63	206.35
341.01	210.55
341.39	208.95
341.78	210.49
342.16	211.89
342.54	212.09
342.93	201.34
343.31	211.52
343.69	212.02
344.07	212.44
344.46	212.92
344.84	213.34
345.22	213.51
345.60	213.81
345.99	214.01
346.37	214.12
346.75	214.23
347.13	214.29
347.52	214.39
347.90	214.54
348.28	214.59
348.66	214.63
349.05	214.59
349.43	214.69
349.81	214.79
350.19	214.85
350.57	214.88
350.96	214.94
351.34	215.05
351.72	215.11
352.10	215.20
352.48	215.24
352.87	215.26
353.25	215.34
353.63	215.37
354.01	215.42
354.39	215.54
354.77	215.62
355.15	215.77
355.54	215.80
355.92	215.78
356.30	215.85
356.68	216.06
357.06	216.17
357.44	216.17
357.82	216.19
358.20	216.30
358.58	216.37
358.97	216.42
359.35	216.50
359.73	216.64
360.11	216.71
360.49	216.76
360.87	216.82
361.25	216.89
361.63	217.01
362.01	217.11
362.39	217.11
362.77	217.16
363.15	217.18
363.53	217.19
363.91	217.23
364.29	217.23
364.67	217.03
365.05	217.04
365.43	217.07
365.81	217.11
366.19	217.19
366.57	217.28
366.95	217.28
367.33	217.24
367.71	217.23
368.09	217.29
368.47	217.28
368.85	217.25
369.23	217.29
369.61	217.19
369.99	217.19
370.37	217.19
370.75	217.28
371.13	217.23
371.51	217.22
371.89	217.21
372.27	217.24
372.65	217.22
373.03	217.20
373.41	217.18
373.78	217.13
374.16	216.98
374.54	216.92
374.92	216.86
375.30	216.84
375.68	216.76
376.06	216.71
376.44	216.66
376.82	216.68
377.19	216.63
377.57	216.62
377.95	216.50
378.33	216.42
378.71	216.24
379.09	216.21
379.47	216.19
379.84	216.13
380.22	216.03
380.60	215.97
380.98	215.92
381.36	215.86
381.73	215.81
382.11	215.84
382.49	215.76
382.87	215.72
383.25	215.67
383.62	215.89
384.00	215.79
384.38	215.78
384.76	215.76
385.13	215.81
385.51	215.74
385.89	215.73
386.27	215.74
386.64	215.76
387.02	215.69
387.40	215.63
387.78	215.62
388.15	215.64
388.53	215.60
388.91	215.60
389.29	215.58
389.66	215.58
390.04	215.53
390.42	215.56
390.79	215.54
391.17	215.51
391.55	215.27
391.92	215.28
392.30	215.30
392.68	215.23
393.05	215.18
393.43	215.19
393.81	215.18
394.18	215.15
394.56	215.16
394.94	215.23
395.31	215.22
395.69	215.29
396.06	215.32
396.44	215.38
396.82	215.36
397.19	215.49
397.57	215.48
397.95	215.53
398.32	215.51
398.70	215.61
399.07	215.69
399.45	215.73
399.82	215.75
400.20	215.75
400.58	215.83
400.95	215.85
401.33	215.97
401.70	216.19
402.08	216.30
402.45	216.37
402.83	216.52
403.20	216.64
403.58	216.71
403.95	216.85
404.33	216.99
404.71	217.14
405.08	217.41
405.46	217.58
405.83	217.79
406.21	217.99
406.58	218.21
406.96	218.45
407.33	218.71
407.70	219.04
408.08	219.53
408.45	219.86
408.83	220.24
409.20	220.58
409.58	220.84
409.95	221.30
410.33	221.80
410.70	222.21
411.08	222.77
411.45	223.36
411.82	223.94
412.20	224.67
412.57	225.52
412.95	226.08
413.32	226.90
413.69	227.71
414.07	228.64
414.44	229.63
414.82	230.66
415.19	231.83
415.56	233.00
415.94	234.20
416.31	235.62
416.68	237.00
417.06	238.58
417.43	240.16
417.81	241.89
418.18	243.66
418.55	245.62
418.93	247.64
419.30	249.74
419.67	251.93
420.04	254.16
420.42	256.51
420.79	259.35
421.16	262.16
421.54	265.07
421.91	268.04
422.28	271.14
422.66	274.38
423.03	277.64
423.40	280.97
423.77	284.53
424.15	288.16
424.52	291.99
424.89	296.15
425.26	300.17
425.64	304.06
426.01	308.31
426.38	312.76
426.75	317.28
427.13	322.05
427.50	327.01
427.87	332.22
428.24	337.41
428.61	342.38
428.99	347.85
429.36	353.85
429.73	359.70
430.10	365.53
430.47	371.63
430.85	377.97
431.22	384.70
431.59	391.79
431.96	398.55
432.33	406.01
432.70	413.24
433.08	421.78
433.45	429.80
433.82	437.81
434.19	446.67
434.56	455.38
434.93	463.69
435.30	471.97
435.68	481.00
436.05	490.02
436.42	498.89
436.79	507.04
437.16	515.77
437.53	525.02
437.90	534.15
438.27	543.03
438.64	552.16
439.01	560.67
439.38	568.31
439.75	575.69
440.13	584.16
440.50	592.09
440.87	598.44
441.24	605.14
441.61	612.50
441.98	617.90
442.35	624.19
442.72	630.47
443.09	636.50
443.46	640.36
443.83	642.84
444.20	645.08
444.57	648.18
444.94	649.62
445.31	651.10
445.68	652.45
446.05	653.07
446.42	652.33
446.79	651.38
447.16	650.23
447.53	649.45
447.90	646.10
448.27	642.81
448.64	638.22
449.01	634.82
449.37	628.87
449.74	623.17
450.11	616.30
450.48	608.90
450.85	601.44
451.22	594.92
451.59	588.74
451.96	582.85
452.33	575.00
452.70	567.91
453.07	559.41
453.43	550.88
453.80	542.59
454.17	534.62
454.54	527.05
454.91	518.89
455.28	510.88
455.65	503.44
456.02	495.98
456.38	489.65
456.75	481.84
457.12	475.30
457.49	468.83
457.86	462.61
458.23	457.29
458.59	451.48
458.96	445.48
459.33	440.22
459.70	434.90
460.07	430.68
460.43	425.80
460.80	421.23
461.17	417.24
461.54	413.10
461.91	409.05
462.27	404.99
462.64	401.57
463.01	397.82
463.38	394.13
463.74	390.46
464.11	387.22
464.48	384.32
464.85	381.24
465.21	378.81
465.58	376.25
465.95	373.08
466.32	370.43
466.68	367.87
467.05	365.30
467.42	362.77
467.78	360.08
468.15	357.54
468.52	355.65
468.88	353.15
469.25	350.94
469.62	349.20
469.98	347.21
470.35	345.41
470.72	343.70
471.08	341.97
471.45	340.50
471.82	338.96
472.18	337.37
472.55	336.16
472.92	334.76
473.28	333.54
473.65	332.41
474.02	331.30
474.38	330.41
474.75	329.64
475.11	328.77
475.48	328.22
475.85	327.79
476.21	327.29
476.58	326.98
476.94	326.75
477.31	326.44
477.67	326.22
478.04	326.07
478.41	326.06
478.77	326.21
479.14	326.16
479.50	326.32
479.87	326.58
480.23	326.91
480.60	327.17
480.96	327.41
481.33	327.97
481.69	328.48
482.06	328.99
482.42	329.47
482.79	330.09
483.15	330.88
483.52	331.82
483.88	332.69
484.25	333.61
484.61	334.59
484.98	335.64
485.34	336.92
485.71	338.31
486.07	339.75
486.44	341.09
486.80	342.70
487.17	344.36
487.53	346.22
487.90	348.13
488.26	350.14
488.62	352.31
488.99	354.36
489.35	356.58
489.72	358.99
490.08	361.55
490.44	364.12
490.81	366.83
491.17	369.52
491.54	372.54
491.90	375.59
492.26	378.87
492.63	382.29
492.99	385.80
493.36	389.49
493.72	393.38
494.08	397.40
494.45	401.65
494.81	406.05
495.17	410.50
495.54	415.22
495.90	420.08
496.26	425.03
496.63	430.29
496.99	435.65
497.35	441.23
497.72	447.10
498.08	453.05
498.44	459.15
498.80	465.64
499.17	472.22
499.53	478.92
499.89	485.89
500.26	492.89
500.62	499.95
500.98	507.34
501.34	514.83
501.71	522.67
502.07	530.54
502.43	538.56
502.79	546.76
503.16	555.19
503.52	563.82
503.88	572.63
504.24	581.65
504.60	590.74
504.97	600.01
505.33	609.29
505.69	619.21
506.05	629.15
506.41	639.10
506.78	649.20
507.14	659.53
507.50	669.94
507.86	680.70
508.22	691.59
508.59	702.41
508.95	713.57
509.31	724.80
509.67	736.28
510.03	747.79
510.39	759.61
510.75	771.48
511.12	783.48
511.48	795.58
511.84	807.91
512.20	820.42
512.56	833.28
512.92	846.19
513.28	858.94
513.64	871.70
514.00	884.62
514.37	897.62
514.73	910.84
515.09	924.06
515.45	937.07
515.81	950.22
516.17	963.65
516.53	976.99
516.89	990.25
517.25	1003.58
517.61	1017.25
517.97	1030.75
518.33	1043.97
518.69	1057.61
519.05	1071.52
519.41	1085.27
519.77	1099.26
520.13	1112.60
520.49	1125.96
520.85	1139.44
521.21	1152.99
521.57	1166.84
521.93	1180.11
522.29	1194.00
522.65	1207.78
523.01	1221.58
523.37	1234.92
523.73	1248.38
524.09	1261.64
524.45	1275.19
524.81	1288.71
525.17	1302.26
525.53	1315.66
525.89	1329.21
526.25	1342.46
526.61	1355.34
526.97	1368.66
527.33	1381.69
527.68	1395.28
528.04	1408.80
528.40	1422.05
528.76	1435.51
529.12	1448.46
529.48	1461.97
529.84	1474.34
530.20	1487.16
530.56	1499.75
530.91	1513.06
531.27	1526.01
531.63	1538.84
531.99	1551.70
532.35	1564.11
532.71	1576.49
533.07	1589.37
533.42	1601.70
533.78	1613.96
534.14	1626.14
534.50	1637.51
534.86	1649.32
535.21	1660.19
535.57	1671.89
535.93	1683.19
536.29	1694.44
536.65	1706.05
537.00	1717.00
537.36	1728.51
537.72	1739.51
538.08	1751.03
538.44	1762.21
538.79	1773.51
539.15	1784.57
539.51	1795.45
539.87	1806.85
540.22	1817.85
540.58	1828.97
540.94	1839.97
541.29	1850.45
541.65	1860.34
542.01	1870.79
542.37	1880.80
542.72	1891.14
543.08	1900.95
543.44	1911.69
543.79	1921.11
544.15	1930.59
544.51	1940.58
544.87	1950.51
545.22	1959.77
545.58	1968.76
545.94	1977.69
546.29	1986.08
546.65	1994.54
547.01	2003.02
547.36	2010.86
547.72	2018.65
548.07	2026.26
548.43	2034.01
548.79	2041.77
549.14	2050.04
549.50	2058.73
549.86	2066.77
550.21	2074.27
550.57	2082.12
550.92	2088.88
551.28	2096.34
551.64	2103.69
551.99	2111.38
552.35	2118.59
552.70	2125.58
553.06	2132.45
553.41	2138.89
553.77	2145.63
554.13	2152.08
554.48	2159.04
554.84	2166.18
555.19	2172.79
555.55	2179.31
555.90	2185.72
556.26	2192.80
556.61	2199.03
556.97	2203.78
557.32	2209.64
557.68	2216.07
558.03	2221.74
558.39	2227.15
558.74	2233.17
559.10	2238.74
559.45	2244.35
559.81	2249.95
560.16	2255.66
560.52	2261.45
560.87	2267.80
561.23	2273.74
561.58	2280.43
561.94	2285.52
562.29	2290.36
562.64	2296.51
563.00	2302.17
563.35	2307.90
563.71	2313.56
564.06	2319.19
564.42	2325.35
564.77	2330.36
565.12	2335.76
565.48	2340.97
565.83	2346.70
566.19	2352.28
566.54	2357.67
566.89	2362.24
567.25	2367.00
567.60	2372.80
567.96	2378.06
568.31	2382.70
568.66	2387.04
569.02	2390.96
569.37	2394.85
569.72	2399.22
570.08	2402.66
570.43	2405.87
570.78	2408.93
571.14	2411.44
571.49	2414.59
571.84	2418.08
572.20	2420.97
572.55	2423.90
572.90	2426.21
573.26	2428.88
573.61	2431.40
573.96	2433.60
574.31	2435.60
574.67	2437.48
575.02	2438.08
575.37	2439.46
575.72	2440.00
576.08	2441.39
576.43	2441.63
576.78	2442.25
577.13	2443.80
577.49	2444.99
577.84	2446.11
578.19	2447.38
578.54	2447.93
578.90	2448.61
579.25	2448.38
579.60	2448.42
579.95	2447.64
580.30	2447.64
580.66	2446.98
581.01	2445.33
581.36	2443.07
581.71	2441.61
582.06	2440.49
582.42	2439.67
582.77	2437.49
583.12	2435.90
583.47	2434.52
583.82	2434.00
584.17	2432.78
584.53	2430.62
584.88	2428.53
585.23	2426.48
585.58	2424.28
585.93	2422.31
586.28	2420.13
586.63	2417.81
586.98	2415.66
587.34	2413.75
587.69	2411.20
588.04	2409.09
588.39	2407.57
588.74	2405.01
589.09	2402.45
589.44	2399.07
589.79	2396.57
590.14	2394.50
590.49	2391.79
590.84	2387.94
591.19	2384.73
591.54	2381.40
591.89	2377.34
592.25	2374.12
592.60	2370.02
592.95	2365.82
593.30	2361.66
593.65	2357.30
594.00	2352.86
594.35	2349.82
594.70	2345.10
595.05	2340.76
595.40	2335.20
595.75	2329.43
596.10	2325.74
596.45	2320.82
596.80	2316.30
597.15	2311.13
597.50	2305.30
597.85	2300.25
598.19	2295.03
598.54	2289.14
598.89	2283.83
599.24	2279.28
599.59	2272.90
599.94	2266.99
600.29	2261.00
600.64	2254.96
600.99	2248.06
601.34	2242.45
601.69	2235.33
602.04	2228.87
602.39	2222.04
602.74	2215.97
603.08	2210.40
603.43	2203.81
603.78	2196.94
604.13	2189.91
604.48	2182.58
604.83	2176.36
605.18	2170.13
605.53	2163.13
605.87	2155.94
606.22	2149.03
606.57	2141.06
606.92	2133.14
607.27	2126.06
607.62	2119.34
607.96	2112.34
608.31	2105.91
608.66	2098.03
609.01	2090.47
609.36	2083.27
609.70	2075.63
610.05	2067.93
610.40	2059.55
610.75	2051.19
611.10	2043.33
611.44	2034.27
611.79	2025.50
612.14	2015.39
612.49	2004.70
612.83	1995.30
613.18	1986.16
613.53	1976.89
613.88	1967.30
614.22	1958.69
614.57	1948.87
614.92	1938.17
615.27	1927.87
615.61	1917.66
615.96	1907.97
616.31	1898.22
616.65	1888.84
617.00	1879.00
617.35	1869.15
617.70	1859.37
618.04	1849.27
618.39	1839.07
618.74	1829.41
619.08	1819.67
619.43	1810.93
619.78	1802.49
620.12	1793.74
620.47	1784.02
620.82	1773.55
621.16	1763.60
621.51	1753.69
621.85	1743.72
622.20	1733.34
622.55	1722.79
622.89	1712.67
623.24	1702.88
623.59	1692.95
623.93	1682.65
624.28	1672.87
624.62	1662.72
624.97	1652.38
625.32	1642.48
625.66	1633.52
626.01	1624.63
626.35	1615.20
626.70	1605.10
627.04	1594.96
627.39	1584.88
627.73	1575.46
628.08	1566.47
628.43	1556.89
628.77	1547.51
629.12	1538.48
629.46	1530.63
629.81	1522.14
630.15	1512.64
630.50	1502.84
630.84	1492.26
631.19	1482.40
631.53	1472.98
631.88	1462.70
632.22	1452.54
632.57	1443.20
632.91	1432.96
633.26	1423.07
633.60	1413.39
633.95	1404.06
634.29	1394.49
634.64	1385.14
634.98	1375.14
635.32	1365.79
635.67	1357.17
636.01	1347.80
636.36	1338.00
636.70	1328.35
637.05	1318.84
637.39	1309.87
637.73	1301.08
638.08	1293.53
638.42	1285.17
638.77	1276.30
639.11	1268.07
639.45	1260.11
639.80	1251.43
640.14	1242.72
640.49	1233.82
640.83	1224.95
641.17	1216.71
641.52	1208.55
641.86	1199.79
642.20	1191.85
642.55	1183.13
642.89	1174.26
643.23	1165.55
643.58	1157.40
643.92	1148.23
644.26	1139.49
644.61	1130.92
644.95	1122.08
645.29	1112.74
645.64	1103.49
645.98	1094.80
646.32	1086.78
646.66	1078.30
647.01	1069.95
647.35	1061.77
647.69	1053.37
648.04	1044.96
648.38	1035.95
648.72	1027.06
649.06	1018.62
649.41	1010.29
649.75	1002.28
650.09	994.31
650.43	986.17
650.78	977.80
651.12	969.99
651.46	962.48
651.80	955.13
652.14	947.78
652.49	940.15
652.83	932.73
653.17	925.01
653.51	917.22
653.85	909.81
654.20	902.40
654.54	894.75
654.88	887.33
655.22	880.01
655.56	872.99
655.90	866.19
656.25	859.38
656.59	852.46
656.93	845.28
657.27	838.01
657.61	830.98
657.95	824.79
658.29	818.91
658.64	812.73
658.98	806.19
659.32	799.52
659.66	793.27
660.00	786.92
660.34	780.85
660.68	774.71
661.02	768.32
661.36	762.37
661.70	756.58
662.05	750.88
662.39	745.36
662.73	739.83
663.07	734.37
663.41	728.64
663.75	722.83
664.09	717.18
664.43	711.68
664.77	706.15
665.11	700.26
665.45	694.19
665.79	688.26
666.13	682.53
666.47	676.99
666.81	671.50
667.15	666.07
667.49	660.73
667.83	655.42
668.17	650.14
668.51	644.94
668.85	639.90
669.19	635.02
669.53	629.96
669.87	624.79
670.21	619.96
670.55	615.24
670.89	610.76
671.23	606.36
671.57	601.89
671.91	597.59
672.25	593.35
672.58	589.20
672.92	585.15
673.26	581.14
673.60	577.13
673.94	573.23
674.28	569.51
674.62	565.75
674.96	561.95
675.30	558.48
675.64	554.77
675.97	551.17
676.31	547.43
676.65	543.75
676.99	540.29
677.33	536.33
677.67	532.59
678.01	528.70
678.34	524.94
678.68	521.38
679.02	517.75
679.36	514.01
679.70	510.32
680.04	506.69
680.37	503.20
680.71	499.95
681.05	496.69
681.39	493.38
681.73	490.17
682.06	487.03
682.40	483.85
682.74	480.56
683.08	477.24
683.42	474.06
683.75	470.99
684.09	467.90
684.43	465.10
684.77	462.16
685.10	459.26
685.44	456.37
685.78	453.48
686.12	450.70
686.45	447.98
686.79	445.22
687.13	442.64
687.46	440.01
687.80	437.25
688.14	434.40
688.48	431.72
688.81	429.00
689.15	426.40
689.49	423.75
689.82	421.22
690.16	418.62
690.50	416.10
690.83	413.54
691.17	410.95
691.51	408.41
691.84	406.08
692.18	403.86
692.52	401.59
692.85	399.39
693.19	397.21
693.52	395.00
693.86	392.76
694.20	390.54
694.53	388.35
694.87	386.10
695.21	383.90
695.54	381.76
695.88	379.65
696.21	377.43
696.55	375.27
696.88	373.16
697.22	371.16
697.56	369.21
697.89	367.36
698.23	365.58
698.56	363.80
698.90	362.02
699.23	360.07
699.57	358.19
699.90	356.27
700.24	354.36
700.58	352.58
700.91	350.93
701.25	349.36
701.58	347.70
701.92	346.13
702.25	344.52
702.59	342.87
702.92	341.24
703.26	339.67
703.59	338.20
703.93	336.89
704.26	335.41
704.60	333.90
704.93	332.37
705.26	330.89
705.60	329.38
705.93	327.85
706.27	326.49
706.60	325.20
706.94	323.94
707.27	322.60
707.61	321.23
707.94	319.84
708.27	318.28
708.61	316.82
708.94	315.43
709.28	314.12
709.61	312.82
709.94	311.59
710.28	310.36
710.61	309.13
710.95	307.69
711.28	306.62
711.61	305.42
711.95	304.30
712.28	303.07
712.61	301.88
712.95	300.83
713.28	299.79
713.61	298.59
713.95	297.45
714.28	296.41
714.61	295.35
714.95	294.32
715.28	293.29
715.61	292.29
715.95	291.31
716.28	290.38
716.61	289.44
716.95	288.42
717.28	287.46
717.61	286.50
717.94	285.60
718.28	284.54
718.61	283.67
718.94	282.73
719.27	281.87
719.61	281.05
719.94	280.14
720.27	279.15
720.60	278.32
720.94	277.52
721.27	276.73
721.60	276.00
721.93	275.29
722.27	274.65
722.60	273.98
722.93	273.23
723.26	272.53
723.59	271.77
723.93	271.14
724.26	270.52
724.59	269.87
724.92	269.27
725.25	268.74
725.59	268.10
725.92	267.57
726.25	267.02
726.58	266.39
726.91	265.79
727.24	265.26
727.57	264.68
727.91	264.03
728.24	263.48
728.57	262.88
728.90	262.29
729.23	261.66
729.56	261.20
729.89	260.67
730.22	260.11
730.55	259.57
730.89	259.02
731.22	258.45
731.55	257.90
731.88	257.37
732.21	256.78
732.54	256.28
732.87	255.74
733.20	255.21
733.53	254.77
733.86	254.30
734.19	253.80
734.52	253.38
734.85	253.13
735.18	252.64
735.51	252.28
735.84	251.87
736.17	251.48
736.50	250.97
736.83	250.81
737.16	250.43
737.49	250.06
737.82	249.62
738.15	249.25
738.48	248.91
738.81	248.50
739.14	248.06
739.47	247.67
739.80	247.31
740.13	246.93
740.46	246.52
740.79	246.10
741.12	245.74
741.45	245.33
741.78	244.87
742.11	244.58
742.44	244.17
742.77	243.87
743.10	243.49
743.43	243.13
743.75	242.57
744.08	242.52
744.41	242.10
744.74	241.78
745.07	241.41
745.40	241.10
745.73	240.84
746.06	240.57
746.39	240.26
746.71	239.91
747.04	239.57
747.37	239.27
747.70	239.01
748.03	238.74
748.36	238.50
748.68	238.17
749.01	237.82
749.34	237.54
749.67	237.21
750.00	236.95
750.33	236.82
750.65	236.54
750.98	235.95
751.31	235.74
751.64	235.49
751.97	235.36
752.29	235.08
752.62	234.77
752.95	234.53
753.28	234.26
753.60	234.01
753.93	233.85
754.26	233.63
754.59	233.39
754.91	233.14
755.24	232.90
755.57	232.64
755.90	232.39
756.22	232.13
756.55	231.90
756.88	231.67
757.20	231.32
757.53	231.09
757.86	230.91
758.19	230.73
758.51	230.54
758.84	230.23
759.17	230.00
759.49	229.79
759.82	229.69
760.15	229.53
760.47	229.36
760.80	229.11
761.13	228.97
761.45	228.77
761.78	228.56
762.11	228.35
762.43	228.14
762.76	228.00
763.08	227.88
763.41	227.71
763.74	227.54
764.06	227.36
764.39	227.18
764.71	227.02
765.04	226.85
765.37	226.70
765.69	226.52
766.02	226.39
766.34	226.24
766.67	226.01
767.00	225.90
767.32	225.86
767.65	225.87
767.97	225.70
768.30	225.57
768.62	225.46
768.95	225.30
769.27	225.20
769.60	225.12
769.92	224.96
770.25	224.80
770.57	224.62
770.90	224.48
771.22	224.36
771.55	224.26
771.87	224.13
772.20	224.03
772.52	224.09
772.85	224.27
773.17	224.16
773.50	224.04
773.82	223.91
774.15	223.71
774.47	223.48
774.80	223.34
775.12	223.27
775.45	223.16
775.77	223.10
776.09	223.02
776.42	222.90
776.74	222.90
777.07	222.82
777.39	222.74
777.72	222.66
778.04	222.63
778.36	222.51
778.69	222.44
779.01	222.35
779.33	222.11
779.66	221.73
779.98	221.63
780.31	221.53
780.63	221.54
780.95	221.52
781.28	221.43
781.60	221.35
781.92	221.24
782.25	221.17
782.57	221.13
782.89	221.03
783.22	220.97
783.54	220.84
783.86	220.80
784.19	220.75
784.51	220.74
784.83	220.63
785.16	220.58
785.48	220.54
785.80	220.46
786.12	220.40
786.45	220.37
786.77	220.33
787.09	220.27
787.42	220.13
787.74	220.06
788.06	220.01
788.38	219.95
788.71	219.90
789.03	219.86
789.35	219.80
789.67	219.75
789.99	219.72
790.32	219.64
790.64	219.60
790.96	219.71
791.28	219.61
791.61	219.52
791.93	219.49
792.25	219.41
792.57	219.53
792.89	219.44
793.21	219.44
793.54	219.39
793.86	219.33
794.18	219.27
794.50	219.19
794.82	219.15
795.14	219.14
795.47	219.14
795.79	219.07
796.11	219.00
796.43	218.95
796.75	218.90
797.07	218.88
797.39	218.82
797.71	218.64
798.04	218.62
798.36	218.57
798.68	218.51
799.00	218.48
799.32	218.32
799.64	218.33
799.96	218.27
800.28	218.25
800.60	218.21
800.92	218.23
801.24	218.23
801.56	218.21
801.89	218.14
802.21	218.13
802.53	218.10
802.85	218.11
803.17	218.19
803.49	218.12
803.81	218.07
804.13	218.01
804.45	217.94
804.77	217.92
805.09	217.95
805.41	217.89
805.73	217.83
806.05	217.76
806.37	217.68
806.69	217.62
807.01	217.57
807.33	217.52
807.65	217.39
807.97	217.45
808.28	217.40
808.60	217.38
808.92	217.29
809.24	217.36
809.56	217.33
809.88	217.22
810.20	217.23
810.52	217.22
810.84	217.18
811.16	217.15
811.48	217.11
811.80	217.17
812.12	217.16
812.43	217.19
812.75	217.20
813.07	217.18
813.39	217.17
813.71	217.15
814.03	217.12
814.35	217.14
814.67	217.01
814.98	216.96
815.30	216.93
815.62	216.88
815.94	216.75
816.26	216.68
816.58	216.64
816.89	216.60
817.21	216.58
817.53	216.58
817.85	216.57
818.17	216.54
818.48	216.40
818.80	216.42
819.12	216.35
819.44	216.27
819.76	216.25
820.07	216.23
820.39	216.22
820.71	216.24
821.03	216.19
821.34	216.14
821.66	216.16
821.98	216.18
822.30	216.12
822.61	216.25
822.93	216.23
823.25	216.21
823.57	216.16
823.88	216.15
824.20	216.14
824.52	216.16
824.83	216.12
825.15	216.14
825.47	216.09
825.79	216.12
826.10	216.11
826.42	216.06
826.74	216.08
827.05	216.05
827.37	216.03
827.69	216.02
828.00	216.02
828.32	215.99
828.64	215.91
828.95	216.03
829.27	215.97
829.58	215.95
829.90	215.95
830.22	215.96
830.53	215.91
830.85	215.88
831.17	215.85
831.48	215.86
831.80	215.85
832.11	215.83
832.43	215.77
832.75	215.75
833.06	215.89
833.38	215.82
833.69	215.81
834.01	215.82
834.32	215.81
834.64	215.79
834.96	215.82
835.27	215.82
835.59	215.76
835.90	215.69
836.22	215.70
836.53	215.67
836.85	215.62
837.16	215.84
837.48	215.81
837.79	215.83
838.11	215.85
838.42	215.84
838.74	215.87
839.05	215.85
839.37	215.84
839.68	215.71
840.00	215.70
840.31	215.72
840.63	215.65
840.94	215.63
841.26	215.60
841.57	215.58
841.88	215.61
842.20	215.60
842.51	215.57
842.83	215.53
843.14	215.71
843.46	215.75
843.77	215.59
844.08	215.58
844.40	215.51
844.71	215.45
845.03	215.38
845.34	215.33
845.65	215.33
845.97	215.33
846.28	215.32
846.60	215.31
846.91	215.28
847.22	215.29
847.54	215.35
847.85	215.39
848.16	215.37
848.48	215.31
848.79	215.36
849.10	215.39
849.42	215.37
849.73	215.17
850.04	215.15
850.36	215.11
850.67	215.14
850.98	215.12
851.30	215.19
851.61	215.20
851.92	215.20
852.23	215.25
852.55	215.24
852.86	215.24
853.17	215.25
853.49	215.26
853.80	215.32
854.11	215.30
854.42	215.32
854.74	215.30
855.05	215.30
855.36	215.19
855.67	215.16
855.99	215.19
856.30	215.43
856.61	215.42
856.92	215.39
857.23	215.39
857.55	215.38
857.86	215.33
858.17	215.35
858.48	215.35
858.79	215.32
859.11	215.37
859.42	215.35
859.73	215.30
860.04	215.33
860.35	215.21
860.66	215.17
860.98	215.15
861.29	215.17
861.60	215.16
861.91	215.21
862.22	215.21
862.53	215.20
862.84	214.96
863.16	214.98
863.47	214.92
863.78	214.90
864.09	214.88
864.40	214.88
864.71	214.89
865.02	214.89
865.33	214.82
865.64	214.78
865.95	214.79
866.27	214.97
866.58	214.93
866.89	215.01
867.20	214.96
867.51	214.94
867.82	214.91
868.13	214.97
868.44	214.93
868.75	214.94
869.06	214.93
869.37	214.95
869.68	214.90
869.99	214.95
870.30	214.94
870.61	214.97
870.92	214.96
871.23	214.92
871.54	214.95
871.85	215.03
872.16	215.05
872.47	215.03
872.78	214.88
873.09	214.90
873.40	214.83
873.71	214.86
874.02	214.86
874.33	214.85
874.64	214.78
874.95	214.83
875.26	214.79
875.56	214.78
875.87	214.74
876.18	214.76
876.49	214.97
876.80	214.96
877.11	214.96
877.42	214.96
877.73	214.98
878.04	214.94
878.35	214.92
878.66	214.89
878.96	214.87
879.27	214.89
879.58	214.85
879.89	214.86
880.20	214.94
880.51	214.92
880.82	214.90
881.12	214.89
881.43	214.85
881.74	214.82
882.05	214.83
882.36	214.86
882.67	214.86
882.97	214.64
883.28	214.62
883.59	214.62
883.90	214.61
884.21	214.64
884.51	214.62
884.82	214.60
885.13	214.62
885.44	214.64
885.74	214.63
886.05	214.64
886.36	214.65
886.67	214.54
886.98	214.68
887.28	214.74
887.59	214.76
887.90	214.79
888.20	214.78
888.51	214.82
888.82	214.79
889.13	214.80
889.43	214.98
889.74	214.96
890.05	214.96
890.35	214.96
890.66	214.93
890.97	214.93
891.28	214.88
891.58	214.89
891.89	214.90
892.20	214.87
892.50	214.85
892.81	214.84
893.12	214.85
893.42	214.74
893.73	214.72
894.04	214.71
894.34	214.72
894.65	214.71
894.95	214.67
895.26	214.68
895.57	214.76
895.87	214.54
896.18	214.57
896.48	214.55
896.79	214.53
897.10	214.54
897.40	214.55
897.71	214.60
898.01	214.57
898.32	214.61
898.63	214.59
898.93	214.59
899.24	214.61
899.54	214.63
899.85	214.64
900.15	214.60
900.46	214.61
900.76	214.61
901.07	214.61
901.38	214.60
901.68	214.61
901.99	214.51
902.29	214.55
902.60	214.54
902.90	214.56
903.21	214.57
903.51	214.58
903.82	214.63
904.12	214.66
904.43	214.70
904.73	214.67
905.03	214.72
905.34	214.93
905.64	214.91
905.95	214.90
906.25	214.87
906.56	214.88
906.86	214.88
907.17	214.85
907.47	214.87
907.77	214.86
908.08	214.82
908.38	214.81
908.69	214.83
908.99	214.87
909.30	214.88
909.60	214.87
909.90	214.87
910.21	214.77
910.51	214.69
910.81	214.68
911.12	214.68
911.42	214.67
911.73	214.43
912.03	214.44
912.33	214.50
912.64	214.51
912.94	214.51
913.24	214.47
913.55	214.45
913.85	214.46
914.15	214.51
914.46	214.57
914.76	214.55
915.06	214.52
915.37	214.46
915.67	214.42
915.97	214.46
916.27	214.44
916.58	214.49
916.88	214.50
917.18	214.47
917.49	214.62
917.79	214.60
918.09	214.65
918.39	214.69
918.70	214.67
919.00	214.66
919.30	214.77
919.60	214.78
919.91	214.76
920.21	214.76
920.51	214.68
920.81	214.65
921.12	214.69
921.42	214.68
921.72	214.71
922.02	214.71
922.32	214.71
922.63	214.72
922.93	214.79
923.23	214.81
923.53	214.81
923.83	214.64
924.13	214.68
924.44	214.67
924.74	214.71
925.04	214.74
925.34	214.73
925.64	214.57
925.94	214.56
926.24	214.70
926.55	214.67
926.85	214.70
927.15	214.68
927.45	214.67
927.75	214.67
928.05	214.67
928.35	214.69
928.65	214.72
928.95	214.71
929.26	214.63
929.56	214.66
929.86	214.67
930.16	214.67
930.46	214.64
930.76	214.65
931.06	214.56
931.36	214.50
931.66	214.57
931.96	214.64
932.26	214.63
932.56	214.53
932.86	214.55
933.16	214.57
933.46	214.56
933.76	214.52
934.06	214.56
934.36	214.62
934.66	214.62
934.96	214.55
935.26	214.54
935.56	214.56
935.86	214.53
936.16	214.49
936.46	214.48
936.76	214.46
937.06	214.43
937.36	214.42
937.66	214.44
937.96	214.39
938.26	214.35
938.56	214.38
938.86	214.41
939.16	214.46
939.46	214.45
939.76	214.49
940.06	214.50
940.35	214.46
940.65	214.36
940.95	214.34
941.25	214.33
941.55	214.32
941.85	214.31
942.15	214.34
942.45	214.42
942.75	214.43
943.04	214.46
943.34	214.51
943.64	214.52
943.94	214.48
944.24	214.47
944.54	214.48
944.84	214.44
945.13	214.40
945.43	214.33
945.73	214.34
946.03	214.33
946.33	214.32
946.62	214.30
946.92	214.30
947.22	214.33
947.52	214.37
947.82	214.38
948.11	214.40
948.41	214.36
948.71	214.30
949.01	214.31
949.31	214.29
949.60	214.27
949.90	214.30
950.20	214.30
950.50	214.33
950.79	214.34
951.09	214.37
951.39	214.36
951.69	214.36
951.98	214.42
952.28	214.42
952.58	214.40
952.87	214.41
953.17	214.44
953.47	214.43
953.76	214.40
954.06	214.36
954.36	214.30
954.66	214.33
954.95	214.37
955.25	214.39
955.55	214.41
955.84	214.40
956.14	214.38
956.44	214.41
956.73	214.35
957.03	214.37
957.32	214.39
957.62	214.41
957.92	214.45
958.21	214.39
958.51	214.63
958.81	214.68
959.10	214.72
959.40	214.76
959.69	214.76
959.99	214.82
960.29	214.84
960.58	214.84
960.88	214.86
961.17	214.82
961.47	214.83
961.76	214.77
962.06	214.75
962.36	214.74
962.65	214.73
962.95	214.76
963.24	214.72
963.54	214.71
963.83	214.70
964.13	214.67
964.42	214.63
964.72	214.43
965.01	214.43
965.31	214.41
965.60	214.38
965.90	214.48
966.19	214.40
966.49	214.41
966.78	214.39
967.08	214.38
967.37	214.40
967.67	214.34
967.96	214.44
968.26	214.45
968.55	214.48
968.85	214.47
969.14	214.47
969.43	214.45
969.73	214.43
970.02	214.42
970.32	214.43
970.61	214.45
970.91	214.40
971.20	214.37
971.49	214.34
971.79	214.35
972.08	214.23
972.38	214.28
972.67	214.29
972.96	214.32
973.26	214.31
973.55	214.38
973.85	214.37
974.14	214.30
974.43	214.34
974.73	214.30
975.02	214.30
975.31	214.30
975.61	214.32
975.90	214.31
976.19	214.30
976.49	214.31
976.78	214.31
977.07	214.28
977.37	214.28
977.66	214.33
977.95	214.31
978.24	214.32
978.54	214.36
978.83	214.32
979.12	214.33
979.42	214.31
979.71	214.28
980.00	214.29
980.29	214.32
980.59	214.26
980.88	214.30
981.17	214.26
981.46	214.26
981.76	214.26
982.05	214.32
982.34	214.35
982.63	214.35
982.93	214.38
983.22	214.46
983.51	214.47
983.80	214.48
984.09	214.50
984.39	214.48
984.68	214.45
984.97	214.48
985.26	214.47
985.55	214.48
985.85	214.41
986.14	214.40
986.43	214.40
986.72	214.38
987.01	214.32
987.30	214.35
987.59	214.34
987.89	214.32
988.18	214.28
988.47	214.26
988.76	214.24
989.05	214.19
989.34	214.15
989.63	214.20
989.92	214.18
990.22	214.16
990.51	214.18
990.80	214.14
991.09	214.13
991.38	214.17
991.67	214.16
991.96	214.16
992.25	214.18
992.54	214.16
992.83	214.18
993.12	214.16
993.41	214.19
993.70	214.27
993.99	214.30
994.28	214.31
994.58	214.33
994.87	214.33
995.16	214.34
995.45	214.35
995.74	214.25
996.03	214.26
996.32	214.28
996.61	214.29
996.90	214.29
997.19	214.28
997.48	214.26
997.77	214.22
998.06	214.25
998.34	214.24
998.63	214.26
998.92	214.25
999.21	214.32
999.50	214.30
999.79	214.23
1000.08	214.26
1000.37	214.24
1000.66	214.22
1000.95	214.27
1001.24	214.25
1001.53	214.24
1001.82	214.27
1002.11	214.23
1002.40	214.24
1002.68	214.27
1002.97	214.45
1003.26	214.41
1003.55	214.39
1003.84	214.40
1004.13	214.47
1004.42	214.46
1004.71	214.45
1004.99	214.44
1005.28	214.48
1005.57	214.46
1005.86	214.42
1006.15	214.38
1006.44	214.34
1006.72	214.38
1007.01	214.34
1007.30	214.36
1007.59	214.36
1007.88	214.36
1008.17	214.35
1008.45	214.33
1008.74	214.26
1009.03	214.14
1009.32	214.18
1009.60	214.19
1009.89	214.18
1010.18	214.12
1010.47	214.11
1010.76	214.09
1011.04	214.10
1011.33	214.12
1011.62	214.15
1011.91	214.24
1012.19	214.24
1012.48	214.25
1012.77	214.23
1013.05	214.32
1013.34	214.31
1013.63	214.33
1013.92	214.32
1014.20	214.33
1014.49	214.32
1014.78	214.33
1015.06	214.25
1015.35	214.24
1015.64	214.26
1015.92	214.27
1016.21	214.26
1016.50	214.27
1016.78	214.29
1017.07	214.28
1017.36	214.21
1017.64	214.19
1017.93	214.18
1018.22	214.17
1018.50	214.17
1018.79	214.17
1019.08	214.05
1019.36	214.05
1019.65	214.00
1019.93	214.05
1020.22	214.08
1020.51	214.19
1020.79	214.15
1021.08	213.89
1021.36	213.46
1021.65	214.35
1021.94	213.84
1022.22	213.97
1022.51	213.58
1022.79	214.87
1023.08	214.39
1023.36	216.63
1023.65	213.19
>>>>>End Processed Spectral Data<<<<<
