SpectraSuite Data File
++++++++++++++++++++++++++++++++++++
Date: Tue Jan 29 16:51:27 EST 2013
User: group
Dark Spectrum Present: No
Reference Spectrum Present: No
Number of Sampled Component Spectra: 1
Spectrometers: USB2E7196
Integration Time (usec): 65000 (USB2E7196)
Spectra Averaged: 100 (USB2E7196)
Boxcar Smoothing: 10 (USB2E7196)
Correct for Electrical Dark: No (USB2E7196)
Strobe/Lamp Enabled: No (USB2E7196)
Correct for Detector Non-linearity: No (USB2E7196)
Correct for Stray Light: No (USB2E7196)
Number of Pixels in Processed Spectrum: 2048
>>>>>Begin Processed Spectral Data<<<<<
339.09	0.00
339.48	201.33
339.86	202.89
340.24	204.07
340.63	205.17
341.01	211.20
341.39	208.00
341.78	209.76
342.16	210.94
342.54	212.32
342.93	200.81
343.31	210.95
343.69	211.51
344.07	211.96
344.46	212.44
344.84	212.88
345.22	213.01
345.60	213.29
345.99	213.50
346.37	213.67
346.75	213.76
347.13	213.84
347.52	213.94
347.90	214.08
348.28	214.14
348.66	214.20
349.05	214.20
349.43	214.22
349.81	214.28
350.19	214.30
350.57	214.36
350.96	214.49
351.34	214.59
351.72	214.71
352.10	214.82
352.48	214.88
352.87	214.91
353.25	214.97
353.63	215.03
354.01	215.09
354.39	215.18
354.77	215.24
355.15	215.39
355.54	215.40
355.92	215.40
356.30	215.47
356.68	215.68
357.06	215.76
357.44	215.81
357.82	215.86
358.20	215.97
358.58	216.02
358.97	216.04
359.35	216.15
359.73	216.22
360.11	216.27
360.49	216.33
360.87	216.37
361.25	216.44
361.63	216.55
362.01	216.65
362.39	216.62
362.77	216.67
363.15	216.66
363.53	216.70
363.91	216.72
364.29	216.75
364.67	216.53
365.05	216.57
365.43	216.62
365.81	216.64
366.19	216.70
366.57	216.78
366.95	216.77
367.33	216.75
367.71	216.75
368.09	216.78
368.47	216.77
368.85	216.80
369.23	216.84
369.61	216.75
369.99	216.76
370.37	216.81
370.75	216.87
371.13	216.80
371.51	216.76
371.89	216.78
372.27	216.75
372.65	216.77
373.03	216.74
373.41	216.66
373.78	216.62
374.16	216.50
374.54	216.43
374.92	216.39
375.30	216.33
375.68	216.23
376.06	216.23
376.44	216.16
376.82	216.12
377.19	216.04
377.57	216.01
377.95	215.89
378.33	215.81
378.71	215.67
379.09	215.67
379.47	215.65
379.84	215.52
380.22	215.46
380.60	215.38
380.98	215.32
381.36	215.27
381.73	215.21
382.11	215.23
382.49	215.18
382.87	215.10
383.25	215.07
383.62	215.28
384.00	215.18
384.38	215.18
384.76	215.18
385.13	215.24
385.51	215.19
385.89	215.12
386.27	215.11
386.64	215.10
387.02	215.02
387.40	214.94
387.78	214.95
388.15	214.93
388.53	214.91
388.91	214.88
389.29	214.88
389.66	214.86
390.04	214.83
390.42	214.86
390.79	214.86
391.17	214.81
391.55	214.59
391.92	214.58
392.30	214.59
392.68	214.51
393.05	214.47
393.43	214.50
393.81	214.55
394.18	214.52
394.56	214.51
394.94	214.60
395.31	214.63
395.69	214.70
396.06	214.72
396.44	214.78
396.82	214.78
397.19	214.89
397.57	214.90
397.95	214.96
398.32	214.93
398.70	215.00
399.07	215.13
399.45	215.14
399.82	215.20
400.20	215.24
400.58	215.32
400.95	215.31
401.33	215.42
401.70	215.63
402.08	215.73
402.45	215.80
402.83	215.94
403.20	216.04
403.58	216.12
403.95	216.30
404.33	216.43
404.71	216.61
405.08	216.84
405.46	217.02
405.83	217.23
406.21	217.46
406.58	217.67
406.96	217.90
407.33	218.21
407.70	218.54
408.08	219.01
408.45	219.38
408.83	219.79
409.20	220.12
409.58	220.40
409.95	220.84
410.33	221.37
410.70	221.78
411.08	222.38
411.45	222.99
411.82	223.57
412.20	224.26
412.57	225.10
412.95	225.69
413.32	226.56
413.69	227.41
414.07	228.29
414.44	229.31
414.82	230.33
415.19	231.53
415.56	232.70
415.94	233.86
416.31	235.30
416.68	236.70
417.06	238.31
417.43	239.88
417.81	241.67
418.18	243.46
418.55	245.43
418.93	247.45
419.30	249.56
419.67	251.77
420.04	254.09
420.42	256.49
420.79	259.32
421.16	262.09
421.54	264.97
421.91	268.00
422.28	271.07
422.66	274.39
423.03	277.68
423.40	281.09
423.77	284.72
424.15	288.38
424.52	292.24
424.89	296.49
425.26	300.56
425.64	304.45
426.01	308.73
426.38	313.25
426.75	317.85
427.13	322.63
427.50	327.64
427.87	332.87
428.24	338.09
428.61	343.15
428.99	348.71
429.36	354.81
429.73	360.69
430.10	366.61
430.47	372.68
430.85	378.96
431.22	385.66
431.59	392.77
431.96	399.61
432.33	407.21
432.70	414.45
433.08	423.01
433.45	431.17
433.82	439.27
434.19	448.19
434.56	456.92
434.93	465.27
435.30	473.60
435.68	482.73
436.05	491.76
436.42	500.71
436.79	508.86
437.16	517.58
437.53	526.92
437.90	536.16
438.27	545.11
438.64	554.40
439.01	562.98
439.38	570.58
439.75	577.94
440.13	586.35
440.50	594.40
440.87	600.92
441.24	607.61
441.61	614.89
441.98	620.27
442.35	626.65
442.72	632.99
443.09	639.12
443.46	642.91
443.83	645.41
444.20	647.61
444.57	650.83
444.94	652.36
445.31	653.81
445.68	655.18
446.05	655.88
446.42	655.14
446.79	654.22
447.16	653.21
447.53	652.48
447.90	649.14
448.27	645.81
448.64	641.10
449.01	637.78
449.37	631.98
449.74	626.32
450.11	619.39
450.48	612.03
450.85	604.54
451.22	598.05
451.59	591.97
451.96	586.15
452.33	578.27
452.70	571.09
453.07	562.60
453.43	553.92
453.80	545.55
454.17	537.48
454.54	529.87
454.91	521.59
455.28	513.55
455.65	506.09
456.02	498.46
456.38	492.09
456.75	484.10
457.12	477.39
457.49	470.85
457.86	464.58
458.23	459.11
458.59	453.13
458.96	447.05
459.33	441.66
459.70	436.22
460.07	431.87
460.43	427.00
460.80	422.40
461.17	418.38
461.54	414.20
461.91	410.14
462.27	405.99
462.64	402.53
463.01	398.71
463.38	395.03
463.74	391.42
464.11	388.18
464.48	385.38
464.85	382.33
465.21	379.87
465.58	377.17
465.95	374.03
466.32	371.36
466.68	368.77
467.05	366.19
467.42	363.60
467.78	360.92
468.15	358.30
468.52	356.39
468.88	353.90
469.25	351.64
469.62	349.83
469.98	347.87
470.35	346.06
470.72	344.35
471.08	342.46
471.45	340.89
471.82	339.34
472.18	337.63
472.55	336.39
472.92	334.97
473.28	333.79
473.65	332.65
474.02	331.52
474.38	330.62
474.75	329.85
475.11	329.01
475.48	328.39
475.85	327.89
476.21	327.34
476.58	326.98
476.94	326.73
477.31	326.41
477.67	326.12
478.04	325.97
478.41	325.96
478.77	326.15
479.14	326.10
479.50	326.17
479.87	326.48
480.23	326.75
480.60	326.98
480.96	327.26
481.33	327.80
481.69	328.37
482.06	328.88
482.42	329.34
482.79	329.95
483.15	330.81
483.52	331.77
483.88	332.62
484.25	333.54
484.61	334.54
484.98	335.58
485.34	336.93
485.71	338.31
486.07	339.67
486.44	340.97
486.80	342.58
487.17	344.25
487.53	346.02
487.90	347.92
488.26	349.97
488.62	352.15
488.99	354.21
489.35	356.37
489.72	358.74
490.08	361.18
490.44	363.74
490.81	366.41
491.17	369.11
491.54	372.15
491.90	375.20
492.26	378.44
492.63	381.85
492.99	385.33
493.36	389.00
493.72	392.93
494.08	396.95
494.45	401.23
494.81	405.61
495.17	410.10
495.54	414.78
495.90	419.54
496.26	424.38
496.63	429.56
496.99	434.99
497.35	440.56
497.72	446.47
498.08	452.40
498.44	458.51
498.80	464.94
499.17	471.44
499.53	478.13
499.89	485.00
500.26	491.98
500.62	499.10
500.98	506.43
501.34	513.85
501.71	521.59
502.07	529.29
502.43	537.32
502.79	545.38
503.16	553.74
503.52	562.32
503.88	571.02
504.24	579.96
504.60	588.92
504.97	598.11
505.33	607.35
505.69	617.17
506.05	626.97
506.41	636.85
506.78	646.87
507.14	657.13
507.50	667.56
507.86	678.17
508.22	688.78
508.59	699.40
508.95	710.46
509.31	721.65
509.67	733.10
510.03	744.51
510.39	756.25
510.75	768.00
511.12	779.87
511.48	791.89
511.84	804.10
512.20	816.39
512.56	828.97
512.92	841.73
513.28	854.35
513.64	867.10
514.00	879.98
514.37	892.86
514.73	905.95
515.09	918.93
515.45	931.88
515.81	945.07
516.17	958.51
516.53	971.74
516.89	984.89
517.25	998.04
517.61	1011.43
517.97	1024.96
518.33	1038.17
518.69	1051.76
519.05	1065.51
519.41	1079.23
519.77	1093.12
520.13	1106.52
520.49	1119.70
520.85	1133.11
521.21	1146.51
521.57	1160.10
521.93	1173.15
522.29	1186.84
522.65	1200.50
523.01	1214.14
523.37	1227.33
523.73	1240.70
524.09	1253.83
524.45	1267.33
524.81	1280.86
525.17	1294.28
525.53	1307.40
525.89	1320.80
526.25	1333.99
526.61	1346.94
526.97	1360.12
527.33	1373.08
527.68	1386.54
528.04	1400.11
528.40	1413.48
528.76	1426.81
529.12	1439.68
529.48	1453.14
529.84	1465.47
530.20	1478.23
530.56	1490.90
530.91	1504.20
531.27	1517.04
531.63	1529.81
531.99	1542.56
532.35	1554.87
532.71	1567.36
533.07	1580.35
533.42	1592.69
533.78	1604.86
534.14	1616.97
534.50	1628.25
534.86	1640.00
535.21	1650.84
535.57	1662.45
535.93	1673.55
536.29	1684.74
536.65	1696.36
537.00	1707.46
537.36	1719.00
537.72	1730.01
538.08	1741.53
538.44	1752.50
538.79	1763.83
539.15	1774.95
539.51	1785.95
539.87	1797.42
540.22	1808.31
540.58	1819.24
540.94	1830.16
541.29	1840.64
541.65	1850.49
542.01	1860.96
542.37	1871.06
542.72	1881.44
543.08	1891.14
543.44	1901.71
543.79	1911.11
544.15	1920.75
544.51	1930.61
544.87	1940.48
545.22	1949.83
545.58	1958.75
545.94	1967.80
546.29	1976.25
546.65	1984.72
547.01	1992.95
547.36	2000.67
547.72	2008.53
548.07	2016.19
548.43	2023.88
548.79	2031.61
549.14	2039.85
549.50	2048.46
549.86	2056.49
550.21	2063.91
550.57	2071.68
550.92	2078.55
551.28	2086.01
551.64	2093.20
551.99	2100.91
552.35	2108.10
552.70	2115.03
553.06	2121.76
553.41	2128.10
553.77	2134.61
554.13	2141.04
554.48	2148.09
554.84	2155.21
555.19	2161.70
555.55	2168.21
555.90	2174.61
556.26	2181.49
556.61	2187.62
556.97	2192.45
557.32	2198.02
557.68	2204.47
558.03	2210.29
558.39	2215.70
558.74	2221.69
559.10	2227.10
559.45	2232.53
559.81	2238.14
560.16	2243.57
560.52	2249.23
560.87	2255.59
561.23	2261.39
561.58	2267.86
561.94	2272.90
562.29	2277.47
562.64	2283.40
563.00	2289.07
563.35	2294.53
563.71	2300.26
564.06	2305.89
564.42	2311.81
564.77	2316.88
565.12	2322.02
565.48	2326.91
565.83	2332.28
566.19	2337.50
566.54	2342.84
566.89	2347.39
567.25	2351.78
567.60	2357.48
567.96	2362.63
568.31	2366.84
568.66	2371.05
569.02	2374.85
569.37	2378.45
569.72	2382.67
570.08	2386.19
570.43	2389.16
570.78	2392.12
571.14	2394.45
571.49	2397.46
571.84	2400.79
572.20	2403.59
572.55	2406.33
572.90	2408.64
573.26	2411.33
573.61	2413.89
573.96	2415.94
574.31	2417.78
574.67	2419.59
575.02	2420.20
575.37	2421.53
575.72	2422.14
576.08	2423.47
576.43	2423.48
576.78	2423.82
577.13	2425.26
577.49	2426.24
577.84	2426.94
578.19	2428.13
578.54	2428.60
578.90	2429.03
579.25	2428.79
579.60	2428.56
579.95	2427.66
580.30	2427.44
580.66	2426.56
581.01	2424.70
581.36	2422.15
581.71	2420.66
582.06	2419.21
582.42	2418.08
582.77	2415.57
583.12	2413.79
583.47	2412.15
583.82	2411.50
584.17	2410.08
584.53	2407.75
584.88	2405.46
585.23	2403.50
585.58	2400.93
585.93	2398.76
586.28	2396.33
586.63	2393.54
586.98	2391.06
587.34	2389.07
587.69	2386.54
588.04	2384.25
588.39	2382.56
588.74	2379.87
589.09	2376.98
589.44	2373.58
589.79	2370.88
590.14	2368.70
590.49	2365.73
590.84	2361.76
591.19	2358.28
591.54	2354.94
591.89	2350.91
592.25	2347.44
592.60	2343.09
592.95	2338.85
593.30	2334.54
593.65	2330.14
594.00	2325.63
594.35	2322.65
594.70	2317.74
595.05	2313.29
595.40	2307.72
595.75	2301.74
596.10	2298.11
596.45	2293.18
596.80	2288.61
597.15	2283.57
597.50	2277.60
597.85	2272.75
598.19	2267.64
598.54	2261.72
598.89	2256.33
599.24	2251.54
599.59	2245.46
599.94	2239.45
600.29	2233.56
600.64	2227.58
600.99	2220.62
601.34	2215.10
601.69	2208.03
602.04	2201.73
602.39	2194.91
602.74	2188.71
603.08	2183.26
603.43	2176.79
603.78	2169.89
604.13	2162.76
604.48	2155.28
604.83	2149.18
605.18	2142.92
605.53	2135.97
605.87	2128.97
606.22	2122.23
606.57	2114.44
606.92	2106.53
607.27	2099.63
607.62	2092.84
607.96	2085.84
608.31	2079.56
608.66	2071.79
609.01	2064.24
609.36	2057.03
609.70	2049.25
610.05	2041.61
610.40	2033.27
610.75	2024.84
611.10	2017.02
611.44	2008.20
611.79	1999.54
612.14	1989.69
612.49	1978.97
612.83	1969.63
613.18	1960.46
613.53	1951.19
613.88	1941.70
614.22	1933.09
614.57	1923.41
614.92	1912.97
615.27	1902.72
615.61	1892.41
615.96	1882.82
616.31	1873.18
616.65	1863.80
617.00	1854.36
617.35	1844.71
617.70	1835.10
618.04	1825.12
618.39	1815.15
618.74	1805.56
619.08	1795.99
619.43	1787.31
619.78	1779.26
620.12	1770.59
620.47	1761.21
620.82	1751.04
621.16	1741.17
621.51	1731.23
621.85	1721.41
622.20	1711.20
622.55	1700.79
622.89	1690.98
623.24	1681.49
623.59	1671.90
623.93	1661.87
624.28	1651.98
624.62	1642.09
624.97	1631.91
625.32	1622.20
625.66	1613.33
626.01	1604.73
626.35	1595.47
626.70	1585.48
627.04	1575.44
627.39	1565.47
627.73	1556.20
628.08	1547.36
628.43	1538.02
628.77	1529.00
629.12	1520.14
629.46	1512.28
629.81	1504.06
630.15	1494.82
630.50	1485.09
630.84	1474.56
631.19	1464.77
631.53	1455.60
631.88	1445.54
632.22	1435.62
632.57	1426.34
632.91	1416.41
633.26	1406.61
633.60	1397.21
633.95	1388.09
634.29	1378.68
634.64	1369.41
634.98	1359.47
635.32	1350.31
635.67	1341.87
636.01	1332.67
636.36	1323.07
636.70	1313.77
637.05	1304.50
637.39	1295.61
637.73	1287.05
638.08	1279.69
638.42	1271.58
638.77	1262.96
639.11	1254.62
639.45	1246.97
639.80	1238.62
640.14	1229.87
640.49	1221.11
640.83	1212.25
641.17	1204.14
641.52	1196.09
641.86	1187.67
642.20	1179.96
642.55	1171.36
642.89	1162.61
643.23	1154.05
643.58	1146.06
643.92	1137.07
644.26	1128.49
644.61	1120.19
644.95	1111.41
645.29	1102.26
645.64	1093.27
645.98	1084.73
646.32	1076.95
646.66	1068.52
647.01	1060.24
647.35	1052.16
647.69	1043.94
648.04	1035.83
648.38	1027.14
648.72	1018.38
649.06	1010.05
649.41	1001.87
649.75	994.09
650.09	986.22
650.43	978.27
650.78	969.99
651.12	962.32
651.46	954.97
651.80	947.77
652.14	940.63
652.49	933.20
652.83	925.95
653.17	918.33
653.51	910.73
653.85	903.50
654.20	896.35
654.54	889.04
654.88	881.85
655.22	874.65
655.56	867.60
655.90	860.83
656.25	854.21
656.59	847.40
656.93	840.37
657.27	833.32
657.61	826.26
657.95	820.20
658.29	814.35
658.64	808.17
658.98	801.66
659.32	795.09
659.66	788.83
660.00	782.41
660.34	776.41
660.68	770.43
661.02	764.04
661.36	758.04
661.70	752.22
662.05	746.59
662.39	741.16
662.73	735.75
663.07	730.44
663.41	724.75
663.75	719.08
664.09	713.37
664.43	707.96
664.77	702.77
665.11	696.92
665.45	690.98
665.79	685.16
666.13	679.52
666.47	674.08
666.81	668.62
667.15	663.29
667.49	658.05
667.83	652.76
668.17	647.61
668.51	642.52
668.85	637.60
669.19	632.74
669.53	627.67
669.87	622.55
670.21	617.77
670.55	613.11
670.89	608.59
671.23	604.29
671.57	599.88
671.91	595.56
672.25	591.40
672.58	587.31
672.92	583.29
673.26	579.37
673.60	575.42
673.94	571.65
674.28	568.06
674.62	564.36
674.96	560.62
675.30	557.08
675.64	553.40
675.97	549.84
676.31	546.16
676.65	542.62
676.99	539.21
677.33	535.36
677.67	531.69
678.01	527.89
678.34	524.27
678.68	520.75
679.02	517.12
679.36	513.42
679.70	509.75
680.04	506.15
680.37	502.64
680.71	499.31
681.05	496.07
681.39	492.72
681.73	489.54
682.06	486.48
682.40	483.39
682.74	480.16
683.08	476.90
683.42	473.68
683.75	470.59
684.09	467.46
684.43	464.65
684.77	461.66
685.10	458.79
685.44	455.79
685.78	452.84
686.12	450.06
686.45	447.38
686.79	444.69
687.13	442.17
687.46	439.52
687.80	436.86
688.14	433.98
688.48	431.35
688.81	428.61
689.15	425.95
689.49	423.26
689.82	420.72
690.16	418.10
690.50	415.65
690.83	413.10
691.17	410.60
691.51	408.10
691.84	405.83
692.18	403.57
692.52	401.43
692.85	399.24
693.19	397.09
693.52	394.87
693.86	392.67
694.20	390.44
694.53	388.30
694.87	386.05
695.21	383.94
695.54	381.74
695.88	379.61
696.21	377.40
696.55	375.30
696.88	373.23
697.22	371.24
697.56	369.33
697.89	367.45
698.23	365.69
698.56	363.85
698.90	362.06
699.23	360.16
699.57	358.25
699.90	356.33
700.24	354.44
700.58	352.64
700.91	350.86
701.25	349.23
701.58	347.60
701.92	345.96
702.25	344.32
702.59	342.73
702.92	341.12
703.26	339.55
703.59	338.08
703.93	336.80
704.26	335.35
704.60	333.85
704.93	332.39
705.26	330.85
705.60	329.36
705.93	327.86
706.27	326.48
706.60	325.17
706.94	323.98
707.27	322.62
707.61	321.24
707.94	319.94
708.27	318.41
708.61	316.92
708.94	315.55
709.28	314.21
709.61	312.93
709.94	311.70
710.28	310.49
710.61	309.22
710.95	307.75
711.28	306.66
711.61	305.40
711.95	304.24
712.28	303.03
712.61	301.82
712.95	300.72
713.28	299.63
713.61	298.44
713.95	297.22
714.28	296.18
714.61	295.12
714.95	294.05
715.28	293.06
715.61	292.03
715.95	291.10
716.28	290.15
716.61	289.17
716.95	288.16
717.28	287.20
717.61	286.25
717.94	285.33
718.28	284.28
718.61	283.40
718.94	282.48
719.27	281.59
719.61	280.77
719.94	279.89
720.27	278.95
720.60	278.08
720.94	277.28
721.27	276.50
721.60	275.81
721.93	275.10
722.27	274.46
722.60	273.79
722.93	273.01
723.26	272.36
723.59	271.63
723.93	270.98
724.26	270.33
724.59	269.65
724.92	269.05
725.25	268.49
725.59	267.89
725.92	267.33
726.25	266.78
726.58	266.21
726.91	265.56
727.24	265.00
727.57	264.43
727.91	263.81
728.24	263.23
728.57	262.63
728.90	262.07
729.23	261.43
729.56	260.98
729.89	260.45
730.22	259.84
730.55	259.29
730.89	258.72
731.22	258.19
731.55	257.70
731.88	257.17
732.21	256.64
732.54	256.10
732.87	255.60
733.20	255.08
733.53	254.58
733.86	254.16
734.19	253.65
734.52	253.23
734.85	252.96
735.18	252.51
735.51	252.11
735.84	251.65
736.17	251.22
736.50	250.67
736.83	250.53
737.16	250.11
737.49	249.76
737.82	249.34
738.15	248.97
738.48	248.59
738.81	248.18
739.14	247.71
739.47	247.32
739.80	246.92
740.13	246.55
740.46	246.16
740.79	245.71
741.12	245.34
741.45	244.98
741.78	244.52
742.11	244.21
742.44	243.86
742.77	243.58
743.10	243.23
743.43	242.88
743.75	242.30
744.08	242.27
744.41	241.88
744.74	241.55
745.07	241.14
745.40	240.79
745.73	240.53
746.06	240.24
746.39	239.95
746.71	239.60
747.04	239.24
747.37	238.91
747.70	238.69
748.03	238.38
748.36	238.11
748.68	237.77
749.01	237.40
749.34	237.10
749.67	236.78
750.00	236.51
750.33	236.37
750.65	236.08
750.98	235.53
751.31	235.29
751.64	235.03
751.97	234.91
752.29	234.65
752.62	234.30
752.95	234.01
753.28	233.74
753.60	233.49
753.93	233.37
754.26	233.14
754.59	232.83
754.91	232.62
755.24	232.32
755.57	232.10
755.90	231.88
756.22	231.60
756.55	231.34
756.88	231.06
757.20	230.71
757.53	230.47
757.86	230.27
758.19	230.06
758.51	229.84
758.84	229.53
759.17	229.35
759.49	229.18
759.82	229.11
760.15	228.93
760.47	228.75
760.80	228.42
761.13	228.26
761.45	228.05
761.78	227.86
762.11	227.72
762.43	227.51
762.76	227.34
763.08	227.20
763.41	227.03
763.74	226.90
764.06	226.77
764.39	226.60
764.71	226.44
765.04	226.31
765.37	226.20
765.69	226.08
766.02	225.92
766.34	225.77
766.67	225.54
767.00	225.46
767.32	225.44
767.65	225.49
767.97	225.34
768.30	225.25
768.62	225.15
768.95	224.98
769.27	224.86
769.60	224.72
769.92	224.55
770.25	224.42
770.57	224.27
770.90	224.15
771.22	224.04
771.55	223.92
771.87	223.79
772.20	223.62
772.52	223.67
772.85	223.80
773.17	223.69
773.50	223.57
773.82	223.43
774.15	223.23
774.47	222.98
774.80	222.89
775.12	222.79
775.45	222.67
775.77	222.58
776.09	222.51
776.42	222.46
776.74	222.46
777.07	222.38
777.39	222.29
777.72	222.17
778.04	222.12
778.36	222.01
778.69	221.90
779.01	221.83
779.33	221.58
779.66	221.26
779.98	221.16
780.31	221.13
780.63	221.15
780.95	221.11
781.28	221.05
781.60	220.92
781.92	220.84
782.25	220.79
782.57	220.73
782.89	220.63
783.22	220.52
783.54	220.39
783.86	220.31
784.19	220.25
784.51	220.26
784.83	220.18
785.16	220.13
785.48	220.08
785.80	220.01
786.12	219.93
786.45	219.87
786.77	219.84
787.09	219.72
787.42	219.53
787.74	219.45
788.06	219.42
788.38	219.36
788.71	219.30
789.03	219.25
789.35	219.21
789.67	219.14
789.99	219.12
790.32	219.07
790.64	219.05
790.96	219.15
791.28	219.03
791.61	218.98
791.93	218.91
792.25	218.87
792.57	218.97
792.89	218.89
793.21	218.85
793.54	218.82
793.86	218.77
794.18	218.75
794.50	218.66
794.82	218.61
795.14	218.62
795.47	218.60
795.79	218.55
796.11	218.45
796.43	218.44
796.75	218.41
797.07	218.38
797.39	218.31
797.71	218.14
798.04	218.13
798.36	218.09
798.68	218.07
799.00	218.02
799.32	217.87
799.64	217.93
799.96	217.88
800.28	217.86
800.60	217.83
800.92	217.80
801.24	217.77
801.56	217.72
801.89	217.66
802.21	217.66
802.53	217.59
802.85	217.60
803.17	217.64
803.49	217.57
803.81	217.52
804.13	217.47
804.45	217.43
804.77	217.38
805.09	217.34
805.41	217.31
805.73	217.25
806.05	217.16
806.37	217.07
806.69	217.01
807.01	216.96
807.33	216.93
807.65	216.85
807.97	216.94
808.28	216.90
808.60	216.85
808.92	216.77
809.24	216.86
809.56	216.82
809.88	216.70
810.20	216.69
810.52	216.71
810.84	216.67
811.16	216.58
811.48	216.54
811.80	216.57
812.12	216.58
812.43	216.59
812.75	216.62
813.07	216.59
813.39	216.60
813.71	216.56
814.03	216.52
814.35	216.49
814.67	216.39
814.98	216.36
815.30	216.32
815.62	216.27
815.94	216.11
816.26	216.06
816.58	216.05
816.89	216.00
817.21	215.93
817.53	215.95
817.85	215.97
818.17	215.95
818.48	215.85
818.80	215.81
819.12	215.79
819.44	215.72
819.76	215.69
820.07	215.71
820.39	215.69
820.71	215.72
821.03	215.68
821.34	215.65
821.66	215.64
821.98	215.64
822.30	215.66
822.61	215.80
822.93	215.80
823.25	215.73
823.57	215.70
823.88	215.74
824.20	215.71
824.52	215.73
824.83	215.67
825.15	215.66
825.47	215.64
825.79	215.61
826.10	215.61
826.42	215.59
826.74	215.54
827.05	215.54
827.37	215.51
827.69	215.52
828.00	215.51
828.32	215.49
828.64	215.46
828.95	215.54
829.27	215.44
829.58	215.45
829.90	215.49
830.22	215.51
830.53	215.42
830.85	215.38
831.17	215.34
831.48	215.38
831.80	215.39
832.11	215.34
832.43	215.31
832.75	215.29
833.06	215.39
833.38	215.32
833.69	215.29
834.01	215.28
834.32	215.25
834.64	215.20
834.96	215.17
835.27	215.17
835.59	215.09
835.90	215.03
836.22	215.02
836.53	214.97
836.85	214.92
837.16	215.11
837.48	215.09
837.79	215.10
838.11	215.08
838.42	215.06
838.74	215.07
839.05	215.05
839.37	215.06
839.68	214.90
840.00	214.91
840.31	214.94
840.63	214.91
840.94	214.90
841.26	214.88
841.57	214.88
841.88	214.87
842.20	214.84
842.51	214.82
842.83	214.79
843.14	214.95
843.46	214.95
843.77	214.82
844.08	214.83
844.40	214.76
844.71	214.71
845.03	214.68
845.34	214.68
845.65	214.67
845.97	214.67
846.28	214.68
846.60	214.66
846.91	214.61
847.22	214.63
847.54	214.64
847.85	214.66
848.16	214.65
848.48	214.62
848.79	214.71
849.10	214.74
849.42	214.74
849.73	214.59
850.04	214.60
850.36	214.50
850.67	214.54
850.98	214.55
851.30	214.59
851.61	214.58
851.92	214.55
852.23	214.59
852.55	214.60
852.86	214.59
853.17	214.62
853.49	214.66
853.80	214.64
854.11	214.69
854.42	214.70
854.74	214.69
855.05	214.71
855.36	214.57
855.67	214.55
855.99	214.53
856.30	214.75
856.61	214.76
856.92	214.79
857.23	214.78
857.55	214.75
857.86	214.74
858.17	214.80
858.48	214.74
858.79	214.71
859.11	214.72
859.42	214.75
859.73	214.73
860.04	214.69
860.35	214.66
860.66	214.59
860.98	214.59
861.29	214.61
861.60	214.58
861.91	214.64
862.22	214.62
862.53	214.61
862.84	214.34
863.16	214.37
863.47	214.33
863.78	214.31
864.09	214.35
864.40	214.34
864.71	214.31
865.02	214.38
865.33	214.34
865.64	214.29
865.95	214.27
866.27	214.39
866.58	214.39
866.89	214.39
867.20	214.36
867.51	214.30
867.82	214.28
868.13	214.36
868.44	214.32
868.75	214.36
869.06	214.37
869.37	214.39
869.68	214.35
869.99	214.40
870.30	214.38
870.61	214.40
870.92	214.36
871.23	214.36
871.54	214.38
871.85	214.43
872.16	214.45
872.47	214.46
872.78	214.35
873.09	214.38
873.40	214.39
873.71	214.43
874.02	214.40
874.33	214.36
874.64	214.30
874.95	214.31
875.26	214.27
875.56	214.26
875.87	214.27
876.18	214.25
876.49	214.44
876.80	214.42
877.11	214.36
877.42	214.36
877.73	214.37
878.04	214.31
878.35	214.29
878.66	214.29
878.96	214.28
879.27	214.25
879.58	214.21
879.89	214.19
880.20	214.25
880.51	214.31
880.82	214.34
881.12	214.33
881.43	214.29
881.74	214.23
882.05	214.23
882.36	214.23
882.67	214.26
882.97	214.06
883.28	214.03
883.59	214.04
883.90	214.06
884.21	214.05
884.51	214.08
884.82	214.07
885.13	214.07
885.44	214.07
885.74	214.09
886.05	214.11
886.36	214.10
886.67	214.03
886.98	214.10
887.28	214.13
887.59	214.13
887.90	214.14
888.20	214.18
888.51	214.22
888.82	214.17
889.13	214.15
889.43	214.31
889.74	214.32
890.05	214.33
890.35	214.33
890.66	214.32
890.97	214.29
891.28	214.27
891.58	214.26
891.89	214.25
892.20	214.23
892.50	214.19
892.81	214.20
893.12	214.21
893.42	214.11
893.73	214.09
894.04	214.11
894.34	214.12
894.65	214.10
894.95	214.09
895.26	214.12
895.57	214.20
895.87	213.99
896.18	214.03
896.48	213.99
896.79	213.97
897.10	214.00
897.40	214.01
897.71	214.06
898.01	214.06
898.32	214.07
898.63	214.08
898.93	214.10
899.24	214.10
899.54	214.06
899.85	214.02
900.15	214.04
900.46	214.02
900.76	214.05
901.07	214.07
901.38	214.04
901.68	214.07
901.99	214.00
902.29	214.04
902.60	214.03
902.90	214.04
903.21	214.06
903.51	214.04
903.82	214.08
904.12	214.03
904.43	214.06
904.73	214.04
905.03	214.05
905.34	214.28
905.64	214.27
905.95	214.29
906.25	214.32
906.56	214.29
906.86	214.31
907.17	214.28
907.47	214.27
907.77	214.26
908.08	214.20
908.38	214.19
908.69	214.19
908.99	214.21
909.30	214.23
909.60	214.22
909.90	214.24
910.21	214.16
910.51	214.15
910.81	214.14
911.12	214.19
911.42	214.17
911.73	213.89
912.03	213.91
912.33	213.93
912.64	213.95
912.94	213.90
913.24	213.85
913.55	213.87
913.85	213.87
914.15	213.89
914.46	213.93
914.76	213.92
915.06	213.91
915.37	213.90
915.67	213.88
915.97	213.86
916.27	213.81
916.58	213.84
916.88	213.81
917.18	213.78
917.49	213.86
917.79	213.84
918.09	213.92
918.39	213.93
918.70	213.93
919.00	213.91
919.30	214.01
919.60	214.03
919.91	213.95
920.21	213.97
920.51	213.96
920.81	213.91
921.12	213.95
921.42	213.93
921.72	213.91
922.02	213.90
922.32	213.95
922.63	213.96
922.93	214.07
923.23	214.08
923.53	214.05
923.83	213.92
924.13	213.96
924.44	213.92
924.74	213.96
925.04	213.99
925.34	214.01
925.64	213.91
925.94	213.90
926.24	214.06
926.55	214.02
926.85	214.05
927.15	214.05
927.45	214.04
927.75	214.05
928.05	214.05
928.35	214.07
928.65	214.08
928.95	214.06
929.26	213.99
929.56	214.06
929.86	214.09
930.16	214.04
930.46	214.00
930.76	213.98
931.06	213.90
931.36	213.85
931.66	213.88
931.96	213.92
932.26	213.95
932.56	213.84
932.86	213.82
933.16	213.80
933.46	213.82
933.76	213.78
934.06	213.82
934.36	213.92
934.66	213.90
934.96	213.89
935.26	213.92
935.56	213.88
935.86	213.80
936.16	213.79
936.46	213.85
936.76	213.84
937.06	213.83
937.36	213.85
937.66	213.89
937.96	213.85
938.26	213.80
938.56	213.76
938.86	213.79
939.16	213.86
939.46	213.86
939.76	213.89
940.06	213.90
940.35	213.86
940.65	213.76
940.95	213.81
941.25	213.73
941.55	213.73
941.85	213.76
942.15	213.85
942.45	213.87
942.75	213.85
943.04	213.88
943.34	213.93
943.64	213.91
943.94	213.86
944.24	213.87
944.54	213.90
944.84	213.89
945.13	213.85
945.43	213.80
945.73	213.82
946.03	213.78
946.33	213.74
946.62	213.72
946.92	213.70
947.22	213.70
947.52	213.74
947.82	213.74
948.11	213.69
948.41	213.62
948.71	213.56
949.01	213.59
949.31	213.54
949.60	213.53
949.90	213.60
950.20	213.62
950.50	213.63
950.79	213.60
951.09	213.64
951.39	213.66
951.69	213.64
951.98	213.67
952.28	213.67
952.58	213.65
952.87	213.64
953.17	213.67
953.47	213.63
953.76	213.62
954.06	213.57
954.36	213.57
954.66	213.57
954.95	213.60
955.25	213.59
955.55	213.62
955.84	213.58
956.14	213.56
956.44	213.54
956.73	213.52
957.03	213.52
957.32	213.53
957.62	213.52
957.92	213.58
958.21	213.53
958.51	213.80
958.81	213.85
959.10	213.90
959.40	213.96
959.69	213.96
959.99	214.00
960.29	214.02
960.58	214.01
960.88	214.09
961.17	214.10
961.47	214.11
961.76	214.11
962.06	214.13
962.36	214.09
962.65	214.12
962.95	214.13
963.24	214.14
963.54	214.15
963.83	214.15
964.13	214.13
964.42	214.09
964.72	213.91
965.01	213.87
965.31	213.83
965.60	213.78
965.90	213.90
966.19	213.86
966.49	213.86
966.78	213.88
967.08	213.88
967.37	213.90
967.67	213.89
967.96	213.89
968.26	213.92
968.55	213.97
968.85	213.94
969.14	213.94
969.43	213.93
969.73	213.90
970.02	213.90
970.32	213.89
970.61	213.88
970.91	213.80
971.20	213.81
971.49	213.82
971.79	213.83
972.08	213.70
972.38	213.73
972.67	213.74
972.96	213.76
973.26	213.70
973.55	213.77
973.85	213.74
974.14	213.76
974.43	213.75
974.73	213.71
975.02	213.68
975.31	213.68
975.61	213.68
975.90	213.62
976.19	213.60
976.49	213.62
976.78	213.68
977.07	213.70
977.37	213.70
977.66	213.69
977.95	213.63
978.24	213.65
978.54	213.65
978.83	213.63
979.12	213.64
979.42	213.65
979.71	213.60
980.00	213.62
980.29	213.63
980.59	213.61
980.88	213.66
981.17	213.68
981.46	213.66
981.76	213.69
982.05	213.77
982.34	213.78
982.63	213.80
982.93	213.78
983.22	213.80
983.51	213.80
983.80	213.84
984.09	213.88
984.39	213.86
984.68	213.84
984.97	213.87
985.26	213.82
985.55	213.83
985.85	213.75
986.14	213.76
986.43	213.78
986.72	213.76
987.01	213.69
987.30	213.69
987.59	213.70
987.89	213.70
988.18	213.66
988.47	213.62
988.76	213.62
989.05	213.58
989.34	213.58
989.63	213.68
989.92	213.63
990.22	213.59
990.51	213.60
990.80	213.60
991.09	213.59
991.38	213.62
991.67	213.62
991.96	213.63
992.25	213.65
992.54	213.57
992.83	213.57
993.12	213.57
993.41	213.60
993.70	213.65
993.99	213.67
994.28	213.67
994.58	213.67
994.87	213.64
995.16	213.67
995.45	213.67
995.74	213.58
996.03	213.62
996.32	213.66
996.61	213.70
996.90	213.71
997.19	213.72
997.48	213.71
997.77	213.70
998.06	213.65
998.34	213.62
998.63	213.64
998.92	213.64
999.21	213.67
999.50	213.67
999.79	213.60
1000.08	213.58
1000.37	213.59
1000.66	213.60
1000.95	213.64
1001.24	213.64
1001.53	213.64
1001.82	213.64
1002.11	213.58
1002.40	213.62
1002.68	213.70
1002.97	213.83
1003.26	213.80
1003.55	213.77
1003.84	213.80
1004.13	213.92
1004.42	213.92
1004.71	213.93
1004.99	213.93
1005.28	213.97
1005.57	213.95
1005.86	213.93
1006.15	213.90
1006.44	213.89
1006.72	213.91
1007.01	213.86
1007.30	213.84
1007.59	213.83
1007.88	213.82
1008.17	213.84
1008.45	213.78
1008.74	213.64
1009.03	213.53
1009.32	213.54
1009.60	213.55
1009.89	213.52
1010.18	213.42
1010.47	213.44
1010.76	213.44
1011.04	213.43
1011.33	213.44
1011.62	213.46
1011.91	213.45
1012.19	213.43
1012.48	213.45
1012.77	213.45
1013.05	213.55
1013.34	213.58
1013.63	213.57
1013.92	213.59
1014.20	213.56
1014.49	213.54
1014.78	213.58
1015.06	213.50
1015.35	213.50
1015.64	213.52
1015.92	213.56
1016.21	213.59
1016.50	213.57
1016.78	213.61
1017.07	213.61
1017.36	213.56
1017.64	213.53
1017.93	213.61
1018.22	213.61
1018.50	213.62
1018.79	213.58
1019.08	213.47
1019.36	213.45
1019.65	213.40
1019.93	213.42
1020.22	213.48
1020.51	213.58
1020.79	213.56
1021.08	212.72
1021.36	213.84
1021.65	212.78
1021.94	213.22
1022.22	213.08
1022.51	212.79
1022.79	214.02
1023.08	213.77
1023.36	215.57
1023.65	213.15
>>>>>End Processed Spectral Data<<<<<
