SpectraSuite Data File
++++++++++++++++++++++++++++++++++++
Date: Tue Jan 29 16:07:35 EST 2013
User: group
Dark Spectrum Present: No
Reference Spectrum Present: No
Number of Sampled Component Spectra: 1
Spectrometers: USB2E7196
Integration Time (usec): 65000 (USB2E7196)
Spectra Averaged: 100 (USB2E7196)
Boxcar Smoothing: 10 (USB2E7196)
Correct for Electrical Dark: No (USB2E7196)
Strobe/Lamp Enabled: No (USB2E7196)
Correct for Detector Non-linearity: No (USB2E7196)
Correct for Stray Light: No (USB2E7196)
Number of Pixels in Processed Spectrum: 2048
>>>>>Begin Processed Spectral Data<<<<<
339.09	0.00
339.48	203.04
339.86	204.78
340.24	205.44
340.63	206.77
341.01	211.51
341.39	209.69
341.78	211.35
342.16	212.53
342.54	213.04
342.93	202.04
343.31	212.25
343.69	212.79
344.07	213.23
344.46	213.69
344.84	214.08
345.22	214.28
345.60	214.53
345.99	214.70
346.37	214.85
346.75	214.96
347.13	215.04
347.52	215.12
347.90	215.24
348.28	215.30
348.66	215.34
349.05	215.29
349.43	215.33
349.81	215.36
350.19	215.41
350.57	215.45
350.96	215.52
351.34	215.62
351.72	215.70
352.10	215.82
352.48	215.90
352.87	215.94
353.25	215.99
353.63	216.05
354.01	216.13
354.39	216.19
354.77	216.26
355.15	216.38
355.54	216.40
355.92	216.38
356.30	216.43
356.68	216.63
357.06	216.71
357.44	216.77
357.82	216.82
358.20	216.90
358.58	216.99
358.97	217.05
359.35	217.12
359.73	217.22
360.11	217.26
360.49	217.27
360.87	217.32
361.25	217.37
361.63	217.47
362.01	217.53
362.39	217.52
362.77	217.55
363.15	217.57
363.53	217.65
363.91	217.68
364.29	217.72
364.67	217.54
365.05	217.58
365.43	217.59
365.81	217.63
366.19	217.71
366.57	217.74
366.95	217.74
367.33	217.72
367.71	217.73
368.09	217.77
368.47	217.80
368.85	217.79
369.23	217.85
369.61	217.76
369.99	217.83
370.37	217.89
370.75	217.96
371.13	217.90
371.51	217.83
371.89	217.85
372.27	217.83
372.65	217.80
373.03	217.74
373.41	217.72
373.78	217.69
374.16	217.58
374.54	217.51
374.92	217.46
375.30	217.42
375.68	217.31
376.06	217.27
376.44	217.22
376.82	217.20
377.19	217.14
377.57	217.11
377.95	216.96
378.33	216.92
378.71	216.79
379.09	216.79
379.47	216.78
379.84	216.70
380.22	216.64
380.60	216.59
380.98	216.55
381.36	216.49
381.73	216.40
382.11	216.39
382.49	216.38
382.87	216.32
383.25	216.28
383.62	216.50
384.00	216.42
384.38	216.38
384.76	216.38
385.13	216.41
385.51	216.41
385.89	216.38
386.27	216.34
386.64	216.33
387.02	216.28
387.40	216.22
387.78	216.21
388.15	216.19
388.53	216.22
388.91	216.20
389.29	216.18
389.66	216.20
390.04	216.16
390.42	216.18
390.79	216.18
391.17	216.17
391.55	215.91
391.92	215.90
392.30	215.96
392.68	215.90
393.05	215.86
393.43	215.85
393.81	215.87
394.18	215.83
394.56	215.83
394.94	215.88
395.31	215.89
395.69	215.97
396.06	215.99
396.44	216.01
396.82	216.02
397.19	216.17
397.57	216.18
397.95	216.24
398.32	216.20
398.70	216.27
399.07	216.35
399.45	216.40
399.82	216.46
400.20	216.46
400.58	216.54
400.95	216.54
401.33	216.65
401.70	216.88
402.08	216.96
402.45	217.08
402.83	217.21
403.20	217.31
403.58	217.37
403.95	217.54
404.33	217.69
404.71	217.84
405.08	218.03
405.46	218.20
405.83	218.38
406.21	218.61
406.58	218.81
406.96	219.04
407.33	219.33
407.70	219.62
408.08	220.08
408.45	220.42
408.83	220.79
409.20	221.10
409.58	221.35
409.95	221.81
410.33	222.24
410.70	222.66
411.08	223.20
411.45	223.78
411.82	224.31
412.20	224.98
412.57	225.78
412.95	226.37
413.32	227.19
413.69	227.99
414.07	228.86
414.44	229.81
414.82	230.77
415.19	231.90
415.56	233.07
415.94	234.19
416.31	235.55
416.68	236.91
417.06	238.48
417.43	239.93
417.81	241.58
418.18	243.31
418.55	245.18
418.93	247.16
419.30	249.20
419.67	251.38
420.04	253.59
420.42	255.88
420.79	258.62
421.16	261.28
421.54	264.07
421.91	266.95
422.28	269.94
422.66	273.10
423.03	276.23
423.40	279.47
423.77	282.91
424.15	286.47
424.52	290.21
424.89	294.19
425.26	298.16
425.64	301.92
426.01	306.08
426.38	310.42
426.75	314.79
427.13	319.35
427.50	324.14
427.87	329.12
428.24	334.16
428.61	338.94
428.99	344.31
429.36	350.12
429.73	355.81
430.10	361.51
430.47	367.36
430.85	373.49
431.22	379.95
431.59	386.79
431.96	393.33
432.33	400.56
432.70	407.60
433.08	415.84
433.45	423.67
433.82	431.40
434.19	439.97
434.56	448.35
434.93	456.41
435.30	464.45
435.68	473.27
436.05	481.98
436.42	490.62
436.79	498.36
437.16	506.84
437.53	515.79
437.90	524.62
438.27	533.25
438.64	542.12
439.01	550.46
439.38	557.82
439.75	564.86
440.13	572.94
440.50	580.58
440.87	586.79
441.24	593.13
441.61	600.20
441.98	605.39
442.35	611.53
442.72	617.60
443.09	623.36
443.46	626.92
443.83	629.27
444.20	631.32
444.57	634.42
444.94	635.83
445.31	637.15
445.68	638.48
446.05	639.05
446.42	638.28
446.79	637.23
447.16	636.18
447.53	635.45
447.90	632.28
448.27	629.08
448.64	624.54
449.01	621.31
449.37	615.60
449.74	610.09
450.11	603.41
450.48	596.27
450.85	589.04
451.22	582.78
451.59	576.84
451.96	571.21
452.33	563.62
452.70	556.78
453.07	548.66
453.43	540.37
453.80	532.42
454.17	524.70
454.54	517.43
454.91	509.60
455.28	501.96
455.65	494.82
456.02	487.65
456.38	481.57
456.75	474.05
457.12	467.73
457.49	461.49
457.86	455.53
458.23	450.38
458.59	444.77
458.96	439.05
459.33	433.99
459.70	428.78
460.07	424.71
460.43	419.98
460.80	415.54
461.17	411.72
461.54	407.67
461.91	403.78
462.27	399.82
462.64	396.46
463.01	392.81
463.38	389.20
463.74	385.66
464.11	382.54
464.48	379.80
464.85	376.81
465.21	374.47
465.58	371.89
465.95	368.87
466.32	366.30
466.68	363.81
467.05	361.36
467.42	358.95
467.78	356.35
468.15	353.90
468.52	352.05
468.88	349.65
469.25	347.53
469.62	345.80
469.98	343.94
470.35	342.19
470.72	340.54
471.08	338.82
471.45	337.31
471.82	335.85
472.18	334.27
472.55	333.15
472.92	331.86
473.28	330.76
473.65	329.65
474.02	328.59
474.38	327.73
474.75	327.00
475.11	326.25
475.48	325.72
475.85	325.33
476.21	324.90
476.58	324.56
476.94	324.36
477.31	324.12
477.67	323.90
478.04	323.80
478.41	323.78
478.77	324.01
479.14	323.98
479.50	324.14
479.87	324.40
480.23	324.71
480.60	324.94
480.96	325.23
481.33	325.91
481.69	326.48
482.06	327.05
482.42	327.51
482.79	328.13
483.15	328.94
483.52	329.87
483.88	330.77
484.25	331.73
484.61	332.73
484.98	333.78
485.34	335.09
485.71	336.47
486.07	337.92
486.44	339.20
486.80	340.85
487.17	342.52
487.53	344.38
487.90	346.23
488.26	348.29
488.62	350.45
488.99	352.41
489.35	354.61
489.72	356.95
490.08	359.50
490.44	362.02
490.81	364.71
491.17	367.43
491.54	370.37
491.90	373.40
492.26	376.64
492.63	380.08
492.99	383.54
493.36	387.19
493.72	391.06
494.08	395.12
494.45	399.34
494.81	403.65
495.17	408.13
495.54	412.86
495.90	417.65
496.26	422.55
496.63	427.76
496.99	433.10
497.35	438.69
497.72	444.49
498.08	450.46
498.44	456.60
498.80	463.01
499.17	469.48
499.53	476.13
499.89	483.03
500.26	489.98
500.62	497.12
500.98	504.51
501.34	511.94
501.71	519.65
502.07	527.46
502.43	535.51
502.79	543.61
503.16	551.91
503.52	560.46
503.88	569.17
504.24	578.09
504.60	587.10
504.97	596.29
505.33	605.57
505.69	615.34
506.05	625.08
506.41	634.79
506.78	644.82
507.14	655.04
507.50	665.40
507.86	675.95
508.22	686.61
508.59	697.22
508.95	708.26
509.31	719.46
509.67	730.83
510.03	742.15
510.39	753.77
510.75	765.67
511.12	777.47
511.48	789.47
511.84	801.67
512.20	814.03
512.56	826.58
512.92	839.23
513.28	851.82
513.64	864.46
514.00	877.27
514.37	890.14
514.73	903.05
515.09	915.86
515.45	928.61
515.81	941.52
516.17	954.79
516.53	967.80
516.89	980.78
517.25	993.79
517.61	1007.15
517.97	1020.38
518.33	1033.29
518.69	1046.73
519.05	1060.25
519.41	1073.73
519.77	1087.28
520.13	1100.31
520.49	1113.26
520.85	1126.46
521.21	1139.62
521.57	1153.14
521.93	1165.96
522.29	1179.61
522.65	1193.11
523.01	1206.59
523.37	1219.56
523.73	1232.57
524.09	1245.53
524.45	1258.65
524.81	1271.83
525.17	1284.91
525.53	1297.88
525.89	1310.94
526.25	1323.69
526.61	1336.26
526.97	1349.02
527.33	1361.71
527.68	1374.94
528.04	1388.18
528.40	1400.94
528.76	1414.03
529.12	1426.58
529.48	1439.67
529.84	1451.57
530.20	1463.98
530.56	1476.28
530.91	1489.31
531.27	1501.79
531.63	1514.20
531.99	1526.62
532.35	1538.71
532.71	1550.82
533.07	1563.40
533.42	1575.22
533.78	1587.16
534.14	1599.02
534.50	1610.08
534.86	1621.35
535.21	1631.96
535.57	1643.17
535.93	1654.25
536.29	1665.04
536.65	1676.15
537.00	1686.78
537.36	1697.91
537.72	1708.65
538.08	1719.75
538.44	1730.36
538.79	1741.35
539.15	1751.97
539.51	1762.40
539.87	1773.29
540.22	1783.84
540.58	1794.47
540.94	1805.14
541.29	1815.04
541.65	1824.37
542.01	1834.62
542.37	1844.44
542.72	1854.37
543.08	1863.73
543.44	1873.86
543.79	1882.95
544.15	1892.17
544.51	1902.03
544.87	1911.55
545.22	1920.45
545.58	1929.11
545.94	1937.72
546.29	1945.83
546.65	1953.99
547.01	1962.15
547.36	1969.64
547.72	1977.26
548.07	1984.64
548.43	1992.15
548.79	1999.76
549.14	2007.77
549.50	2015.82
549.86	2023.40
550.21	2030.63
550.57	2038.13
550.92	2044.73
551.28	2051.89
551.64	2058.90
551.99	2066.12
552.35	2073.17
552.70	2079.71
553.06	2086.10
553.41	2092.16
553.77	2098.56
554.13	2104.69
554.48	2111.40
554.84	2118.24
555.19	2124.53
555.55	2130.96
555.90	2137.02
556.26	2143.82
556.61	2149.63
556.97	2154.45
557.32	2160.18
557.68	2166.36
558.03	2171.95
558.39	2177.07
558.74	2182.93
559.10	2188.54
559.45	2193.90
559.81	2199.33
560.16	2205.00
560.52	2210.90
560.87	2217.33
561.23	2223.19
561.58	2229.85
561.94	2235.05
562.29	2239.85
562.64	2245.97
563.00	2251.44
563.35	2256.99
563.71	2262.82
564.06	2268.44
564.42	2274.42
564.77	2279.65
565.12	2284.79
565.48	2289.97
565.83	2295.56
566.19	2301.28
566.54	2306.60
566.89	2311.36
567.25	2315.91
567.60	2321.60
567.96	2326.80
568.31	2331.31
568.66	2335.61
569.02	2339.60
569.37	2343.34
569.72	2347.66
570.08	2351.15
570.43	2354.35
570.78	2357.50
571.14	2360.06
571.49	2363.36
571.84	2366.92
572.20	2369.77
572.55	2373.06
572.90	2375.43
573.26	2378.42
573.61	2380.78
573.96	2383.23
574.31	2385.28
574.67	2387.48
575.02	2388.58
575.37	2390.09
575.72	2391.17
576.08	2392.79
576.43	2393.16
576.78	2394.05
577.13	2396.07
577.49	2397.41
577.84	2398.70
578.19	2400.33
578.54	2401.15
578.90	2402.22
579.25	2402.32
579.60	2402.73
579.95	2402.22
580.30	2402.78
580.66	2402.34
581.01	2400.90
581.36	2398.77
581.71	2397.76
582.06	2396.84
582.42	2396.10
582.77	2394.13
583.12	2392.62
583.47	2391.51
583.82	2391.12
584.17	2390.10
584.53	2388.01
584.88	2386.18
585.23	2384.40
585.58	2382.32
585.93	2380.21
586.28	2378.25
586.63	2376.02
586.98	2373.84
587.34	2372.12
587.69	2369.80
588.04	2367.97
588.39	2366.80
588.74	2364.36
589.09	2361.78
589.44	2358.74
589.79	2356.48
590.14	2354.76
590.49	2352.03
590.84	2348.49
591.19	2345.53
591.54	2342.25
591.89	2338.40
592.25	2335.16
592.60	2331.10
592.95	2327.03
593.30	2323.03
593.65	2318.68
594.00	2314.47
594.35	2311.45
594.70	2306.78
595.05	2302.29
595.40	2296.86
595.75	2291.32
596.10	2287.83
596.45	2283.10
596.80	2278.60
597.15	2273.30
597.50	2267.50
597.85	2262.70
598.19	2257.63
598.54	2252.04
598.89	2247.12
599.24	2242.71
599.59	2236.69
599.94	2231.22
600.29	2225.58
600.64	2219.92
600.99	2213.43
601.34	2208.10
601.69	2201.28
602.04	2195.00
602.39	2188.61
602.74	2182.68
603.08	2177.07
603.43	2170.67
603.78	2163.97
604.13	2157.08
604.48	2150.08
604.83	2144.15
605.18	2137.94
605.53	2130.91
605.87	2123.84
606.22	2117.11
606.57	2109.21
606.92	2101.54
607.27	2094.51
607.62	2087.98
607.96	2080.95
608.31	2074.45
608.66	2066.67
609.01	2059.12
609.36	2052.12
609.70	2044.33
610.05	2036.59
610.40	2028.67
610.75	2020.51
611.10	2012.96
611.44	2004.23
611.79	1995.44
612.14	1985.45
612.49	1975.08
612.83	1965.94
613.18	1956.87
613.53	1947.55
613.88	1938.10
614.22	1929.49
614.57	1919.64
614.92	1909.10
615.27	1899.14
615.61	1889.15
615.96	1879.58
616.31	1870.03
616.65	1860.63
617.00	1850.92
617.35	1841.28
617.70	1831.45
618.04	1821.28
618.39	1810.87
618.74	1801.12
619.08	1791.67
619.43	1783.01
619.78	1774.77
620.12	1766.03
620.47	1756.23
620.82	1745.98
621.16	1736.42
621.51	1726.55
621.85	1716.64
622.20	1706.13
622.55	1695.43
622.89	1685.59
623.24	1675.85
623.59	1666.13
623.93	1656.13
624.28	1646.38
624.62	1636.24
624.97	1625.92
625.32	1616.26
625.66	1607.61
626.01	1598.85
626.35	1589.33
626.70	1579.17
627.04	1568.90
627.39	1558.89
627.73	1549.71
628.08	1540.64
628.43	1530.81
628.77	1521.52
629.12	1512.67
629.46	1504.90
629.81	1496.56
630.15	1486.93
630.50	1477.12
630.84	1466.58
631.19	1456.60
631.53	1447.19
631.88	1437.14
632.22	1427.07
632.57	1417.74
632.91	1407.45
633.26	1397.58
633.60	1388.10
633.95	1378.81
634.29	1369.45
634.64	1360.03
634.98	1350.12
635.32	1340.80
635.67	1332.31
636.01	1323.01
636.36	1313.19
636.70	1303.64
637.05	1294.29
637.39	1285.26
637.73	1276.60
638.08	1269.08
638.42	1260.82
638.77	1252.03
639.11	1243.67
639.45	1235.87
639.80	1227.12
640.14	1218.44
640.49	1209.57
640.83	1200.86
641.17	1192.83
641.52	1184.53
641.86	1175.96
642.20	1168.13
642.55	1159.53
642.89	1150.61
643.23	1142.01
643.58	1134.08
643.92	1125.03
644.26	1116.41
644.61	1107.98
644.95	1099.25
645.29	1090.05
645.64	1081.01
645.98	1072.71
646.32	1064.92
646.66	1056.52
647.01	1048.19
647.35	1040.04
647.69	1031.70
648.04	1023.29
648.38	1014.29
648.72	1005.65
649.06	997.28
649.41	989.04
649.75	981.09
650.09	973.22
650.43	965.12
650.78	956.84
651.12	949.20
651.46	941.78
651.80	934.56
652.14	927.28
652.49	919.64
652.83	912.32
653.17	904.63
653.51	896.93
653.85	889.56
654.20	882.45
654.54	874.94
654.88	867.77
655.22	860.70
655.56	853.83
655.90	846.99
656.25	840.34
656.59	833.44
656.93	826.48
657.27	819.40
657.61	812.59
657.95	806.55
658.29	800.69
658.64	794.57
658.98	788.17
659.32	781.52
659.66	775.30
660.00	768.89
660.34	762.94
660.68	756.88
661.02	750.65
661.36	744.72
661.70	738.98
662.05	733.37
662.39	727.85
662.73	722.46
663.07	717.17
663.41	711.62
663.75	706.02
664.09	700.45
664.43	695.17
664.77	689.86
665.11	684.05
665.45	678.19
665.79	672.49
666.13	666.85
666.47	661.45
666.81	656.20
667.15	651.04
667.49	645.82
667.83	640.62
668.17	635.44
668.51	630.42
668.85	625.62
669.19	620.81
669.53	615.90
669.87	610.92
670.21	606.29
670.55	601.60
670.89	597.26
671.23	593.06
671.57	588.74
671.91	584.48
672.25	580.42
672.58	576.33
672.92	572.33
673.26	568.46
673.60	564.69
673.94	560.90
674.28	557.23
674.62	553.55
674.96	549.90
675.30	546.49
675.64	542.86
675.97	539.34
676.31	535.75
676.65	532.23
676.99	528.77
677.33	524.91
677.67	521.29
678.01	517.41
678.34	513.82
678.68	510.30
679.02	506.72
679.36	503.05
679.70	499.47
680.04	495.98
680.37	492.64
680.71	489.39
681.05	486.28
681.39	483.14
681.73	480.01
682.06	477.05
682.40	473.99
682.74	470.88
683.08	467.68
683.42	464.54
683.75	461.56
684.09	458.66
684.43	455.94
684.77	453.08
685.10	450.35
685.44	447.41
685.78	444.57
686.12	441.88
686.45	439.20
686.79	436.55
687.13	434.00
687.46	431.35
687.80	428.75
688.14	425.93
688.48	423.36
688.81	420.78
689.15	418.18
689.49	415.58
689.82	413.11
690.16	410.58
690.50	408.18
690.83	405.73
691.17	403.20
691.51	400.78
691.84	398.64
692.18	396.49
692.52	394.38
692.85	392.32
693.19	390.24
693.52	388.14
693.86	386.03
694.20	383.92
694.53	381.88
694.87	379.68
695.21	377.63
695.54	375.47
695.88	373.30
696.21	371.18
696.55	369.12
696.88	367.10
697.22	365.19
697.56	363.33
697.89	361.51
698.23	359.78
698.56	358.05
698.90	356.30
699.23	354.37
699.57	352.53
699.90	350.69
700.24	348.92
700.58	347.19
700.91	345.56
701.25	344.08
701.58	342.50
701.92	340.98
702.25	339.43
702.59	337.88
702.92	336.41
703.26	334.88
703.59	333.45
703.93	332.22
704.26	330.82
704.60	329.38
704.93	327.96
705.26	326.53
705.60	325.07
705.93	323.59
706.27	322.29
706.60	321.05
706.94	319.86
707.27	318.51
707.61	317.24
707.94	315.95
708.27	314.42
708.61	312.98
708.94	311.66
709.28	310.43
709.61	309.25
709.94	308.07
710.28	306.92
710.61	305.79
710.95	304.38
711.28	303.31
711.61	302.13
711.95	301.00
712.28	299.81
712.61	298.65
712.95	297.63
713.28	296.66
713.61	295.51
713.95	294.39
714.28	293.39
714.61	292.31
714.95	291.35
715.28	290.36
715.61	289.39
715.95	288.49
716.28	287.54
716.61	286.60
716.95	285.65
717.28	284.72
717.61	283.79
717.94	282.94
718.28	281.99
718.61	281.16
718.94	280.28
719.27	279.49
719.61	278.69
719.94	277.85
720.27	276.88
720.60	276.07
720.94	275.29
721.27	274.53
721.60	273.91
721.93	273.15
722.27	272.52
722.60	271.87
722.93	271.14
723.26	270.49
723.59	269.79
723.93	269.18
724.26	268.54
724.59	267.89
724.92	267.32
725.25	266.77
725.59	266.19
725.92	265.70
726.25	265.12
726.58	264.58
726.91	264.00
727.24	263.49
727.57	262.93
727.91	262.33
728.24	261.80
728.57	261.19
728.90	260.68
729.23	260.11
729.56	259.68
729.89	259.14
730.22	258.56
730.55	258.02
730.89	257.49
731.22	257.00
731.55	256.50
731.88	255.95
732.21	255.42
732.54	254.90
732.87	254.36
733.20	253.86
733.53	253.39
733.86	252.92
734.19	252.48
734.52	252.11
734.85	251.88
735.18	251.42
735.51	251.10
735.84	250.67
736.17	250.30
736.50	249.78
736.83	249.65
737.16	249.28
737.49	248.91
737.82	248.48
738.15	248.12
738.48	247.81
738.81	247.44
739.14	247.02
739.47	246.69
739.80	246.37
740.13	246.08
740.46	245.68
740.79	245.34
741.12	244.98
741.45	244.61
741.78	244.12
742.11	243.82
742.44	243.40
742.77	243.12
743.10	242.76
743.43	242.47
743.75	241.94
744.08	241.89
744.41	241.54
744.74	241.22
745.07	240.86
745.40	240.52
745.73	240.28
746.06	239.98
746.39	239.66
746.71	239.29
747.04	238.92
747.37	238.64
747.70	238.40
748.03	238.11
748.36	237.84
748.68	237.58
749.01	237.27
749.34	237.01
749.67	236.71
750.00	236.50
750.33	236.32
750.65	236.04
750.98	235.51
751.31	235.33
751.64	235.11
751.97	234.98
752.29	234.74
752.62	234.43
752.95	234.19
753.28	233.94
753.60	233.72
753.93	233.58
754.26	233.36
754.59	233.04
754.91	232.79
755.24	232.57
755.57	232.34
755.90	232.11
756.22	231.86
756.55	231.65
756.88	231.37
757.20	231.06
757.53	230.82
757.86	230.64
758.19	230.41
758.51	230.21
758.84	229.90
759.17	229.71
759.49	229.56
759.82	229.48
760.15	229.32
760.47	229.13
760.80	228.89
761.13	228.77
761.45	228.62
761.78	228.44
762.11	228.28
762.43	228.09
762.76	227.94
763.08	227.80
763.41	227.66
763.74	227.55
764.06	227.35
764.39	227.23
764.71	227.09
765.04	226.95
765.37	226.83
765.69	226.74
766.02	226.60
766.34	226.44
766.67	226.19
767.00	226.10
767.32	226.13
767.65	226.12
767.97	225.95
768.30	225.83
768.62	225.72
768.95	225.55
769.27	225.46
769.60	225.35
769.92	225.24
770.25	225.06
770.57	224.89
770.90	224.82
771.22	224.67
771.55	224.58
771.87	224.46
772.20	224.30
772.52	224.31
772.85	224.43
773.17	224.33
773.50	224.26
773.82	224.16
774.15	223.91
774.47	223.69
774.80	223.57
775.12	223.47
775.45	223.39
775.77	223.32
776.09	223.27
776.42	223.19
776.74	223.15
777.07	223.08
777.39	223.00
777.72	222.91
778.04	222.86
778.36	222.76
778.69	222.69
779.01	222.65
779.33	222.42
779.66	222.11
779.98	222.03
780.31	221.94
780.63	221.94
780.95	221.93
781.28	221.83
781.60	221.78
781.92	221.71
782.25	221.62
782.57	221.54
782.89	221.42
783.22	221.33
783.54	221.23
783.86	221.21
784.19	221.15
784.51	221.16
784.83	221.10
785.16	221.02
785.48	220.96
785.80	220.90
786.12	220.87
786.45	220.84
786.77	220.78
787.09	220.74
787.42	220.59
787.74	220.54
788.06	220.52
788.38	220.41
788.71	220.33
789.03	220.28
789.35	220.27
789.67	220.18
789.99	220.13
790.32	220.04
790.64	220.01
790.96	220.12
791.28	220.00
791.61	219.93
791.93	219.91
792.25	219.82
792.57	219.90
792.89	219.79
793.21	219.77
793.54	219.72
793.86	219.64
794.18	219.62
794.50	219.51
794.82	219.46
795.14	219.48
795.47	219.48
795.79	219.47
796.11	219.39
796.43	219.35
796.75	219.32
797.07	219.31
797.39	219.24
797.71	219.08
798.04	219.05
798.36	219.00
798.68	218.91
799.00	218.91
799.32	218.78
799.64	218.83
799.96	218.76
800.28	218.77
800.60	218.73
800.92	218.72
801.24	218.71
801.56	218.67
801.89	218.60
802.21	218.59
802.53	218.51
802.85	218.52
803.17	218.61
803.49	218.51
803.81	218.46
804.13	218.37
804.45	218.33
804.77	218.31
805.09	218.32
805.41	218.30
805.73	218.24
806.05	218.14
806.37	218.08
806.69	218.04
807.01	217.97
807.33	217.95
807.65	217.85
807.97	217.90
808.28	217.90
808.60	217.88
808.92	217.81
809.24	217.94
809.56	217.90
809.88	217.78
810.20	217.79
810.52	217.78
810.84	217.78
811.16	217.74
811.48	217.69
811.80	217.71
812.12	217.69
812.43	217.68
812.75	217.69
813.07	217.65
813.39	217.60
813.71	217.55
814.03	217.52
814.35	217.50
814.67	217.36
814.98	217.30
815.30	217.28
815.62	217.23
815.94	217.06
816.26	217.06
816.58	217.04
816.89	217.08
817.21	217.04
817.53	217.00
817.85	217.00
818.17	216.97
818.48	216.87
818.80	216.93
819.12	216.88
819.44	216.84
819.76	216.80
820.07	216.79
820.39	216.77
820.71	216.76
821.03	216.73
821.34	216.73
821.66	216.73
821.98	216.76
822.30	216.73
822.61	216.83
822.93	216.79
823.25	216.74
823.57	216.68
823.88	216.72
824.20	216.69
824.52	216.71
824.83	216.69
825.15	216.67
825.47	216.61
825.79	216.61
826.10	216.58
826.42	216.56
826.74	216.57
827.05	216.59
827.37	216.57
827.69	216.56
828.00	216.56
828.32	216.56
828.64	216.48
828.95	216.59
829.27	216.51
829.58	216.48
829.90	216.50
830.22	216.50
830.53	216.39
830.85	216.36
831.17	216.28
831.48	216.29
831.80	216.29
832.11	216.26
832.43	216.24
832.75	216.20
833.06	216.32
833.38	216.26
833.69	216.20
834.01	216.23
834.32	216.24
834.64	216.19
834.96	216.18
835.27	216.18
835.59	216.05
835.90	216.01
836.22	215.97
836.53	215.94
836.85	215.95
837.16	216.15
837.48	216.16
837.79	216.21
838.11	216.24
838.42	216.23
838.74	216.25
839.05	216.20
839.37	216.19
839.68	216.07
840.00	216.05
840.31	216.07
840.63	216.05
840.94	216.02
841.26	216.03
841.57	216.03
841.88	216.07
842.20	216.08
842.51	216.08
842.83	216.11
843.14	216.28
843.46	216.25
843.77	216.15
844.08	216.15
844.40	216.09
844.71	216.06
845.03	216.02
845.34	215.97
845.65	215.99
845.97	215.99
846.28	215.98
846.60	215.99
846.91	215.97
847.22	215.96
847.54	216.03
847.85	216.01
848.16	215.95
848.48	215.91
848.79	215.97
849.10	216.01
849.42	216.03
849.73	215.84
850.04	215.82
850.36	215.73
850.67	215.75
850.98	215.74
851.30	215.72
851.61	215.73
851.92	215.72
852.23	215.77
852.55	215.79
852.86	215.77
853.17	215.76
853.49	215.79
853.80	215.81
854.11	215.79
854.42	215.82
854.74	215.77
855.05	215.75
855.36	215.65
855.67	215.61
855.99	215.57
856.30	215.80
856.61	215.79
856.92	215.79
857.23	215.78
857.55	215.78
857.86	215.77
858.17	215.80
858.48	215.76
858.79	215.71
859.11	215.71
859.42	215.71
859.73	215.71
860.04	215.69
860.35	215.59
860.66	215.53
860.98	215.49
861.29	215.57
861.60	215.59
861.91	215.63
862.22	215.57
862.53	215.52
862.84	215.27
863.16	215.33
863.47	215.29
863.78	215.26
864.09	215.28
864.40	215.29
864.71	215.28
865.02	215.35
865.33	215.35
865.64	215.35
865.95	215.35
866.27	215.50
866.58	215.50
866.89	215.49
867.20	215.49
867.51	215.49
867.82	215.45
868.13	215.49
868.44	215.44
868.75	215.49
869.06	215.52
869.37	215.54
869.68	215.48
869.99	215.53
870.30	215.52
870.61	215.49
870.92	215.44
871.23	215.40
871.54	215.41
871.85	215.44
872.16	215.45
872.47	215.45
872.78	215.33
873.09	215.34
873.40	215.37
873.71	215.40
874.02	215.40
874.33	215.40
874.64	215.37
874.95	215.40
875.26	215.36
875.56	215.36
875.87	215.36
876.18	215.36
876.49	215.55
876.80	215.55
877.11	215.52
877.42	215.54
877.73	215.54
878.04	215.49
878.35	215.48
878.66	215.47
878.96	215.46
879.27	215.46
879.58	215.45
879.89	215.44
880.20	215.50
880.51	215.49
880.82	215.48
881.12	215.50
881.43	215.47
881.74	215.44
882.05	215.46
882.36	215.48
882.67	215.47
882.97	215.27
883.28	215.28
883.59	215.27
883.90	215.29
884.21	215.35
884.51	215.35
884.82	215.33
885.13	215.33
885.44	215.32
885.74	215.26
886.05	215.26
886.36	215.23
886.67	215.15
886.98	215.25
887.28	215.26
887.59	215.25
887.90	215.28
888.20	215.30
888.51	215.33
888.82	215.29
889.13	215.34
889.43	215.48
889.74	215.44
890.05	215.47
890.35	215.45
890.66	215.40
890.97	215.35
891.28	215.34
891.58	215.34
891.89	215.33
892.20	215.32
892.50	215.29
892.81	215.30
893.12	215.31
893.42	215.21
893.73	215.22
894.04	215.17
894.34	215.17
894.65	215.19
894.95	215.15
895.26	215.18
895.57	215.24
895.87	215.02
896.18	215.07
896.48	215.09
896.79	215.10
897.10	215.14
897.40	215.21
897.71	215.24
898.01	215.22
898.32	215.25
898.63	215.23
898.93	215.26
899.24	215.28
899.54	215.23
899.85	215.21
900.15	215.20
900.46	215.23
900.76	215.23
901.07	215.16
901.38	215.19
901.68	215.20
901.99	215.08
902.29	215.13
902.60	215.10
902.90	215.06
903.21	215.05
903.51	215.02
903.82	215.05
904.12	215.07
904.43	215.07
904.73	215.06
905.03	215.08
905.34	215.28
905.64	215.27
905.95	215.32
906.25	215.34
906.56	215.34
906.86	215.34
907.17	215.36
907.47	215.40
907.77	215.34
908.08	215.26
908.38	215.26
908.69	215.24
908.99	215.29
909.30	215.32
909.60	215.28
909.90	215.30
910.21	215.21
910.51	215.14
910.81	215.14
911.12	215.17
911.42	215.18
911.73	214.96
912.03	214.95
912.33	215.00
912.64	214.99
912.94	214.97
913.24	214.95
913.55	214.91
913.85	214.94
914.15	214.99
914.46	215.04
914.76	215.02
915.06	215.02
915.37	214.99
915.67	214.96
915.97	214.97
916.27	214.91
916.58	214.94
916.88	214.93
917.18	214.91
917.49	215.03
917.79	215.03
918.09	215.06
918.39	215.11
918.70	215.07
919.00	215.03
919.30	215.13
919.60	215.11
919.91	215.10
920.21	215.06
920.51	215.03
920.81	215.04
921.12	215.09
921.42	215.08
921.72	215.08
922.02	215.11
922.32	215.16
922.63	215.21
922.93	215.32
923.23	215.36
923.53	215.34
923.83	215.18
924.13	215.19
924.44	215.18
924.74	215.22
925.04	215.24
925.34	215.28
925.64	215.19
925.94	215.20
926.24	215.31
926.55	215.30
926.85	215.32
927.15	215.30
927.45	215.29
927.75	215.31
928.05	215.32
928.35	215.33
928.65	215.37
928.95	215.34
929.26	215.26
929.56	215.28
929.86	215.32
930.16	215.34
930.46	215.30
930.76	215.31
931.06	215.22
931.36	215.16
931.66	215.17
931.96	215.18
932.26	215.17
932.56	215.07
932.86	215.10
933.16	215.10
933.46	215.10
933.76	215.13
934.06	215.15
934.36	215.19
934.66	215.18
934.96	215.15
935.26	215.17
935.56	215.20
935.86	215.18
936.16	215.13
936.46	215.09
936.76	215.12
937.06	215.09
937.36	215.08
937.66	215.10
937.96	215.11
938.26	215.06
938.56	215.05
938.86	215.06
939.16	215.07
939.46	215.06
939.76	215.09
940.06	215.02
940.35	214.99
940.65	214.91
940.95	214.90
941.25	214.83
941.55	214.83
941.85	214.82
942.15	214.83
942.45	214.90
942.75	214.93
943.04	214.90
943.34	214.94
943.64	214.93
943.94	214.90
944.24	214.90
944.54	214.93
944.84	214.93
945.13	214.89
945.43	214.88
945.73	214.89
946.03	214.87
946.33	214.83
946.62	214.84
946.92	214.83
947.22	214.88
947.52	214.85
947.82	214.87
948.11	214.84
948.41	214.79
948.71	214.73
949.01	214.72
949.31	214.72
949.60	214.69
949.90	214.74
950.20	214.74
950.50	214.73
950.79	214.73
951.09	214.76
951.39	214.78
951.69	214.75
951.98	214.80
952.28	214.80
952.58	214.84
952.87	214.82
953.17	214.85
953.47	214.81
953.76	214.86
954.06	214.83
954.36	214.80
954.66	214.79
954.95	214.84
955.25	214.88
955.55	214.88
955.84	214.88
956.14	214.90
956.44	214.87
956.73	214.85
957.03	214.86
957.32	214.87
957.62	214.85
957.92	214.90
958.21	214.89
958.51	215.13
958.81	215.17
959.10	215.18
959.40	215.19
959.69	215.20
959.99	215.22
960.29	215.22
960.58	215.22
960.88	215.31
961.17	215.28
961.47	215.29
961.76	215.27
962.06	215.29
962.36	215.27
962.65	215.31
962.95	215.30
963.24	215.30
963.54	215.29
963.83	215.30
964.13	215.28
964.42	215.19
964.72	215.01
965.01	215.01
965.31	214.98
965.60	214.96
965.90	215.08
966.19	215.04
966.49	215.04
966.78	215.04
967.08	215.02
967.37	215.02
967.67	214.99
967.96	215.04
968.26	215.03
968.55	215.03
968.85	215.00
969.14	214.99
969.43	214.98
969.73	214.98
970.02	214.94
970.32	214.91
970.61	214.91
970.91	214.84
971.20	214.83
971.49	214.83
971.79	214.83
972.08	214.67
972.38	214.70
972.67	214.69
972.96	214.73
973.26	214.68
973.55	214.73
973.85	214.71
974.14	214.70
974.43	214.74
974.73	214.74
975.02	214.71
975.31	214.70
975.61	214.69
975.90	214.67
976.19	214.70
976.49	214.73
976.78	214.73
977.07	214.71
977.37	214.67
977.66	214.68
977.95	214.65
978.24	214.71
978.54	214.71
978.83	214.66
979.12	214.61
979.42	214.62
979.71	214.61
980.00	214.59
980.29	214.58
980.59	214.54
980.88	214.58
981.17	214.62
981.46	214.62
981.76	214.63
982.05	214.70
982.34	214.71
982.63	214.68
982.93	214.71
983.22	214.78
983.51	214.80
983.80	214.84
984.09	214.89
984.39	214.86
984.68	214.86
984.97	214.91
985.26	214.91
985.55	214.95
985.85	214.85
986.14	214.92
986.43	214.93
986.72	214.90
987.01	214.87
987.30	214.85
987.59	214.86
987.89	214.86
988.18	214.81
988.47	214.80
988.76	214.79
989.05	214.79
989.34	214.77
989.63	214.84
989.92	214.81
990.22	214.77
990.51	214.78
990.80	214.74
991.09	214.77
991.38	214.76
991.67	214.76
991.96	214.76
992.25	214.76
992.54	214.69
992.83	214.69
993.12	214.65
993.41	214.69
993.70	214.77
993.99	214.82
994.28	214.81
994.58	214.83
994.87	214.83
995.16	214.83
995.45	214.82
995.74	214.75
996.03	214.76
996.32	214.79
996.61	214.81
996.90	214.84
997.19	214.83
997.48	214.85
997.77	214.79
998.06	214.83
998.34	214.80
998.63	214.82
998.92	214.86
999.21	214.93
999.50	214.92
999.79	214.87
1000.08	214.85
1000.37	214.86
1000.66	214.84
1000.95	214.88
1001.24	214.87
1001.53	214.89
1001.82	214.88
1002.11	214.87
1002.40	214.89
1002.68	214.94
1002.97	215.06
1003.26	215.04
1003.55	215.04
1003.84	215.07
1004.13	215.13
1004.42	215.13
1004.71	215.12
1004.99	215.11
1005.28	215.12
1005.57	215.10
1005.86	215.07
1006.15	215.04
1006.44	215.03
1006.72	215.06
1007.01	215.02
1007.30	215.04
1007.59	215.03
1007.88	214.99
1008.17	214.98
1008.45	214.94
1008.74	214.87
1009.03	214.77
1009.32	214.78
1009.60	214.76
1009.89	214.71
1010.18	214.60
1010.47	214.59
1010.76	214.62
1011.04	214.59
1011.33	214.60
1011.62	214.63
1011.91	214.62
1012.19	214.64
1012.48	214.65
1012.77	214.65
1013.05	214.74
1013.34	214.73
1013.63	214.73
1013.92	214.80
1014.20	214.77
1014.49	214.78
1014.78	214.81
1015.06	214.72
1015.35	214.69
1015.64	214.72
1015.92	214.79
1016.21	214.85
1016.50	214.85
1016.78	214.89
1017.07	214.91
1017.36	214.84
1017.64	214.82
1017.93	214.84
1018.22	214.84
1018.50	214.82
1018.79	214.86
1019.08	214.78
1019.36	214.79
1019.65	214.77
1019.93	214.79
1020.22	214.84
1020.51	214.93
1020.79	214.95
1021.08	214.68
1021.36	214.50
1021.65	215.88
1021.94	214.66
1022.22	215.10
1022.51	214.41
1022.79	215.60
1023.08	215.04
1023.36	216.94
1023.65	215.36
>>>>>End Processed Spectral Data<<<<<
