SpectraSuite Data File
++++++++++++++++++++++++++++++++++++
Date: Tue Jan 29 16:21:06 EST 2013
User: group
Dark Spectrum Present: No
Reference Spectrum Present: No
Number of Sampled Component Spectra: 1
Spectrometers: USB2E7196
Integration Time (usec): 65000 (USB2E7196)
Spectra Averaged: 100 (USB2E7196)
Boxcar Smoothing: 10 (USB2E7196)
Correct for Electrical Dark: No (USB2E7196)
Strobe/Lamp Enabled: No (USB2E7196)
Correct for Detector Non-linearity: No (USB2E7196)
Correct for Stray Light: No (USB2E7196)
Number of Pixels in Processed Spectrum: 2048
>>>>>Begin Processed Spectral Data<<<<<
339.09	0.00
339.48	202.50
339.86	203.93
340.24	204.78
340.63	206.59
341.01	211.17
341.39	208.87
341.78	211.26
342.16	212.36
342.54	212.47
342.93	201.49
343.31	211.67
343.69	212.19
344.07	212.63
344.46	213.09
344.84	213.49
345.22	213.65
345.60	213.95
345.99	214.12
346.37	214.24
346.75	214.34
347.13	214.39
347.52	214.43
347.90	214.58
348.28	214.65
348.66	214.71
349.05	214.68
349.43	214.75
349.81	214.82
350.19	214.91
350.57	214.98
350.96	215.08
351.34	215.18
351.72	215.28
352.10	215.40
352.48	215.46
352.87	215.55
353.25	215.62
353.63	215.68
354.01	215.76
354.39	215.88
354.77	215.98
355.15	216.17
355.54	216.21
355.92	216.20
356.30	216.27
356.68	216.45
357.06	216.52
357.44	216.57
357.82	216.63
358.20	216.71
358.58	216.78
358.97	216.85
359.35	217.00
359.73	217.12
360.11	217.15
360.49	217.21
360.87	217.27
361.25	217.35
361.63	217.47
362.01	217.55
362.39	217.56
362.77	217.61
363.15	217.61
363.53	217.67
363.91	217.71
364.29	217.76
364.67	217.59
365.05	217.65
365.43	217.68
365.81	217.70
366.19	217.76
366.57	217.86
366.95	217.86
367.33	217.80
367.71	217.77
368.09	217.84
368.47	217.84
368.85	217.80
369.23	217.83
369.61	217.72
369.99	217.76
370.37	217.77
370.75	217.84
371.13	217.78
371.51	217.71
371.89	217.71
372.27	217.68
372.65	217.70
373.03	217.68
373.41	217.65
373.78	217.62
374.16	217.50
374.54	217.40
374.92	217.34
375.30	217.30
375.68	217.24
376.06	217.20
376.44	217.18
376.82	217.13
377.19	217.07
377.57	217.04
377.95	216.91
378.33	216.83
378.71	216.69
379.09	216.68
379.47	216.66
379.84	216.61
380.22	216.55
380.60	216.43
380.98	216.38
381.36	216.32
381.73	216.27
382.11	216.29
382.49	216.27
382.87	216.22
383.25	216.13
383.62	216.34
384.00	216.27
384.38	216.20
384.76	216.25
385.13	216.31
385.51	216.25
385.89	216.21
386.27	216.17
386.64	216.16
387.02	216.09
387.40	216.05
387.78	216.02
388.15	216.01
388.53	216.01
388.91	215.94
389.29	215.89
389.66	215.89
390.04	215.85
390.42	215.86
390.79	215.86
391.17	215.87
391.55	215.62
391.92	215.61
392.30	215.62
392.68	215.54
393.05	215.49
393.43	215.50
393.81	215.50
394.18	215.45
394.56	215.45
394.94	215.50
395.31	215.51
395.69	215.59
396.06	215.60
396.44	215.64
396.82	215.66
397.19	215.81
397.57	215.79
397.95	215.87
398.32	215.84
398.70	215.89
399.07	215.96
399.45	215.98
399.82	216.02
400.20	216.08
400.58	216.13
400.95	216.11
401.33	216.24
401.70	216.43
402.08	216.55
402.45	216.68
402.83	216.82
403.20	216.93
403.58	216.99
403.95	217.14
404.33	217.28
404.71	217.41
405.08	217.66
405.46	217.85
405.83	218.05
406.21	218.25
406.58	218.46
406.96	218.69
407.33	218.97
407.70	219.25
408.08	219.71
408.45	220.07
408.83	220.48
409.20	220.80
409.58	221.10
409.95	221.60
410.33	222.03
410.70	222.43
411.08	222.97
411.45	223.59
411.82	224.19
412.20	224.88
412.57	225.72
412.95	226.29
413.32	227.10
413.69	227.89
414.07	228.76
414.44	229.74
414.82	230.73
415.19	231.88
415.56	233.07
415.94	234.26
416.31	235.67
416.68	237.05
417.06	238.67
417.43	240.19
417.81	241.88
418.18	243.68
418.55	245.59
418.93	247.60
419.30	249.66
419.67	251.83
420.04	254.06
420.42	256.43
420.79	259.23
421.16	261.98
421.54	264.87
421.91	267.84
422.28	270.91
422.66	274.15
423.03	277.41
423.40	280.71
423.77	284.22
424.15	287.86
424.52	291.68
424.89	295.82
425.26	299.86
425.64	303.71
426.01	307.91
426.38	312.39
426.75	316.90
427.13	321.59
427.50	326.50
427.87	331.68
428.24	336.77
428.61	341.67
428.99	347.16
429.36	353.07
429.73	358.88
430.10	364.69
430.47	370.74
430.85	376.97
431.22	383.60
431.59	390.66
431.96	397.39
432.33	404.75
432.70	411.80
433.08	420.26
433.45	428.20
433.82	436.18
434.19	444.91
434.56	453.48
434.93	461.67
435.30	469.88
435.68	478.89
436.05	487.78
436.42	496.56
436.79	504.62
437.16	513.28
437.53	522.45
437.90	531.53
438.27	540.40
438.64	549.51
439.01	557.93
439.38	565.38
439.75	572.69
440.13	581.13
440.50	589.08
440.87	595.36
441.24	601.90
441.61	609.10
441.98	614.41
442.35	620.74
442.72	627.08
443.09	633.02
443.46	636.67
443.83	639.20
444.20	641.35
444.57	644.42
444.94	645.87
445.31	647.32
445.68	648.64
446.05	649.19
446.42	648.38
446.79	647.43
447.16	646.41
447.53	645.54
447.90	642.16
448.27	638.91
448.64	634.35
449.01	631.07
449.37	625.26
449.74	619.63
450.11	612.74
450.48	605.38
450.85	598.02
451.22	591.69
451.59	585.57
451.96	579.77
452.33	572.01
452.70	564.98
453.07	556.56
453.43	548.05
453.80	539.83
454.17	531.96
454.54	524.51
454.91	516.37
455.28	508.49
455.65	501.13
456.02	493.69
456.38	487.42
456.75	479.65
457.12	473.14
457.49	466.70
457.86	460.59
458.23	455.31
458.59	449.45
458.96	443.49
459.33	438.30
459.70	433.09
460.07	428.91
460.43	424.10
460.80	419.58
461.17	415.67
461.54	411.55
461.91	407.59
462.27	403.51
462.64	400.14
463.01	396.42
463.38	392.79
463.74	389.17
464.11	385.99
464.48	383.24
464.85	380.21
465.21	377.84
465.58	375.21
465.95	372.04
466.32	369.47
466.68	366.95
467.05	364.36
467.42	361.84
467.78	359.14
468.15	356.60
468.52	354.73
468.88	352.26
469.25	350.06
469.62	348.26
469.98	346.39
470.35	344.62
470.72	342.95
471.08	341.24
471.45	339.74
471.82	338.26
472.18	336.62
472.55	335.44
472.92	334.06
473.28	332.90
473.65	331.83
474.02	330.75
474.38	329.88
474.75	329.15
475.11	328.34
475.48	327.82
475.85	327.37
476.21	326.89
476.58	326.51
476.94	326.34
477.31	326.06
477.67	325.81
478.04	325.65
478.41	325.61
478.77	325.71
479.14	325.66
479.50	325.75
479.87	326.05
480.23	326.36
480.60	326.66
480.96	326.96
481.33	327.55
481.69	328.09
482.06	328.57
482.42	329.07
482.79	329.71
483.15	330.51
483.52	331.45
483.88	332.36
484.25	333.33
484.61	334.33
484.98	335.34
485.34	336.64
485.71	338.04
486.07	339.51
486.44	340.89
486.80	342.53
487.17	344.21
487.53	346.00
487.90	347.86
488.26	349.86
488.62	352.00
488.99	354.05
489.35	356.22
489.72	358.61
490.08	361.15
490.44	363.69
490.81	366.41
491.17	369.16
491.54	372.15
491.90	375.21
492.26	378.47
492.63	381.93
492.99	385.40
493.36	389.07
493.72	392.97
494.08	396.98
494.45	401.23
494.81	405.59
495.17	410.08
495.54	414.86
495.90	419.69
496.26	424.65
496.63	429.88
496.99	435.29
497.35	440.88
497.72	446.73
498.08	452.66
498.44	458.77
498.80	465.16
499.17	471.64
499.53	478.38
499.89	485.28
500.26	492.33
500.62	499.50
500.98	506.97
501.34	514.45
501.71	522.25
502.07	530.02
502.43	538.11
502.79	546.29
503.16	554.65
503.52	563.34
503.88	572.12
504.24	581.14
504.60	590.34
504.97	599.61
505.33	608.87
505.69	618.75
506.05	628.72
506.41	638.64
506.78	648.80
507.14	659.09
507.50	669.65
507.86	680.32
508.22	691.20
508.59	701.91
508.95	713.03
509.31	724.31
509.67	735.87
510.03	747.25
510.39	759.13
510.75	771.13
511.12	783.07
511.48	795.21
511.84	807.56
512.20	819.95
512.56	832.67
512.92	845.62
513.28	858.35
513.64	871.14
514.00	884.07
514.37	897.06
514.73	910.24
515.09	923.24
515.45	936.20
515.81	949.27
516.17	962.74
516.53	976.05
516.89	989.25
517.25	1002.48
517.61	1016.19
517.97	1029.57
518.33	1042.72
518.69	1056.39
519.05	1070.23
519.41	1083.94
519.77	1097.88
520.13	1111.19
520.49	1124.50
520.85	1137.95
521.21	1151.46
521.57	1165.21
521.93	1178.47
522.29	1192.40
522.65	1206.15
523.01	1219.89
523.37	1233.11
523.73	1246.54
524.09	1259.69
524.45	1273.26
524.81	1286.85
525.17	1300.30
525.53	1313.52
525.89	1326.95
526.25	1340.13
526.61	1352.98
526.97	1366.10
527.33	1379.06
527.68	1392.60
528.04	1406.16
528.40	1419.38
528.76	1432.73
529.12	1445.62
529.48	1458.97
529.84	1471.19
530.20	1484.03
530.56	1496.61
530.91	1509.89
531.27	1522.72
531.63	1535.68
531.99	1548.54
532.35	1560.84
532.71	1573.09
533.07	1586.03
533.42	1598.33
533.78	1610.48
534.14	1622.52
534.50	1633.76
534.86	1645.30
535.21	1656.23
535.57	1667.66
535.93	1678.88
536.29	1689.87
536.65	1701.36
537.00	1712.33
537.36	1723.75
537.72	1734.70
538.08	1746.13
538.44	1757.10
538.79	1768.16
539.15	1779.10
539.51	1789.75
539.87	1800.98
540.22	1811.95
540.58	1822.88
540.94	1833.66
541.29	1843.94
541.65	1853.78
542.01	1864.30
542.37	1874.42
542.72	1884.60
543.08	1894.32
543.44	1904.82
543.79	1914.30
544.15	1923.73
544.51	1933.66
544.87	1943.44
545.22	1952.58
545.58	1961.54
545.94	1970.46
546.29	1979.00
546.65	1987.25
547.01	1995.39
547.36	2003.06
547.72	2010.79
548.07	2018.28
548.43	2026.01
548.79	2033.82
549.14	2042.01
549.50	2050.46
549.86	2058.36
550.21	2065.78
550.57	2073.44
550.92	2080.32
551.28	2087.73
551.64	2095.15
551.99	2102.63
552.35	2109.85
552.70	2116.72
553.06	2123.43
553.41	2129.76
553.77	2136.27
554.13	2142.71
554.48	2149.88
554.84	2156.97
555.19	2163.51
555.55	2170.00
555.90	2176.47
556.26	2183.32
556.61	2189.50
556.97	2194.35
557.32	2200.25
557.68	2206.66
558.03	2212.54
558.39	2217.78
558.74	2223.82
559.10	2229.21
559.45	2234.81
559.81	2240.46
560.16	2246.14
560.52	2251.95
560.87	2258.40
561.23	2264.32
561.58	2270.97
561.94	2276.11
562.29	2281.01
562.64	2287.08
563.00	2292.92
563.35	2298.46
563.71	2304.30
564.06	2309.92
564.42	2315.97
564.77	2321.08
565.12	2326.49
565.48	2331.69
565.83	2337.44
566.19	2342.83
566.54	2348.49
566.89	2353.30
567.25	2357.96
567.60	2363.70
567.96	2368.93
568.31	2373.55
568.66	2377.89
569.02	2381.87
569.37	2385.93
569.72	2390.50
570.08	2394.18
570.43	2397.28
570.78	2400.46
571.14	2403.08
571.49	2406.26
571.84	2409.90
572.20	2412.89
572.55	2416.04
572.90	2418.50
573.26	2421.40
573.61	2424.00
573.96	2426.16
574.31	2428.20
574.67	2430.15
575.02	2431.11
575.37	2432.65
575.72	2433.50
576.08	2435.10
576.43	2435.32
576.78	2435.85
577.13	2437.45
577.49	2438.80
577.84	2440.03
578.19	2441.52
578.54	2442.22
578.90	2443.08
579.25	2443.08
579.60	2443.02
579.95	2442.35
580.30	2442.46
580.66	2441.97
581.01	2440.60
581.36	2438.39
581.71	2437.07
582.06	2436.10
582.42	2435.33
582.77	2433.37
583.12	2431.85
583.47	2430.66
583.82	2430.37
584.17	2429.20
584.53	2427.22
584.88	2425.18
585.23	2423.41
585.58	2421.14
585.93	2419.22
586.28	2417.24
586.63	2414.86
586.98	2412.89
587.34	2410.86
587.69	2408.54
588.04	2406.31
588.39	2404.92
588.74	2402.51
589.09	2400.00
589.44	2396.84
589.79	2394.41
590.14	2392.43
590.49	2389.68
590.84	2385.84
591.19	2382.63
591.54	2379.34
591.89	2375.41
592.25	2372.15
592.60	2368.02
592.95	2363.95
593.30	2359.76
593.65	2355.23
594.00	2350.94
594.35	2348.02
594.70	2343.44
595.05	2339.03
595.40	2333.70
595.75	2328.05
596.10	2324.50
596.45	2319.60
596.80	2315.06
597.15	2309.99
597.50	2304.16
597.85	2299.30
598.19	2294.10
598.54	2288.53
598.89	2283.33
599.24	2278.70
599.59	2272.47
599.94	2266.70
600.29	2260.83
600.64	2254.98
600.99	2248.28
601.34	2242.84
601.69	2235.80
602.04	2229.48
602.39	2222.74
602.74	2216.58
603.08	2210.93
603.43	2204.26
603.78	2197.36
604.13	2190.31
604.48	2182.99
604.83	2176.87
605.18	2170.65
605.53	2163.78
605.87	2156.62
606.22	2149.95
606.57	2142.01
606.92	2134.22
607.27	2127.14
607.62	2120.35
607.96	2113.22
608.31	2106.83
608.66	2098.98
609.01	2091.31
609.36	2084.14
609.70	2076.45
610.05	2068.85
610.40	2060.49
610.75	2052.28
611.10	2044.55
611.44	2035.61
611.79	2026.79
612.14	2016.48
612.49	2005.68
612.83	1996.20
613.18	1986.92
613.53	1977.49
613.88	1967.94
614.22	1959.35
614.57	1949.48
614.92	1938.89
615.27	1928.65
615.61	1918.47
615.96	1908.72
616.31	1899.00
616.65	1889.62
617.00	1879.82
617.35	1869.94
617.70	1860.11
618.04	1849.88
618.39	1839.70
618.74	1830.04
619.08	1820.36
619.43	1811.75
619.78	1803.43
620.12	1794.77
620.47	1785.00
620.82	1774.52
621.16	1764.49
621.51	1754.49
621.85	1744.62
622.20	1734.27
622.55	1723.66
622.89	1713.57
623.24	1703.66
623.59	1693.81
623.93	1683.44
624.28	1673.48
624.62	1663.37
624.97	1652.91
625.32	1643.16
625.66	1634.17
626.01	1625.24
626.35	1615.73
626.70	1605.47
627.04	1595.31
627.39	1585.11
627.73	1575.63
628.08	1566.62
628.43	1556.98
628.77	1547.53
629.12	1538.51
629.46	1530.45
629.81	1521.93
630.15	1512.36
630.50	1502.45
630.84	1491.78
631.19	1481.73
631.53	1472.30
631.88	1461.97
632.22	1451.89
632.57	1442.30
632.91	1432.07
633.26	1421.99
633.60	1412.32
633.95	1402.93
634.29	1393.26
634.64	1383.86
634.98	1373.95
635.32	1364.47
635.67	1355.82
636.01	1346.52
636.36	1336.67
636.70	1327.12
637.05	1317.60
637.39	1308.55
637.73	1299.84
638.08	1292.29
638.42	1284.05
638.77	1275.06
639.11	1266.71
639.45	1258.79
639.80	1250.15
640.14	1241.26
640.49	1232.41
640.83	1223.41
641.17	1215.23
641.52	1207.05
641.86	1198.31
642.20	1190.32
642.55	1181.68
642.89	1172.74
643.23	1163.83
643.58	1155.54
643.92	1146.30
644.26	1137.56
644.61	1129.01
644.95	1120.09
645.29	1110.64
645.64	1101.43
645.98	1092.91
646.32	1084.81
646.66	1076.21
647.01	1067.64
647.35	1059.43
647.69	1050.90
648.04	1042.52
648.38	1033.55
648.72	1024.61
649.06	1016.04
649.41	1007.71
649.75	999.61
650.09	991.61
650.43	983.45
650.78	975.07
651.12	967.30
651.46	959.81
651.80	952.37
652.14	944.98
652.49	937.33
652.83	929.88
653.17	922.15
653.51	914.51
653.85	907.19
654.20	900.00
654.54	892.38
654.88	885.09
655.22	877.80
655.56	870.70
655.90	863.85
656.25	857.17
656.59	850.17
656.93	843.06
657.27	835.89
657.61	828.90
657.95	822.71
658.29	816.68
658.64	810.43
658.98	803.95
659.32	797.34
659.66	791.08
660.00	784.62
660.34	778.40
660.68	772.17
661.02	765.71
661.36	759.64
661.70	753.84
662.05	748.10
662.39	742.47
662.73	736.98
663.07	731.49
663.41	725.76
663.75	720.01
664.09	714.24
664.43	708.77
664.77	703.37
665.11	697.47
665.45	691.53
665.79	685.67
666.13	679.92
666.47	674.37
666.81	668.87
667.15	663.44
667.49	658.19
667.83	652.95
668.17	647.70
668.51	642.53
668.85	637.46
669.19	632.54
669.53	627.54
669.87	622.30
670.21	617.47
670.55	612.74
670.89	608.21
671.23	603.82
671.57	599.32
671.91	594.96
672.25	590.79
672.58	586.63
672.92	582.53
673.26	578.57
673.60	574.65
673.94	570.78
674.28	567.14
674.62	563.39
674.96	559.49
675.30	555.92
675.64	552.19
675.97	548.64
676.31	544.98
676.65	541.36
676.99	538.00
677.33	534.11
677.67	530.37
678.01	526.48
678.34	522.87
678.68	519.35
679.02	515.68
679.36	511.95
679.70	508.22
680.04	504.58
680.37	501.12
680.71	497.73
681.05	494.52
681.39	491.21
681.73	488.03
682.06	485.05
682.40	481.92
682.74	478.69
683.08	475.37
683.42	472.21
683.75	469.14
684.09	466.12
684.43	463.34
684.77	460.43
685.10	457.58
685.44	454.62
685.78	451.65
686.12	448.87
686.45	446.08
686.79	443.40
687.13	440.87
687.46	438.24
687.80	435.54
688.14	432.72
688.48	430.09
688.81	427.36
689.15	424.77
689.49	422.18
689.82	419.63
690.16	417.09
690.50	414.60
690.83	412.08
691.17	409.49
691.51	406.96
691.84	404.69
692.18	402.49
692.52	400.26
692.85	398.11
693.19	395.94
693.52	393.83
693.86	391.58
694.20	389.40
694.53	387.14
694.87	384.95
695.21	382.73
695.54	380.55
695.88	378.40
696.21	376.18
696.55	374.02
696.88	371.97
697.22	369.91
697.56	367.97
697.89	366.09
698.23	364.30
698.56	362.53
698.90	360.72
699.23	358.77
699.57	356.87
699.90	354.98
700.24	353.14
700.58	351.35
700.91	349.76
701.25	348.16
701.58	346.61
701.92	344.98
702.25	343.43
702.59	341.80
702.92	340.23
703.26	338.61
703.59	337.12
703.93	335.83
704.26	334.41
704.60	332.95
704.93	331.46
705.26	329.96
705.60	328.50
705.93	326.97
706.27	325.64
706.60	324.40
706.94	323.19
707.27	321.82
707.61	320.44
707.94	319.03
708.27	317.55
708.61	316.09
708.94	314.71
709.28	313.38
709.61	312.12
709.94	310.89
710.28	309.70
710.61	308.50
710.95	307.03
711.28	305.95
711.61	304.73
711.95	303.56
712.28	302.31
712.61	301.08
712.95	300.01
713.28	298.91
713.61	297.71
713.95	296.53
714.28	295.52
714.61	294.46
714.95	293.42
715.28	292.39
715.61	291.34
715.95	290.40
716.28	289.46
716.61	288.51
716.95	287.54
717.28	286.59
717.61	285.63
717.94	284.76
718.28	283.72
718.61	282.88
718.94	282.00
719.27	281.20
719.61	280.40
719.94	279.54
720.27	278.57
720.60	277.75
720.94	276.97
721.27	276.20
721.60	275.50
721.93	274.81
722.27	274.17
722.60	273.56
722.93	272.85
723.26	272.15
723.59	271.43
723.93	270.80
724.26	270.12
724.59	269.47
724.92	268.87
725.25	268.32
725.59	267.70
725.92	267.17
726.25	266.61
726.58	266.02
726.91	265.44
727.24	264.99
727.57	264.39
727.91	263.78
728.24	263.21
728.57	262.63
728.90	262.06
729.23	261.41
729.56	260.94
729.89	260.38
730.22	259.84
730.55	259.33
730.89	258.77
731.22	258.27
731.55	257.79
731.88	257.27
732.21	256.72
732.54	256.20
732.87	255.66
733.20	255.16
733.53	254.67
733.86	254.17
734.19	253.62
734.52	253.24
734.85	252.96
735.18	252.46
735.51	252.10
735.84	251.68
736.17	251.31
736.50	250.77
736.83	250.61
737.16	250.20
737.49	249.78
737.82	249.36
738.15	249.03
738.48	248.63
738.81	248.23
739.14	247.82
739.47	247.41
739.80	247.03
740.13	246.69
740.46	246.32
740.79	245.94
741.12	245.61
741.45	245.20
741.78	244.75
742.11	244.51
742.44	244.15
742.77	243.89
743.10	243.51
743.43	243.18
743.75	242.62
744.08	242.55
744.41	242.22
744.74	241.90
745.07	241.48
745.40	241.20
745.73	240.93
746.06	240.62
746.39	240.34
746.71	240.00
747.04	239.62
747.37	239.28
747.70	238.99
748.03	238.68
748.36	238.41
748.68	238.10
749.01	237.74
749.34	237.44
749.67	237.09
750.00	236.86
750.33	236.73
750.65	236.49
750.98	235.98
751.31	235.74
751.64	235.49
751.97	235.39
752.29	235.13
752.62	234.79
752.95	234.53
753.28	234.26
753.60	234.03
753.93	233.89
754.26	233.69
754.59	233.42
754.91	233.19
755.24	232.97
755.57	232.74
755.90	232.51
756.22	232.24
756.55	231.97
756.88	231.72
757.20	231.38
757.53	231.13
757.86	230.91
758.19	230.74
758.51	230.55
758.84	230.24
759.17	230.00
759.49	229.86
759.82	229.78
760.15	229.62
760.47	229.40
760.80	229.15
761.13	228.98
761.45	228.80
761.78	228.60
762.11	228.42
762.43	228.25
762.76	228.10
763.08	227.94
763.41	227.80
763.74	227.64
764.06	227.48
764.39	227.32
764.71	227.15
765.04	226.97
765.37	226.81
765.69	226.66
766.02	226.53
766.34	226.38
766.67	226.17
767.00	226.04
767.32	226.05
767.65	226.03
767.97	225.90
768.30	225.81
768.62	225.71
768.95	225.58
769.27	225.43
769.60	225.30
769.92	225.16
770.25	225.02
770.57	224.84
770.90	224.70
771.22	224.54
771.55	224.48
771.87	224.40
772.20	224.24
772.52	224.30
772.85	224.42
773.17	224.33
773.50	224.19
773.82	224.07
774.15	223.86
774.47	223.62
774.80	223.51
775.12	223.39
775.45	223.26
775.77	223.17
776.09	223.11
776.42	223.01
776.74	223.00
777.07	222.91
777.39	222.89
777.72	222.79
778.04	222.75
778.36	222.64
778.69	222.55
779.01	222.46
779.33	222.21
779.66	221.89
779.98	221.77
780.31	221.70
780.63	221.72
780.95	221.64
781.28	221.60
781.60	221.49
781.92	221.46
782.25	221.40
782.57	221.33
782.89	221.25
783.22	221.14
783.54	221.02
783.86	220.97
784.19	220.88
784.51	220.88
784.83	220.78
785.16	220.68
785.48	220.60
785.80	220.58
786.12	220.53
786.45	220.49
786.77	220.46
787.09	220.43
787.42	220.31
787.74	220.28
788.06	220.22
788.38	220.18
788.71	220.08
789.03	220.02
789.35	219.96
789.67	219.89
789.99	219.89
790.32	219.82
790.64	219.78
790.96	219.90
791.28	219.79
791.61	219.72
791.93	219.69
792.25	219.62
792.57	219.72
792.89	219.61
793.21	219.55
793.54	219.47
793.86	219.39
794.18	219.33
794.50	219.24
794.82	219.21
795.14	219.18
795.47	219.17
795.79	219.15
796.11	219.08
796.43	219.03
796.75	218.97
797.07	218.96
797.39	218.90
797.71	218.69
798.04	218.68
798.36	218.68
798.68	218.62
799.00	218.62
799.32	218.47
799.64	218.51
799.96	218.48
800.28	218.51
800.60	218.46
800.92	218.45
801.24	218.41
801.56	218.37
801.89	218.31
802.21	218.26
802.53	218.19
802.85	218.22
803.17	218.27
803.49	218.22
803.81	218.17
804.13	218.13
804.45	218.07
804.77	218.04
805.09	217.97
805.41	217.93
805.73	217.85
806.05	217.78
806.37	217.72
806.69	217.68
807.01	217.62
807.33	217.60
807.65	217.50
807.97	217.56
808.28	217.48
808.60	217.48
808.92	217.46
809.24	217.57
809.56	217.49
809.88	217.38
810.20	217.35
810.52	217.37
810.84	217.33
811.16	217.29
811.48	217.24
811.80	217.32
812.12	217.33
812.43	217.35
812.75	217.33
813.07	217.29
813.39	217.27
813.71	217.21
814.03	217.20
814.35	217.18
814.67	217.12
814.98	217.08
815.30	217.03
815.62	216.97
815.94	216.84
816.26	216.85
816.58	216.79
816.89	216.78
817.21	216.70
817.53	216.70
817.85	216.71
818.17	216.72
818.48	216.64
818.80	216.66
819.12	216.59
819.44	216.52
819.76	216.48
820.07	216.46
820.39	216.46
820.71	216.45
821.03	216.46
821.34	216.41
821.66	216.41
821.98	216.44
822.30	216.44
822.61	216.51
822.93	216.45
823.25	216.47
823.57	216.44
823.88	216.49
824.20	216.45
824.52	216.46
824.83	216.40
825.15	216.35
825.47	216.32
825.79	216.35
826.10	216.35
826.42	216.35
826.74	216.36
827.05	216.34
827.37	216.33
827.69	216.31
828.00	216.30
828.32	216.29
828.64	216.24
828.95	216.32
829.27	216.23
829.58	216.23
829.90	216.23
830.22	216.23
830.53	216.17
830.85	216.13
831.17	216.08
831.48	216.12
831.80	216.12
832.11	216.11
832.43	216.09
832.75	216.08
833.06	216.19
833.38	216.12
833.69	216.11
834.01	216.11
834.32	216.10
834.64	216.08
834.96	216.07
835.27	216.08
835.59	216.01
835.90	216.00
836.22	215.99
836.53	215.96
836.85	215.93
837.16	216.12
837.48	216.17
837.79	216.23
838.11	216.20
838.42	216.20
838.74	216.18
839.05	216.14
839.37	216.14
839.68	216.02
840.00	216.01
840.31	216.02
840.63	215.99
840.94	215.98
841.26	215.95
841.57	215.96
841.88	215.96
842.20	215.94
842.51	215.90
842.83	215.91
843.14	216.06
843.46	216.07
843.77	215.93
844.08	215.88
844.40	215.79
844.71	215.76
845.03	215.73
845.34	215.72
845.65	215.70
845.97	215.67
846.28	215.68
846.60	215.68
846.91	215.63
847.22	215.63
847.54	215.66
847.85	215.68
848.16	215.66
848.48	215.59
848.79	215.66
849.10	215.72
849.42	215.70
849.73	215.51
850.04	215.47
850.36	215.43
850.67	215.46
850.98	215.45
851.30	215.51
851.61	215.51
851.92	215.49
852.23	215.56
852.55	215.55
852.86	215.50
853.17	215.53
853.49	215.56
853.80	215.57
854.11	215.57
854.42	215.59
854.74	215.56
855.05	215.58
855.36	215.47
855.67	215.45
855.99	215.44
856.30	215.67
856.61	215.70
856.92	215.70
857.23	215.70
857.55	215.69
857.86	215.65
858.17	215.67
858.48	215.63
858.79	215.60
859.11	215.63
859.42	215.62
859.73	215.58
860.04	215.58
860.35	215.53
860.66	215.46
860.98	215.43
861.29	215.47
861.60	215.47
861.91	215.48
862.22	215.44
862.53	215.43
862.84	215.19
863.16	215.21
863.47	215.15
863.78	215.11
864.09	215.11
864.40	215.12
864.71	215.10
865.02	215.14
865.33	215.12
865.64	215.08
865.95	215.09
866.27	215.24
866.58	215.21
866.89	215.23
867.20	215.24
867.51	215.22
867.82	215.18
868.13	215.22
868.44	215.18
868.75	215.20
869.06	215.20
869.37	215.21
869.68	215.18
869.99	215.18
870.30	215.20
870.61	215.21
870.92	215.15
871.23	215.13
871.54	215.15
871.85	215.17
872.16	215.19
872.47	215.19
872.78	215.06
873.09	215.07
873.40	215.08
873.71	215.10
874.02	215.08
874.33	215.06
874.64	215.03
874.95	215.10
875.26	215.06
875.56	215.06
875.87	215.04
876.18	215.02
876.49	215.26
876.80	215.23
877.11	215.23
877.42	215.25
877.73	215.27
878.04	215.23
878.35	215.22
878.66	215.22
878.96	215.20
879.27	215.21
879.58	215.20
879.89	215.14
880.20	215.21
880.51	215.21
880.82	215.22
881.12	215.22
881.43	215.17
881.74	215.15
882.05	215.13
882.36	215.14
882.67	215.16
882.97	214.92
883.28	214.93
883.59	214.91
883.90	214.94
884.21	214.95
884.51	214.93
884.82	214.88
885.13	214.89
885.44	214.90
885.74	214.90
886.05	214.90
886.36	214.91
886.67	214.79
886.98	214.88
887.28	214.91
887.59	214.91
887.90	214.90
888.20	214.88
888.51	214.93
888.82	214.91
889.13	214.92
889.43	215.10
889.74	215.08
890.05	215.08
890.35	215.03
890.66	215.02
890.97	215.03
891.28	215.01
891.58	215.00
891.89	215.02
892.20	214.99
892.50	214.95
892.81	214.98
893.12	214.98
893.42	214.91
893.73	214.93
894.04	214.92
894.34	214.96
894.65	214.97
894.95	214.92
895.26	214.95
895.57	215.05
895.87	214.85
896.18	214.87
896.48	214.89
896.79	214.89
897.10	214.92
897.40	214.92
897.71	214.94
898.01	214.94
898.32	214.96
898.63	214.94
898.93	214.96
899.24	214.94
899.54	214.94
899.85	214.90
900.15	214.89
900.46	214.92
900.76	214.90
901.07	214.91
901.38	214.91
901.68	214.91
901.99	214.79
902.29	214.81
902.60	214.80
902.90	214.81
903.21	214.82
903.51	214.78
903.82	214.85
904.12	214.83
904.43	214.84
904.73	214.80
905.03	214.79
905.34	214.98
905.64	214.97
905.95	214.98
906.25	215.00
906.56	214.95
906.86	214.94
907.17	214.92
907.47	214.91
907.77	214.87
908.08	214.79
908.38	214.79
908.69	214.79
908.99	214.82
909.30	214.79
909.60	214.78
909.90	214.80
910.21	214.73
910.51	214.69
910.81	214.69
911.12	214.72
911.42	214.76
911.73	214.55
912.03	214.60
912.33	214.63
912.64	214.61
912.94	214.59
913.24	214.58
913.55	214.57
913.85	214.55
914.15	214.62
914.46	214.68
914.76	214.67
915.06	214.66
915.37	214.65
915.67	214.64
915.97	214.62
916.27	214.59
916.58	214.58
916.88	214.59
917.18	214.58
917.49	214.73
917.79	214.72
918.09	214.77
918.39	214.82
918.70	214.81
919.00	214.81
919.30	214.94
919.60	214.94
919.91	214.92
920.21	214.96
920.51	214.90
920.81	214.89
921.12	214.95
921.42	214.97
921.72	214.95
922.02	214.99
922.32	215.02
922.63	215.05
922.93	215.14
923.23	215.14
923.53	215.09
923.83	214.96
924.13	214.98
924.44	214.94
924.74	214.93
925.04	214.98
925.34	215.00
925.64	214.90
925.94	214.89
926.24	215.01
926.55	215.00
926.85	215.06
927.15	215.08
927.45	215.05
927.75	215.05
928.05	215.07
928.35	215.07
928.65	215.10
928.95	215.11
929.26	215.07
929.56	215.14
929.86	215.20
930.16	215.17
930.46	215.16
930.76	215.18
931.06	215.11
931.36	215.05
931.66	215.07
931.96	215.07
932.26	215.08
932.56	214.99
932.86	214.99
933.16	214.95
933.46	214.92
933.76	214.90
934.06	214.96
934.36	215.05
934.66	215.00
934.96	214.97
935.26	214.94
935.56	214.97
935.86	214.91
936.16	214.87
936.46	214.86
936.76	214.86
937.06	214.84
937.36	214.84
937.66	214.85
937.96	214.85
938.26	214.78
938.56	214.74
938.86	214.71
939.16	214.75
939.46	214.78
939.76	214.76
940.06	214.76
940.35	214.68
940.65	214.53
940.95	214.57
941.25	214.52
941.55	214.52
941.85	214.50
942.15	214.54
942.45	214.62
942.75	214.62
943.04	214.63
943.34	214.65
943.64	214.64
943.94	214.58
944.24	214.60
944.54	214.67
944.84	214.68
945.13	214.67
945.43	214.65
945.73	214.64
946.03	214.63
946.33	214.59
946.62	214.58
946.92	214.56
947.22	214.53
947.52	214.55
947.82	214.57
948.11	214.53
948.41	214.49
948.71	214.43
949.01	214.42
949.31	214.39
949.60	214.38
949.90	214.41
950.20	214.42
950.50	214.39
950.79	214.35
951.09	214.40
951.39	214.41
951.69	214.39
951.98	214.44
952.28	214.47
952.58	214.48
952.87	214.50
953.17	214.56
953.47	214.56
953.76	214.57
954.06	214.55
954.36	214.54
954.66	214.52
954.95	214.57
955.25	214.61
955.55	214.66
955.84	214.62
956.14	214.62
956.44	214.59
956.73	214.55
957.03	214.57
957.32	214.58
957.62	214.59
957.92	214.65
958.21	214.61
958.51	214.85
958.81	214.86
959.10	214.88
959.40	214.90
959.69	214.91
959.99	214.95
960.29	214.95
960.58	214.93
960.88	215.02
961.17	214.96
961.47	214.97
961.76	214.91
962.06	214.97
962.36	214.98
962.65	215.02
962.95	215.08
963.24	215.07
963.54	215.04
963.83	215.05
964.13	215.03
964.42	214.97
964.72	214.79
965.01	214.82
965.31	214.79
965.60	214.79
965.90	214.96
966.19	214.88
966.49	214.88
966.78	214.89
967.08	214.90
967.37	214.92
967.67	214.89
967.96	214.92
968.26	214.90
968.55	214.90
968.85	214.87
969.14	214.87
969.43	214.88
969.73	214.85
970.02	214.85
970.32	214.83
970.61	214.83
970.91	214.76
971.20	214.72
971.49	214.70
971.79	214.68
972.08	214.54
972.38	214.59
972.67	214.57
972.96	214.61
973.26	214.54
973.55	214.58
973.85	214.59
974.14	214.55
974.43	214.58
974.73	214.55
975.02	214.57
975.31	214.53
975.61	214.49
975.90	214.49
976.19	214.44
976.49	214.46
976.78	214.49
977.07	214.51
977.37	214.50
977.66	214.53
977.95	214.49
978.24	214.49
978.54	214.52
978.83	214.50
979.12	214.45
979.42	214.43
979.71	214.39
980.00	214.34
980.29	214.36
980.59	214.31
980.88	214.36
981.17	214.35
981.46	214.37
981.76	214.39
982.05	214.47
982.34	214.48
982.63	214.51
982.93	214.51
983.22	214.57
983.51	214.57
983.80	214.60
984.09	214.66
984.39	214.63
984.68	214.58
984.97	214.63
985.26	214.62
985.55	214.61
985.85	214.62
986.14	214.66
986.43	214.68
986.72	214.67
987.01	214.63
987.30	214.61
987.59	214.59
987.89	214.61
988.18	214.55
988.47	214.54
988.76	214.50
989.05	214.46
989.34	214.40
989.63	214.48
989.92	214.43
990.22	214.39
990.51	214.39
990.80	214.37
991.09	214.39
991.38	214.42
991.67	214.43
991.96	214.39
992.25	214.40
992.54	214.38
992.83	214.36
993.12	214.31
993.41	214.34
993.70	214.41
993.99	214.43
994.28	214.45
994.58	214.50
994.87	214.48
995.16	214.48
995.45	214.44
995.74	214.37
996.03	214.39
996.32	214.42
996.61	214.46
996.90	214.50
997.19	214.45
997.48	214.45
997.77	214.42
998.06	214.43
998.34	214.44
998.63	214.44
998.92	214.47
999.21	214.53
999.50	214.54
999.79	214.51
1000.08	214.51
1000.37	214.48
1000.66	214.41
1000.95	214.46
1001.24	214.48
1001.53	214.52
1001.82	214.51
1002.11	214.48
1002.40	214.49
1002.68	214.53
1002.97	214.67
1003.26	214.68
1003.55	214.65
1003.84	214.68
1004.13	214.77
1004.42	214.74
1004.71	214.72
1004.99	214.67
1005.28	214.73
1005.57	214.70
1005.86	214.68
1006.15	214.65
1006.44	214.64
1006.72	214.70
1007.01	214.67
1007.30	214.67
1007.59	214.68
1007.88	214.67
1008.17	214.69
1008.45	214.67
1008.74	214.59
1009.03	214.50
1009.32	214.50
1009.60	214.49
1009.89	214.48
1010.18	214.39
1010.47	214.42
1010.76	214.44
1011.04	214.48
1011.33	214.48
1011.62	214.50
1011.91	214.50
1012.19	214.49
1012.48	214.48
1012.77	214.49
1013.05	214.61
1013.34	214.62
1013.63	214.60
1013.92	214.58
1014.20	214.56
1014.49	214.55
1014.78	214.59
1015.06	214.48
1015.35	214.46
1015.64	214.53
1015.92	214.57
1016.21	214.59
1016.50	214.58
1016.78	214.59
1017.07	214.59
1017.36	214.52
1017.64	214.53
1017.93	214.54
1018.22	214.53
1018.50	214.56
1018.79	214.54
1019.08	214.45
1019.36	214.42
1019.65	214.43
1019.93	214.51
1020.22	214.55
1020.51	214.68
1020.79	214.63
1021.08	214.05
1021.36	214.53
1021.65	214.50
1021.94	214.88
1022.22	214.18
1022.51	214.29
1022.79	215.57
1023.08	214.83
1023.36	216.88
1023.65	213.98
>>>>>End Processed Spectral Data<<<<<
