SpectraSuite Data File
++++++++++++++++++++++++++++++++++++
Date: Tue Jan 29 16:54:34 EST 2013
User: group
Dark Spectrum Present: No
Reference Spectrum Present: No
Number of Sampled Component Spectra: 1
Spectrometers: USB2E7196
Integration Time (usec): 65000 (USB2E7196)
Spectra Averaged: 100 (USB2E7196)
Boxcar Smoothing: 10 (USB2E7196)
Correct for Electrical Dark: No (USB2E7196)
Strobe/Lamp Enabled: No (USB2E7196)
Correct for Detector Non-linearity: No (USB2E7196)
Correct for Stray Light: No (USB2E7196)
Number of Pixels in Processed Spectrum: 2048
>>>>>Begin Processed Spectral Data<<<<<
339.09	0.00
339.48	201.78
339.86	202.63
340.24	204.38
340.63	205.80
341.01	210.53
341.39	208.06
341.78	209.54
342.16	211.60
342.54	211.74
342.93	200.79
343.31	210.93
343.69	211.48
344.07	211.99
344.46	212.42
344.84	212.85
345.22	213.03
345.60	213.34
345.99	213.58
346.37	213.70
346.75	213.80
347.13	213.87
347.52	213.93
347.90	214.11
348.28	214.15
348.66	214.23
349.05	214.21
349.43	214.30
349.81	214.36
350.19	214.46
350.57	214.58
350.96	214.68
351.34	214.79
351.72	214.89
352.10	214.99
352.48	215.09
352.87	215.12
353.25	215.21
353.63	215.25
354.01	215.30
354.39	215.37
354.77	215.47
355.15	215.59
355.54	215.63
355.92	215.59
356.30	215.67
356.68	215.84
357.06	215.93
357.44	215.92
357.82	215.99
358.20	216.05
358.58	216.11
358.97	216.18
359.35	216.29
359.73	216.36
360.11	216.39
360.49	216.43
360.87	216.46
361.25	216.47
361.63	216.57
362.01	216.62
362.39	216.62
362.77	216.63
363.15	216.62
363.53	216.65
363.91	216.65
364.29	216.64
364.67	216.47
365.05	216.47
365.43	216.50
365.81	216.54
366.19	216.61
366.57	216.64
366.95	216.60
367.33	216.53
367.71	216.52
368.09	216.54
368.47	216.51
368.85	216.47
369.23	216.51
369.61	216.41
369.99	216.46
370.37	216.51
370.75	216.59
371.13	216.49
371.51	216.45
371.89	216.46
372.27	216.45
372.65	216.42
373.03	216.36
373.41	216.31
373.78	216.25
374.16	216.10
374.54	215.99
374.92	215.98
375.30	215.93
375.68	215.87
376.06	215.80
376.44	215.80
376.82	215.79
377.19	215.76
377.57	215.74
377.95	215.60
378.33	215.52
378.71	215.39
379.09	215.42
379.47	215.35
379.84	215.30
380.22	215.20
380.60	215.14
380.98	215.11
381.36	215.06
381.73	214.98
382.11	214.99
382.49	215.02
382.87	214.90
383.25	214.90
383.62	215.10
384.00	215.08
384.38	215.01
384.76	215.02
385.13	215.04
385.51	215.02
385.89	214.99
386.27	214.97
386.64	214.94
387.02	214.89
387.40	214.86
387.78	214.84
388.15	214.88
388.53	214.87
388.91	214.82
389.29	214.76
389.66	214.79
390.04	214.75
390.42	214.73
390.79	214.75
391.17	214.74
391.55	214.48
391.92	214.45
392.30	214.47
392.68	214.41
393.05	214.40
393.43	214.38
393.81	214.39
394.18	214.37
394.56	214.37
394.94	214.42
395.31	214.46
395.69	214.56
396.06	214.59
396.44	214.61
396.82	214.67
397.19	214.85
397.57	214.89
397.95	214.94
398.32	214.94
398.70	215.02
399.07	215.06
399.45	215.13
399.82	215.19
400.20	215.24
400.58	215.32
400.95	215.27
401.33	215.41
401.70	215.66
402.08	215.75
402.45	215.89
402.83	216.04
403.20	216.14
403.58	216.20
403.95	216.36
404.33	216.52
404.71	216.65
405.08	216.90
405.46	217.04
405.83	217.25
406.21	217.44
406.58	217.69
406.96	217.95
407.33	218.21
407.70	218.51
408.08	218.99
408.45	219.32
408.83	219.74
409.20	220.09
409.58	220.31
409.95	220.76
410.33	221.23
410.70	221.66
411.08	222.22
411.45	222.81
411.82	223.39
412.20	224.09
412.57	224.96
412.95	225.54
413.32	226.35
413.69	227.18
414.07	228.09
414.44	229.08
414.82	230.08
415.19	231.28
415.56	232.48
415.94	233.68
416.31	235.11
416.68	236.57
417.06	238.18
417.43	239.80
417.81	241.55
418.18	243.35
418.55	245.30
418.93	247.36
419.30	249.46
419.67	251.69
420.04	253.95
420.42	256.35
420.79	259.21
421.16	262.05
421.54	264.96
421.91	268.01
422.28	271.13
422.66	274.42
423.03	277.69
423.40	281.05
423.77	284.63
424.15	288.31
424.52	292.12
424.89	296.30
425.26	300.36
425.64	304.30
426.01	308.61
426.38	313.10
426.75	317.66
427.13	322.42
427.50	327.42
427.87	332.65
428.24	337.83
428.61	342.77
428.99	348.31
429.36	354.34
429.73	360.20
430.10	366.13
430.47	372.21
430.85	378.58
431.22	385.32
431.59	392.49
431.96	399.38
432.33	406.92
432.70	414.21
433.08	422.81
433.45	430.91
433.82	438.98
434.19	447.92
434.56	456.60
434.93	464.98
435.30	473.29
435.68	482.46
436.05	491.53
436.42	500.54
436.79	508.73
437.16	517.59
437.53	526.95
437.90	536.07
438.27	545.09
438.64	554.30
439.01	562.91
439.38	570.57
439.75	577.94
440.13	586.48
440.50	594.48
440.87	600.93
441.24	607.59
441.61	614.91
441.98	620.37
442.35	626.82
442.72	633.23
443.09	639.41
443.46	643.12
443.83	645.69
444.20	647.91
444.57	651.11
444.94	652.62
445.31	654.08
445.68	655.57
446.05	656.21
446.42	655.50
446.79	654.58
447.16	653.48
447.53	652.70
447.90	649.24
448.27	645.99
448.64	641.35
449.01	638.01
449.37	632.15
449.74	626.42
450.11	619.49
450.48	612.06
450.85	604.51
451.22	598.10
451.59	591.85
451.96	586.02
452.33	578.10
452.70	570.95
453.07	562.44
453.43	553.75
453.80	545.46
454.17	537.39
454.54	529.78
454.91	521.55
455.28	513.55
455.65	506.16
456.02	498.57
456.38	492.16
456.75	484.22
457.12	477.54
457.49	470.96
457.86	464.65
458.23	459.18
458.59	453.20
458.96	447.09
459.33	441.79
459.70	436.37
460.07	432.07
460.43	427.08
460.80	422.41
461.17	418.35
461.54	414.05
461.91	409.98
462.27	405.84
462.64	402.40
463.01	398.54
463.38	394.80
463.74	391.09
464.11	387.78
464.48	384.97
464.85	381.85
465.21	379.40
465.58	376.79
465.95	373.64
466.32	371.01
466.68	368.42
467.05	365.81
467.42	363.25
467.78	360.53
468.15	358.00
468.52	356.11
468.88	353.62
469.25	351.42
469.62	349.61
469.98	347.62
470.35	345.76
470.72	344.06
471.08	342.25
471.45	340.70
471.82	339.19
472.18	337.49
472.55	336.31
472.92	334.90
473.28	333.68
473.65	332.52
474.02	331.42
474.38	330.54
474.75	329.75
475.11	328.86
475.48	328.27
475.85	327.78
476.21	327.33
476.58	327.01
476.94	326.71
477.31	326.40
477.67	326.11
478.04	325.96
478.41	325.92
478.77	326.01
479.14	325.97
479.50	326.09
479.87	326.37
480.23	326.66
480.60	326.93
480.96	327.22
481.33	327.77
481.69	328.29
482.06	328.78
482.42	329.30
482.79	329.90
483.15	330.69
483.52	331.61
483.88	332.43
484.25	333.34
484.61	334.40
484.98	335.44
485.34	336.77
485.71	338.14
486.07	339.57
486.44	340.96
486.80	342.56
487.17	344.25
487.53	346.06
487.90	347.96
488.26	349.99
488.62	352.17
488.99	354.26
489.35	356.41
489.72	358.78
490.08	361.29
490.44	363.86
490.81	366.54
491.17	369.27
491.54	372.23
491.90	375.27
492.26	378.47
492.63	381.85
492.99	385.26
493.36	388.88
493.72	392.75
494.08	396.70
494.45	400.93
494.81	405.27
495.17	409.71
495.54	414.36
495.90	419.12
496.26	423.98
496.63	429.13
496.99	434.56
497.35	440.14
497.72	445.93
498.08	451.88
498.44	457.96
498.80	464.35
499.17	470.88
499.53	477.57
499.89	484.50
500.26	491.47
500.62	498.55
500.98	506.01
501.34	513.40
501.71	521.21
502.07	529.01
502.43	536.95
502.79	545.06
503.16	553.46
503.52	562.07
503.88	570.80
504.24	579.69
504.60	588.73
504.97	597.96
505.33	607.22
505.69	617.01
506.05	626.91
506.41	636.80
506.78	646.77
507.14	656.99
507.50	667.41
507.86	678.12
508.22	688.94
508.59	699.48
508.95	710.45
509.31	721.57
509.67	733.05
510.03	744.39
510.39	756.02
510.75	767.79
511.12	779.61
511.48	791.56
511.84	803.80
512.20	816.05
512.56	828.58
512.92	841.34
513.28	853.85
513.64	866.47
514.00	879.28
514.37	892.24
514.73	905.33
515.09	918.33
515.45	931.23
515.81	944.23
516.17	957.66
516.53	970.99
516.89	984.01
517.25	997.10
517.61	1010.66
517.97	1024.18
518.33	1037.34
518.69	1050.91
519.05	1064.81
519.41	1078.51
519.77	1092.47
520.13	1105.75
520.49	1118.92
520.85	1132.37
521.21	1145.64
521.57	1159.27
521.93	1172.29
522.29	1185.98
522.65	1199.55
523.01	1213.11
523.37	1226.25
523.73	1239.62
524.09	1252.74
524.45	1266.32
524.81	1279.79
525.17	1293.20
525.53	1306.42
525.89	1319.70
526.25	1332.85
526.61	1345.53
526.97	1358.65
527.33	1371.61
527.68	1385.14
528.04	1398.68
528.40	1411.77
528.76	1425.34
529.12	1438.25
529.48	1451.75
529.84	1464.07
530.20	1477.04
530.56	1489.68
530.91	1503.09
531.27	1515.89
531.63	1528.54
531.99	1541.40
532.35	1553.74
532.71	1566.24
533.07	1579.16
533.42	1591.47
533.78	1603.68
534.14	1615.82
534.50	1627.13
534.86	1638.63
535.21	1649.68
535.57	1661.24
535.93	1672.65
536.29	1683.72
536.65	1695.24
537.00	1706.15
537.36	1717.63
537.72	1728.48
538.08	1740.02
538.44	1751.01
538.79	1762.26
539.15	1773.56
539.51	1784.33
539.87	1795.72
540.22	1806.68
540.58	1817.73
540.94	1828.94
541.29	1839.18
541.65	1849.12
542.01	1859.64
542.37	1869.89
542.72	1879.96
543.08	1889.71
543.44	1900.24
543.79	1909.64
544.15	1919.19
544.51	1929.25
544.87	1939.08
545.22	1948.48
545.58	1957.44
545.94	1966.42
546.29	1975.05
546.65	1983.33
547.01	1991.68
547.36	1999.40
547.72	2007.04
548.07	2014.54
548.43	2022.14
548.79	2030.16
549.14	2038.31
549.50	2046.86
549.86	2054.79
550.21	2062.43
550.57	2070.25
550.92	2077.14
551.28	2084.61
551.64	2091.78
551.99	2099.23
552.35	2106.54
552.70	2113.22
553.06	2119.74
553.41	2125.88
553.77	2132.24
554.13	2138.74
554.48	2145.81
554.84	2152.93
555.19	2159.58
555.55	2166.01
555.90	2172.27
556.26	2179.08
556.61	2185.20
556.97	2189.96
557.32	2195.66
557.68	2202.05
558.03	2207.85
558.39	2213.20
558.74	2219.22
559.10	2224.76
559.45	2230.39
559.81	2235.86
560.16	2241.46
560.52	2247.44
560.87	2253.93
561.23	2259.87
561.58	2266.34
561.94	2271.44
562.29	2275.84
562.64	2281.83
563.00	2287.36
563.35	2292.89
563.71	2298.42
564.06	2304.04
564.42	2310.04
564.77	2315.06
565.12	2320.08
565.48	2324.92
565.83	2330.24
566.19	2335.22
566.54	2340.56
566.89	2345.02
567.25	2349.47
567.60	2355.02
567.96	2360.03
568.31	2364.39
568.66	2368.48
569.02	2372.19
569.37	2375.70
569.72	2380.36
570.08	2383.65
570.43	2386.85
570.78	2389.92
571.14	2392.31
571.49	2395.29
571.84	2398.59
572.20	2401.52
572.55	2404.35
572.90	2406.63
573.26	2409.26
573.61	2411.84
573.96	2413.85
574.31	2415.67
574.67	2417.52
575.02	2418.07
575.37	2419.42
575.72	2419.95
576.08	2421.33
576.43	2421.41
576.78	2421.87
577.13	2423.05
577.49	2424.04
577.84	2424.82
578.19	2425.80
578.54	2426.16
578.90	2426.53
579.25	2426.27
579.60	2425.82
579.95	2424.79
580.30	2424.60
580.66	2423.74
581.01	2421.95
581.36	2419.27
581.71	2417.74
582.06	2416.27
582.42	2415.38
582.77	2412.85
583.12	2410.97
583.47	2409.27
583.82	2408.44
584.17	2406.93
584.53	2404.61
584.88	2402.28
585.23	2400.09
585.58	2397.61
585.93	2395.63
586.28	2393.40
586.63	2390.64
586.98	2388.28
587.34	2386.22
587.69	2383.47
588.04	2381.11
588.39	2379.50
588.74	2376.96
589.09	2374.07
589.44	2370.78
589.79	2367.91
590.14	2365.69
590.49	2362.70
590.84	2358.71
591.19	2355.32
591.54	2351.98
591.89	2347.89
592.25	2344.60
592.60	2340.22
592.95	2335.97
593.30	2331.59
593.65	2326.96
594.00	2322.34
594.35	2319.20
594.70	2314.57
595.05	2310.16
595.40	2304.82
595.75	2298.86
596.10	2295.13
596.45	2290.16
596.80	2285.43
597.15	2280.30
597.50	2274.39
597.85	2269.52
598.19	2264.31
598.54	2258.60
598.89	2253.14
599.24	2248.36
599.59	2242.00
599.94	2236.11
600.29	2230.08
600.64	2224.12
600.99	2217.22
601.34	2211.77
601.69	2204.64
602.04	2198.26
602.39	2191.52
602.74	2185.32
603.08	2179.97
603.43	2173.35
603.78	2166.40
604.13	2159.38
604.48	2152.03
604.83	2145.80
605.18	2139.51
605.53	2132.70
605.87	2125.64
606.22	2119.02
606.57	2111.25
606.92	2103.40
607.27	2096.52
607.62	2089.91
607.96	2082.92
608.31	2076.72
608.66	2069.08
609.01	2061.62
609.36	2054.38
609.70	2046.59
610.05	2038.81
610.40	2030.36
610.75	2022.01
611.10	2014.41
611.44	2005.45
611.79	1996.84
612.14	1987.04
612.49	1976.43
612.83	1966.95
613.18	1957.76
613.53	1948.43
613.88	1938.70
614.22	1930.06
614.57	1920.25
614.92	1909.66
615.27	1899.42
615.61	1889.13
615.96	1879.46
616.31	1869.95
616.65	1860.58
617.00	1851.12
617.35	1841.49
617.70	1831.82
618.04	1822.16
618.39	1812.24
618.74	1802.70
619.08	1793.16
619.43	1784.54
619.78	1776.24
620.12	1767.78
620.47	1758.22
620.82	1747.92
621.16	1738.32
621.51	1728.63
621.85	1718.96
622.20	1708.86
622.55	1698.46
622.89	1688.63
623.24	1679.03
623.59	1669.24
623.93	1659.18
624.28	1649.38
624.62	1639.43
624.97	1629.38
625.32	1619.46
625.66	1610.50
626.01	1601.86
626.35	1592.66
626.70	1582.73
627.04	1573.03
627.39	1562.89
627.73	1553.85
628.08	1545.10
628.43	1535.74
628.77	1526.58
629.12	1517.67
629.46	1509.95
629.81	1501.81
630.15	1492.53
630.50	1482.77
630.84	1472.40
631.19	1462.62
631.53	1453.51
631.88	1443.56
632.22	1433.57
632.57	1424.48
632.91	1414.64
633.26	1404.91
633.60	1395.36
633.95	1386.21
634.29	1376.70
634.64	1367.63
634.98	1357.74
635.32	1348.54
635.67	1340.21
636.01	1331.04
636.36	1321.60
636.70	1312.15
637.05	1302.84
637.39	1294.05
637.73	1285.65
638.08	1278.25
638.42	1270.25
638.77	1261.52
639.11	1253.30
639.45	1245.73
639.80	1237.25
640.14	1228.46
640.49	1219.71
640.83	1210.98
641.17	1202.77
641.52	1194.75
641.86	1186.21
642.20	1178.47
642.55	1169.95
642.89	1161.09
643.23	1152.62
643.58	1144.54
643.92	1135.66
644.26	1127.04
644.61	1118.71
644.95	1109.95
645.29	1100.85
645.64	1091.77
645.98	1083.29
646.32	1075.52
646.66	1067.02
647.01	1058.83
647.35	1050.89
647.69	1042.72
648.04	1034.58
648.38	1025.90
648.72	1017.22
649.06	1008.91
649.41	1000.70
649.75	992.91
650.09	985.17
650.43	977.19
650.78	968.94
651.12	961.26
651.46	953.86
651.80	946.63
652.14	939.41
652.49	931.96
652.83	924.79
653.17	917.18
653.51	909.57
653.85	902.40
654.20	895.26
654.54	887.84
654.88	880.70
655.22	873.47
655.56	866.46
655.90	859.71
656.25	853.04
656.59	846.20
656.93	839.19
657.27	832.11
657.61	825.12
657.95	819.11
658.29	813.19
658.64	807.20
658.98	800.77
659.32	794.30
659.66	788.04
660.00	781.76
660.34	775.83
660.68	769.78
661.02	763.48
661.36	757.46
661.70	751.74
662.05	746.13
662.39	740.76
662.73	735.50
663.07	730.15
663.41	724.60
663.75	718.98
664.09	713.32
664.43	707.87
664.77	702.58
665.11	696.78
665.45	690.81
665.79	684.98
666.13	679.36
666.47	673.90
666.81	668.50
667.15	663.04
667.49	657.89
667.83	652.61
668.17	647.35
668.51	642.24
668.85	637.19
669.19	632.25
669.53	627.16
669.87	621.96
670.21	617.22
670.55	612.52
670.89	608.03
671.23	603.68
671.57	599.37
671.91	595.09
672.25	590.91
672.58	586.93
672.92	582.88
673.26	578.95
673.60	575.10
673.94	571.31
674.28	567.70
674.62	563.90
674.96	560.15
675.30	556.69
675.64	553.03
675.97	549.42
676.31	545.77
676.65	542.19
676.99	538.84
677.33	534.98
677.67	531.33
678.01	527.46
678.34	523.83
678.68	520.29
679.02	516.72
679.36	513.02
679.70	509.31
680.04	505.74
680.37	502.23
680.71	498.85
681.05	495.63
681.39	492.34
681.73	489.14
682.06	486.13
682.40	483.01
682.74	479.83
683.08	476.61
683.42	473.41
683.75	470.34
684.09	467.26
684.43	464.46
684.77	461.56
685.10	458.74
685.44	455.82
685.78	452.82
686.12	449.99
686.45	447.22
686.79	444.49
687.13	441.95
687.46	439.30
687.80	436.66
688.14	433.77
688.48	431.14
688.81	428.44
689.15	425.81
689.49	423.17
689.82	420.56
690.16	417.95
690.50	415.48
690.83	413.03
691.17	410.44
691.51	407.86
691.84	405.50
692.18	403.26
692.52	401.04
692.85	398.85
693.19	396.66
693.52	394.51
693.86	392.28
694.20	389.99
694.53	387.87
694.87	385.63
695.21	383.49
695.54	381.27
695.88	379.11
696.21	376.90
696.55	374.75
696.88	372.72
697.22	370.77
697.56	368.83
697.89	366.92
698.23	365.17
698.56	363.37
698.90	361.60
699.23	359.65
699.57	357.73
699.90	355.86
700.24	354.03
700.58	352.28
700.91	350.59
701.25	349.05
701.58	347.37
701.92	345.75
702.25	344.13
702.59	342.49
702.92	340.88
703.26	339.32
703.59	337.83
703.93	336.52
704.26	335.04
704.60	333.53
704.93	332.01
705.26	330.49
705.60	329.02
705.93	327.46
706.27	326.12
706.60	324.86
706.94	323.62
707.27	322.23
707.61	320.85
707.94	319.51
708.27	317.95
708.61	316.52
708.94	315.15
709.28	313.86
709.61	312.58
709.94	311.41
710.28	310.19
710.61	308.95
710.95	307.50
711.28	306.40
711.61	305.18
711.95	304.02
712.28	302.80
712.61	301.56
712.95	300.52
713.28	299.48
713.61	298.26
713.95	297.12
714.28	296.10
714.61	295.03
714.95	293.97
715.28	292.98
715.61	291.96
715.95	290.97
716.28	289.98
716.61	289.05
716.95	288.02
717.28	287.05
717.61	286.06
717.94	285.15
718.28	284.10
718.61	283.25
718.94	282.33
719.27	281.49
719.61	280.67
719.94	279.74
720.27	278.76
720.60	277.91
720.94	277.09
721.27	276.34
721.60	275.65
721.93	274.92
722.27	274.24
722.60	273.56
722.93	272.85
723.26	272.17
723.59	271.44
723.93	270.80
724.26	270.14
724.59	269.50
724.92	268.89
725.25	268.39
725.59	267.82
725.92	267.28
726.25	266.69
726.58	266.11
726.91	265.54
727.24	264.99
727.57	264.42
727.91	263.78
728.24	263.18
728.57	262.57
728.90	261.97
729.23	261.37
729.56	260.92
729.89	260.33
730.22	259.75
730.55	259.19
730.89	258.64
731.22	258.11
731.55	257.63
731.88	257.08
732.21	256.52
732.54	255.94
732.87	255.42
733.20	254.94
733.53	254.48
733.86	254.01
734.19	253.48
734.52	253.05
734.85	252.76
735.18	252.29
735.51	251.89
735.84	251.50
736.17	251.07
736.50	250.53
736.83	250.38
737.16	250.00
737.49	249.63
737.82	249.21
738.15	248.85
738.48	248.42
738.81	248.04
739.14	247.64
739.47	247.25
739.80	246.84
740.13	246.47
740.46	246.06
740.79	245.66
741.12	245.30
741.45	244.95
741.78	244.48
742.11	244.24
742.44	243.85
742.77	243.55
743.10	243.22
743.43	242.86
743.75	242.25
744.08	242.16
744.41	241.77
744.74	241.41
745.07	240.99
745.40	240.70
745.73	240.41
746.06	240.03
746.39	239.73
746.71	239.41
747.04	239.04
747.37	238.70
747.70	238.40
748.03	238.14
748.36	237.82
748.68	237.51
749.01	237.11
749.34	236.82
749.67	236.48
750.00	236.17
750.33	236.04
750.65	235.83
750.98	235.30
751.31	235.04
751.64	234.82
751.97	234.71
752.29	234.41
752.62	234.11
752.95	233.87
753.28	233.59
753.60	233.36
753.93	233.21
754.26	232.98
754.59	232.70
754.91	232.46
755.24	232.23
755.57	231.98
755.90	231.76
756.22	231.49
756.55	231.22
756.88	231.01
757.20	230.67
757.53	230.40
757.86	230.17
758.19	230.00
758.51	229.75
758.84	229.44
759.17	229.27
759.49	229.09
759.82	228.99
760.15	228.83
760.47	228.63
760.80	228.38
761.13	228.21
761.45	228.03
761.78	227.80
762.11	227.61
762.43	227.45
762.76	227.27
763.08	227.16
763.41	227.02
763.74	226.86
764.06	226.73
764.39	226.56
764.71	226.42
765.04	226.25
765.37	226.14
765.69	225.99
766.02	225.86
766.34	225.71
766.67	225.49
767.00	225.38
767.32	225.36
767.65	225.34
767.97	225.24
768.30	225.11
768.62	225.00
768.95	224.87
769.27	224.75
769.60	224.66
769.92	224.49
770.25	224.38
770.57	224.22
770.90	224.07
771.22	223.93
771.55	223.82
771.87	223.73
772.20	223.58
772.52	223.65
772.85	223.81
773.17	223.71
773.50	223.59
773.82	223.47
774.15	223.31
774.47	223.11
774.80	222.97
775.12	222.90
775.45	222.81
775.77	222.73
776.09	222.67
776.42	222.56
776.74	222.53
777.07	222.42
777.39	222.33
777.72	222.22
778.04	222.16
778.36	222.03
778.69	221.95
779.01	221.88
779.33	221.61
779.66	221.22
779.98	221.12
780.31	221.04
780.63	221.03
780.95	220.96
781.28	220.84
781.60	220.77
781.92	220.68
782.25	220.61
782.57	220.53
782.89	220.43
783.22	220.36
783.54	220.24
783.86	220.22
784.19	220.15
784.51	220.17
784.83	220.10
785.16	220.06
785.48	219.97
785.80	219.91
786.12	219.87
786.45	219.83
786.77	219.80
787.09	219.74
787.42	219.59
787.74	219.51
788.06	219.47
788.38	219.38
788.71	219.32
789.03	219.27
789.35	219.23
789.67	219.11
789.99	219.09
790.32	219.01
790.64	218.97
790.96	219.11
791.28	218.97
791.61	218.91
791.93	218.88
792.25	218.83
792.57	218.93
792.89	218.83
793.21	218.79
793.54	218.70
793.86	218.65
794.18	218.61
794.50	218.54
794.82	218.49
795.14	218.46
795.47	218.46
795.79	218.41
796.11	218.31
796.43	218.29
796.75	218.24
797.07	218.22
797.39	218.14
797.71	217.91
798.04	217.88
798.36	217.87
798.68	217.80
799.00	217.78
799.32	217.65
799.64	217.64
799.96	217.57
800.28	217.55
800.60	217.53
800.92	217.53
801.24	217.51
801.56	217.46
801.89	217.45
802.21	217.41
802.53	217.34
802.85	217.36
803.17	217.41
803.49	217.32
803.81	217.26
804.13	217.23
804.45	217.18
804.77	217.19
805.09	217.14
805.41	217.10
805.73	217.05
806.05	216.95
806.37	216.89
806.69	216.89
807.01	216.87
807.33	216.82
807.65	216.73
807.97	216.79
808.28	216.77
808.60	216.75
808.92	216.69
809.24	216.80
809.56	216.71
809.88	216.61
810.20	216.62
810.52	216.64
810.84	216.57
811.16	216.52
811.48	216.44
811.80	216.50
812.12	216.47
812.43	216.47
812.75	216.47
813.07	216.44
813.39	216.41
813.71	216.35
814.03	216.30
814.35	216.30
814.67	216.16
814.98	216.11
815.30	216.05
815.62	216.01
815.94	215.84
816.26	215.86
816.58	215.82
816.89	215.82
817.21	215.75
817.53	215.77
817.85	215.78
818.17	215.78
818.48	215.66
818.80	215.70
819.12	215.66
819.44	215.59
819.76	215.56
820.07	215.55
820.39	215.55
820.71	215.58
821.03	215.54
821.34	215.52
821.66	215.56
821.98	215.60
822.30	215.59
822.61	215.72
822.93	215.67
823.25	215.66
823.57	215.63
823.88	215.65
824.20	215.61
824.52	215.60
824.83	215.58
825.15	215.55
825.47	215.52
825.79	215.51
826.10	215.52
826.42	215.49
826.74	215.50
827.05	215.45
827.37	215.42
827.69	215.39
828.00	215.38
828.32	215.32
828.64	215.26
828.95	215.32
829.27	215.24
829.58	215.22
829.90	215.24
830.22	215.23
830.53	215.17
830.85	215.15
831.17	215.10
831.48	215.08
831.80	215.08
832.11	215.10
832.43	215.07
832.75	215.00
833.06	215.12
833.38	215.00
833.69	215.01
834.01	214.98
834.32	214.97
834.64	214.96
834.96	214.96
835.27	214.95
835.59	214.89
835.90	214.84
836.22	214.84
836.53	214.79
836.85	214.74
837.16	214.95
837.48	214.94
837.79	214.97
838.11	215.00
838.42	215.00
838.74	214.95
839.05	214.93
839.37	214.98
839.68	214.84
840.00	214.85
840.31	214.88
840.63	214.89
840.94	214.88
841.26	214.85
841.57	214.83
841.88	214.84
842.20	214.81
842.51	214.79
842.83	214.78
843.14	214.98
843.46	215.00
843.77	214.91
844.08	214.90
844.40	214.86
844.71	214.80
845.03	214.78
845.34	214.82
845.65	214.82
845.97	214.78
846.28	214.85
846.60	214.85
846.91	214.80
847.22	214.79
847.54	214.83
847.85	214.85
848.16	214.85
848.48	214.81
848.79	214.88
849.10	214.91
849.42	214.92
849.73	214.71
850.04	214.69
850.36	214.58
850.67	214.63
850.98	214.64
851.30	214.66
851.61	214.68
851.92	214.59
852.23	214.64
852.55	214.68
852.86	214.62
853.17	214.63
853.49	214.67
853.80	214.71
854.11	214.73
854.42	214.77
854.74	214.76
855.05	214.76
855.36	214.62
855.67	214.64
855.99	214.61
856.30	214.85
856.61	214.84
856.92	214.85
857.23	214.81
857.55	214.80
857.86	214.78
858.17	214.80
858.48	214.77
858.79	214.74
859.11	214.73
859.42	214.74
859.73	214.73
860.04	214.72
860.35	214.63
860.66	214.54
860.98	214.51
861.29	214.53
861.60	214.50
861.91	214.52
862.22	214.46
862.53	214.40
862.84	214.15
863.16	214.20
863.47	214.15
863.78	214.15
864.09	214.13
864.40	214.14
864.71	214.10
865.02	214.14
865.33	214.09
865.64	214.07
865.95	214.03
866.27	214.18
866.58	214.14
866.89	214.17
867.20	214.17
867.51	214.11
867.82	214.08
868.13	214.15
868.44	214.15
868.75	214.20
869.06	214.22
869.37	214.24
869.68	214.16
869.99	214.16
870.30	214.18
870.61	214.24
870.92	214.19
871.23	214.17
871.54	214.18
871.85	214.23
872.16	214.25
872.47	214.26
872.78	214.11
873.09	214.13
873.40	214.11
873.71	214.14
874.02	214.16
874.33	214.15
874.64	214.13
874.95	214.15
875.26	214.10
875.56	214.13
875.87	214.11
876.18	214.09
876.49	214.31
876.80	214.26
877.11	214.19
877.42	214.22
877.73	214.23
878.04	214.19
878.35	214.19
878.66	214.17
878.96	214.17
879.27	214.15
879.58	214.14
879.89	214.13
880.20	214.18
880.51	214.13
880.82	214.10
881.12	214.12
881.43	214.04
881.74	214.02
882.05	213.99
882.36	214.04
882.67	214.06
882.97	213.86
883.28	213.86
883.59	213.87
883.90	213.87
884.21	213.90
884.51	213.91
884.82	213.89
885.13	213.85
885.44	213.87
885.74	213.86
886.05	213.83
886.36	213.85
886.67	213.78
886.98	213.91
887.28	213.95
887.59	213.94
887.90	213.96
888.20	214.01
888.51	214.04
888.82	214.00
889.13	214.04
889.43	214.19
889.74	214.17
890.05	214.15
890.35	214.12
890.66	214.05
890.97	214.01
891.28	213.99
891.58	214.00
891.89	214.00
892.20	213.98
892.50	213.98
892.81	213.94
893.12	213.95
893.42	213.86
893.73	213.87
894.04	213.85
894.34	213.87
894.65	213.81
894.95	213.80
895.26	213.79
895.57	213.90
895.87	213.72
896.18	213.77
896.48	213.82
896.79	213.80
897.10	213.85
897.40	213.88
897.71	213.93
898.01	213.90
898.32	213.90
898.63	213.90
898.93	213.94
899.24	213.97
899.54	213.97
899.85	213.95
900.15	213.90
900.46	213.90
900.76	213.91
901.07	213.92
901.38	213.91
901.68	213.94
901.99	213.78
902.29	213.78
902.60	213.78
902.90	213.75
903.21	213.82
903.51	213.81
903.82	213.86
904.12	213.83
904.43	213.87
904.73	213.85
905.03	213.88
905.34	214.04
905.64	214.02
905.95	214.01
906.25	214.02
906.56	214.02
906.86	214.05
907.17	214.05
907.47	214.06
907.77	214.06
908.08	214.01
908.38	214.06
908.69	214.09
908.99	214.09
909.30	214.11
909.60	214.05
909.90	214.08
910.21	214.02
910.51	213.99
910.81	214.00
911.12	214.01
911.42	214.03
911.73	213.86
912.03	213.86
912.33	213.90
912.64	213.92
912.94	213.93
913.24	213.89
913.55	213.88
913.85	213.83
914.15	213.88
914.46	213.93
914.76	213.89
915.06	213.85
915.37	213.85
915.67	213.83
915.97	213.83
916.27	213.77
916.58	213.79
916.88	213.81
917.18	213.76
917.49	213.91
917.79	213.89
918.09	213.90
918.39	213.96
918.70	213.94
919.00	213.93
919.30	214.02
919.60	214.01
919.91	213.99
920.21	214.02
920.51	213.97
920.81	213.92
921.12	213.95
921.42	213.94
921.72	213.92
922.02	213.92
922.32	213.94
922.63	213.95
922.93	214.05
923.23	214.03
923.53	214.02
923.83	213.88
924.13	213.89
924.44	213.89
924.74	213.89
925.04	213.91
925.34	213.89
925.64	213.82
925.94	213.83
926.24	213.92
926.55	213.89
926.85	213.93
927.15	213.95
927.45	213.99
927.75	213.99
928.05	214.00
928.35	214.00
928.65	214.04
928.95	214.05
929.26	213.95
929.56	213.98
929.86	214.02
930.16	214.01
930.46	213.97
930.76	213.96
931.06	213.86
931.36	213.83
931.66	213.89
931.96	213.88
932.26	213.90
932.56	213.83
932.86	213.87
933.16	213.82
933.46	213.79
933.76	213.76
934.06	213.83
934.36	213.93
934.66	213.90
934.96	213.86
935.26	213.88
935.56	213.91
935.86	213.89
936.16	213.85
936.46	213.84
936.76	213.86
937.06	213.84
937.36	213.90
937.66	213.91
937.96	213.88
938.26	213.81
938.56	213.75
938.86	213.75
939.16	213.78
939.46	213.82
939.76	213.82
940.06	213.80
940.35	213.72
940.65	213.57
940.95	213.59
941.25	213.56
941.55	213.54
941.85	213.53
942.15	213.56
942.45	213.61
942.75	213.58
943.04	213.60
943.34	213.63
943.64	213.60
943.94	213.56
944.24	213.59
944.54	213.63
944.84	213.64
945.13	213.60
945.43	213.54
945.73	213.51
946.03	213.49
946.33	213.49
946.62	213.51
946.92	213.50
947.22	213.51
947.52	213.53
947.82	213.57
948.11	213.49
948.41	213.48
948.71	213.44
949.01	213.45
949.31	213.43
949.60	213.39
949.90	213.39
950.20	213.35
950.50	213.31
950.79	213.29
951.09	213.33
951.39	213.33
951.69	213.33
951.98	213.39
952.28	213.40
952.58	213.37
952.87	213.36
953.17	213.39
953.47	213.37
953.76	213.35
954.06	213.29
954.36	213.32
954.66	213.28
954.95	213.34
955.25	213.35
955.55	213.35
955.84	213.33
956.14	213.37
956.44	213.41
956.73	213.44
957.03	213.46
957.32	213.48
957.62	213.48
957.92	213.52
958.21	213.48
958.51	213.73
958.81	213.78
959.10	213.82
959.40	213.86
959.69	213.86
959.99	213.90
960.29	213.92
960.58	213.90
960.88	213.98
961.17	213.94
961.47	213.96
961.76	213.95
962.06	214.01
962.36	213.97
962.65	213.96
962.95	213.96
963.24	213.96
963.54	213.94
963.83	213.98
964.13	213.96
964.42	213.92
964.72	213.73
965.01	213.73
965.31	213.70
965.60	213.63
965.90	213.78
966.19	213.74
966.49	213.74
966.78	213.74
967.08	213.70
967.37	213.70
967.67	213.68
967.96	213.76
968.26	213.73
968.55	213.76
968.85	213.76
969.14	213.73
969.43	213.73
969.73	213.70
970.02	213.68
970.32	213.67
970.61	213.67
970.91	213.65
971.20	213.59
971.49	213.58
971.79	213.64
972.08	213.48
972.38	213.50
972.67	213.50
972.96	213.53
973.26	213.47
973.55	213.56
973.85	213.54
974.14	213.45
974.43	213.52
974.73	213.46
975.02	213.44
975.31	213.44
975.61	213.42
975.90	213.43
976.19	213.40
976.49	213.41
976.78	213.43
977.07	213.41
977.37	213.42
977.66	213.44
977.95	213.40
978.24	213.44
978.54	213.45
978.83	213.46
979.12	213.46
979.42	213.48
979.71	213.43
980.00	213.41
980.29	213.46
980.59	213.39
980.88	213.48
981.17	213.48
981.46	213.48
981.76	213.47
982.05	213.54
982.34	213.58
982.63	213.58
982.93	213.61
983.22	213.64
983.51	213.62
983.80	213.63
984.09	213.66
984.39	213.63
984.68	213.59
984.97	213.58
985.26	213.53
985.55	213.55
985.85	213.51
986.14	213.56
986.43	213.60
986.72	213.58
987.01	213.52
987.30	213.52
987.59	213.50
987.89	213.52
988.18	213.45
988.47	213.44
988.76	213.43
989.05	213.39
989.34	213.41
989.63	213.49
989.92	213.47
990.22	213.45
990.51	213.46
990.80	213.46
991.09	213.48
991.38	213.55
991.67	213.52
991.96	213.52
992.25	213.53
992.54	213.46
992.83	213.50
993.12	213.49
993.41	213.52
993.70	213.61
993.99	213.66
994.28	213.70
994.58	213.71
994.87	213.69
995.16	213.69
995.45	213.63
995.74	213.57
996.03	213.61
996.32	213.64
996.61	213.67
996.90	213.68
997.19	213.65
997.48	213.63
997.77	213.59
998.06	213.60
998.34	213.54
998.63	213.51
998.92	213.49
999.21	213.53
999.50	213.53
999.79	213.47
1000.08	213.44
1000.37	213.41
1000.66	213.38
1000.95	213.45
1001.24	213.45
1001.53	213.48
1001.82	213.48
1002.11	213.45
1002.40	213.45
1002.68	213.49
1002.97	213.62
1003.26	213.62
1003.55	213.62
1003.84	213.65
1004.13	213.71
1004.42	213.71
1004.71	213.75
1004.99	213.74
1005.28	213.76
1005.57	213.73
1005.86	213.69
1006.15	213.67
1006.44	213.67
1006.72	213.71
1007.01	213.69
1007.30	213.67
1007.59	213.64
1007.88	213.63
1008.17	213.63
1008.45	213.62
1008.74	213.54
1009.03	213.44
1009.32	213.45
1009.60	213.42
1009.89	213.38
1010.18	213.33
1010.47	213.33
1010.76	213.31
1011.04	213.33
1011.33	213.37
1011.62	213.39
1011.91	213.40
1012.19	213.44
1012.48	213.43
1012.77	213.41
1013.05	213.45
1013.34	213.48
1013.63	213.46
1013.92	213.47
1014.20	213.47
1014.49	213.46
1014.78	213.47
1015.06	213.44
1015.35	213.44
1015.64	213.49
1015.92	213.52
1016.21	213.50
1016.50	213.52
1016.78	213.55
1017.07	213.56
1017.36	213.49
1017.64	213.46
1017.93	213.48
1018.22	213.48
1018.50	213.49
1018.79	213.51
1019.08	213.44
1019.36	213.46
1019.65	213.45
1019.93	213.49
1020.22	213.50
1020.51	213.63
1020.79	213.59
1021.08	213.97
1021.36	213.39
1021.65	213.86
1021.94	213.48
1022.22	213.45
1022.51	212.99
1022.79	214.09
1023.08	213.69
1023.36	216.18
1023.65	212.90
>>>>>End Processed Spectral Data<<<<<
