SpectraSuite Data File
++++++++++++++++++++++++++++++++++++
Date: Tue Jan 29 16:54:41 EST 2013
User: group
Dark Spectrum Present: No
Reference Spectrum Present: No
Number of Sampled Component Spectra: 1
Spectrometers: USB2E7196
Integration Time (usec): 65000 (USB2E7196)
Spectra Averaged: 100 (USB2E7196)
Boxcar Smoothing: 10 (USB2E7196)
Correct for Electrical Dark: No (USB2E7196)
Strobe/Lamp Enabled: No (USB2E7196)
Correct for Detector Non-linearity: No (USB2E7196)
Correct for Stray Light: No (USB2E7196)
Number of Pixels in Processed Spectrum: 2048
>>>>>Begin Processed Spectral Data<<<<<
339.09	0.00
339.48	201.38
339.86	203.17
340.24	204.03
340.63	205.98
341.01	210.62
341.39	208.32
341.78	210.26
342.16	211.85
342.54	211.40
342.93	200.85
343.31	211.01
343.69	211.53
344.07	212.00
344.46	212.45
344.84	212.84
345.22	213.01
345.60	213.30
345.99	213.49
346.37	213.61
346.75	213.75
347.13	213.83
347.52	213.94
347.90	214.07
348.28	214.11
348.66	214.20
349.05	214.19
349.43	214.27
349.81	214.35
350.19	214.37
350.57	214.45
350.96	214.53
351.34	214.61
351.72	214.73
352.10	214.85
352.48	214.96
352.87	214.99
353.25	215.04
353.63	215.10
354.01	215.13
354.39	215.20
354.77	215.27
355.15	215.37
355.54	215.39
355.92	215.38
356.30	215.45
356.68	215.66
357.06	215.71
357.44	215.72
357.82	215.73
358.20	215.85
358.58	215.91
358.97	215.96
359.35	216.04
359.73	216.14
360.11	216.18
360.49	216.19
360.87	216.25
361.25	216.31
361.63	216.40
362.01	216.46
362.39	216.47
362.77	216.50
363.15	216.52
363.53	216.54
363.91	216.55
364.29	216.55
364.67	216.34
365.05	216.35
365.43	216.39
365.81	216.45
366.19	216.52
366.57	216.60
366.95	216.60
367.33	216.57
367.71	216.56
368.09	216.59
368.47	216.60
368.85	216.60
369.23	216.64
369.61	216.53
369.99	216.58
370.37	216.61
370.75	216.66
371.13	216.58
371.51	216.55
371.89	216.56
372.27	216.54
372.65	216.55
373.03	216.50
373.41	216.42
373.78	216.37
374.16	216.21
374.54	216.11
374.92	216.07
375.30	216.03
375.68	215.94
376.06	215.90
376.44	215.84
376.82	215.79
377.19	215.76
377.57	215.76
377.95	215.68
378.33	215.64
378.71	215.51
379.09	215.52
379.47	215.49
379.84	215.41
380.22	215.37
380.60	215.29
380.98	215.25
381.36	215.23
381.73	215.15
382.11	215.16
382.49	215.12
382.87	215.05
383.25	215.01
383.62	215.22
384.00	215.14
384.38	215.12
384.76	215.15
385.13	215.14
385.51	215.10
385.89	215.02
386.27	214.97
386.64	214.97
387.02	214.90
387.40	214.87
387.78	214.87
388.15	214.84
388.53	214.83
388.91	214.82
389.29	214.79
389.66	214.81
390.04	214.77
390.42	214.81
390.79	214.77
391.17	214.75
391.55	214.51
391.92	214.52
392.30	214.51
392.68	214.46
393.05	214.46
393.43	214.45
393.81	214.48
394.18	214.44
394.56	214.42
394.94	214.49
395.31	214.49
395.69	214.60
396.06	214.66
396.44	214.69
396.82	214.70
397.19	214.82
397.57	214.82
397.95	214.91
398.32	214.85
398.70	214.94
399.07	215.06
399.45	215.10
399.82	215.15
400.20	215.19
400.58	215.26
400.95	215.24
401.33	215.35
401.70	215.60
402.08	215.71
402.45	215.80
402.83	215.93
403.20	216.05
403.58	216.11
403.95	216.25
404.33	216.43
404.71	216.57
405.08	216.85
405.46	217.03
405.83	217.22
406.21	217.42
406.58	217.64
406.96	217.84
407.33	218.10
407.70	218.41
408.08	218.88
408.45	219.21
408.83	219.62
409.20	219.96
409.58	220.23
409.95	220.68
410.33	221.18
410.70	221.61
411.08	222.13
411.45	222.68
411.82	223.27
412.20	223.94
412.57	224.78
412.95	225.33
413.32	226.20
413.69	227.04
414.07	227.95
414.44	228.97
414.82	229.96
415.19	231.13
415.56	232.33
415.94	233.52
416.31	234.96
416.68	236.36
417.06	237.99
417.43	239.53
417.81	241.30
418.18	243.10
418.55	245.03
418.93	247.10
419.30	249.25
419.67	251.49
420.04	253.83
420.42	256.25
420.79	259.09
421.16	261.91
421.54	264.81
421.91	267.82
422.28	270.94
422.66	274.29
423.03	277.56
423.40	280.96
423.77	284.57
424.15	288.28
424.52	292.17
424.89	296.36
425.26	300.49
425.64	304.42
426.01	308.75
426.38	313.23
426.75	317.81
427.13	322.57
427.50	327.58
427.87	332.76
428.24	337.94
428.61	343.00
428.99	348.53
429.36	354.56
429.73	360.46
430.10	366.34
430.47	372.44
430.85	378.81
431.22	385.54
431.59	392.74
431.96	399.60
432.33	407.07
432.70	414.40
433.08	422.94
433.45	431.05
433.82	439.09
434.19	448.03
434.56	456.78
434.93	465.20
435.30	473.53
435.68	482.77
436.05	491.86
436.42	500.80
436.79	509.06
437.16	517.98
437.53	527.36
437.90	536.59
438.27	545.63
438.64	554.93
439.01	563.53
439.38	571.07
439.75	578.43
440.13	586.91
440.50	594.87
440.87	601.35
441.24	608.05
441.61	615.39
441.98	620.83
442.35	627.19
442.72	633.52
443.09	639.61
443.46	643.35
443.83	645.94
444.20	648.14
444.57	651.25
444.94	652.69
445.31	654.22
445.68	655.69
446.05	656.32
446.42	655.58
446.79	654.59
447.16	653.58
447.53	652.80
447.90	649.53
448.27	646.22
448.64	641.53
449.01	638.15
449.37	632.31
449.74	626.61
450.11	619.67
450.48	612.27
450.85	604.84
451.22	598.39
451.59	592.25
451.96	586.38
452.33	578.57
452.70	571.42
453.07	562.83
453.43	554.13
453.80	545.79
454.17	537.71
454.54	530.12
454.91	521.82
455.28	513.80
455.65	506.33
456.02	498.81
456.38	492.43
456.75	484.53
457.12	477.86
457.49	471.30
457.86	465.04
458.23	459.61
458.59	453.55
458.96	447.38
459.33	441.95
459.70	436.53
460.07	432.12
460.43	427.15
460.80	422.51
461.17	418.46
461.54	414.24
461.91	410.16
462.27	406.05
462.64	402.61
463.01	398.83
463.38	395.08
463.74	391.35
464.11	388.10
464.48	385.24
464.85	382.17
465.21	379.72
465.58	377.06
465.95	373.88
466.32	371.24
466.68	368.68
467.05	366.06
467.42	363.44
467.78	360.74
468.15	358.16
468.52	356.25
468.88	353.71
469.25	351.40
469.62	349.60
469.98	347.59
470.35	345.79
470.72	344.03
471.08	342.17
471.45	340.64
471.82	339.07
472.18	337.38
472.55	336.15
472.92	334.73
473.28	333.51
473.65	332.32
474.02	331.18
474.38	330.24
474.75	329.48
475.11	328.69
475.48	328.09
475.85	327.61
476.21	327.09
476.58	326.75
476.94	326.53
477.31	326.18
477.67	325.89
478.04	325.70
478.41	325.68
478.77	325.85
479.14	325.78
479.50	325.92
479.87	326.21
480.23	326.54
480.60	326.77
480.96	327.06
481.33	327.65
481.69	328.26
482.06	328.81
482.42	329.27
482.79	329.88
483.15	330.71
483.52	331.65
483.88	332.57
484.25	333.53
484.61	334.56
484.98	335.64
485.34	336.94
485.71	338.32
486.07	339.74
486.44	341.03
486.80	342.67
487.17	344.29
487.53	346.11
487.90	347.90
488.26	349.96
488.62	352.12
488.99	354.17
489.35	356.33
489.72	358.65
490.08	361.18
490.44	363.76
490.81	366.43
491.17	369.12
491.54	372.07
491.90	375.06
492.26	378.29
492.63	381.66
492.99	385.15
493.36	388.84
493.72	392.68
494.08	396.73
494.45	400.94
494.81	405.28
495.17	409.69
495.54	414.39
495.90	419.18
496.26	424.12
496.63	429.31
496.99	434.68
497.35	440.25
497.72	446.06
498.08	451.98
498.44	458.05
498.80	464.47
499.17	470.92
499.53	477.66
499.89	484.57
500.26	491.59
500.62	498.65
500.98	505.97
501.34	513.45
501.71	521.18
502.07	528.96
502.43	537.02
502.79	545.17
503.16	553.54
503.52	562.13
503.88	570.77
504.24	579.75
504.60	588.78
504.97	597.97
505.33	607.24
505.69	616.98
506.05	626.85
506.41	636.71
506.78	646.76
507.14	656.96
507.50	667.38
507.86	677.96
508.22	688.68
508.59	699.26
508.95	710.26
509.31	721.48
509.67	732.87
510.03	744.19
510.39	755.86
510.75	767.70
511.12	779.52
511.48	791.55
511.84	803.77
512.20	816.07
512.56	828.70
512.92	841.56
513.28	854.19
513.64	866.94
514.00	879.69
514.37	892.61
514.73	905.69
515.09	918.65
515.45	931.70
515.81	944.78
516.17	958.29
516.53	971.54
516.89	984.62
517.25	997.83
517.61	1011.44
517.97	1024.87
518.33	1037.94
518.69	1051.55
519.05	1065.42
519.41	1078.97
519.77	1092.93
520.13	1106.23
520.49	1119.23
520.85	1132.69
521.21	1145.81
521.57	1159.53
521.93	1172.62
522.29	1186.43
522.65	1199.99
523.01	1213.53
523.37	1226.73
523.73	1239.99
524.09	1253.21
524.45	1266.67
524.81	1280.22
525.17	1293.50
525.53	1306.67
525.89	1320.06
526.25	1333.23
526.61	1345.97
526.97	1359.26
527.33	1372.21
527.68	1385.76
528.04	1399.41
528.40	1412.62
528.76	1426.28
529.12	1439.26
529.48	1452.58
529.84	1464.78
530.20	1477.69
530.56	1490.40
530.91	1503.62
531.27	1516.51
531.63	1529.21
531.99	1542.05
532.35	1554.32
532.71	1566.84
533.07	1579.85
533.42	1592.18
533.78	1604.37
534.14	1616.49
534.50	1627.70
534.86	1639.31
535.21	1650.17
535.57	1661.76
535.93	1672.87
536.29	1683.86
536.65	1695.38
537.00	1706.59
537.36	1718.04
537.72	1729.07
538.08	1740.46
538.44	1751.55
538.79	1762.78
539.15	1773.85
539.51	1784.72
539.87	1796.06
540.22	1806.97
540.58	1817.90
540.94	1828.86
541.29	1839.21
541.65	1849.04
542.01	1859.48
542.37	1869.50
542.72	1879.74
543.08	1889.50
543.44	1900.27
543.79	1909.71
544.15	1919.15
544.51	1928.96
544.87	1938.84
545.22	1948.15
545.58	1957.13
545.94	1966.07
546.29	1974.57
546.65	1983.11
547.01	1991.38
547.36	1999.09
547.72	2006.88
548.07	2014.45
548.43	2022.31
548.79	2030.16
549.14	2038.42
549.50	2047.02
549.86	2055.00
550.21	2062.54
550.57	2070.31
550.92	2077.13
551.28	2084.80
551.64	2092.07
551.99	2099.66
552.35	2106.90
552.70	2113.69
553.06	2120.27
553.41	2126.69
553.77	2133.25
554.13	2139.53
554.48	2146.44
554.84	2153.70
555.19	2160.24
555.55	2166.81
555.90	2173.02
556.26	2179.93
556.61	2185.94
556.97	2190.71
557.32	2196.44
557.68	2202.77
558.03	2208.59
558.39	2213.82
558.74	2219.71
559.10	2225.30
559.45	2230.80
559.81	2236.27
560.16	2241.82
560.52	2247.66
560.87	2254.08
561.23	2259.71
561.58	2266.23
561.94	2271.43
562.29	2275.89
562.64	2281.78
563.00	2287.36
563.35	2292.72
563.71	2298.16
564.06	2303.85
564.42	2309.88
564.77	2314.96
565.12	2320.22
565.48	2325.07
565.83	2330.55
566.19	2335.63
566.54	2340.75
566.89	2345.27
567.25	2349.91
567.60	2355.53
567.96	2360.60
568.31	2364.85
568.66	2369.18
569.02	2372.95
569.37	2376.57
569.72	2380.98
570.08	2384.43
570.43	2387.47
570.78	2390.61
571.14	2393.09
571.49	2396.01
571.84	2399.24
572.20	2402.07
572.55	2404.81
572.90	2407.01
573.26	2409.43
573.61	2411.94
573.96	2414.15
574.31	2416.16
574.67	2417.79
575.02	2418.31
575.37	2419.53
575.72	2419.99
576.08	2421.37
576.43	2421.52
576.78	2421.80
577.13	2422.99
577.49	2424.01
577.84	2424.77
578.19	2425.78
578.54	2426.16
578.90	2426.61
579.25	2426.35
579.60	2425.99
579.95	2425.15
580.30	2424.94
580.66	2424.23
581.01	2422.45
581.36	2419.64
581.71	2417.96
582.06	2416.54
582.42	2415.59
582.77	2413.22
583.12	2411.57
583.47	2409.84
583.82	2408.91
584.17	2407.67
584.53	2405.37
584.88	2402.98
585.23	2401.01
585.58	2398.54
585.93	2396.34
586.28	2394.01
586.63	2391.36
586.98	2388.94
587.34	2386.75
587.69	2384.04
588.04	2381.67
588.39	2379.92
588.74	2377.32
589.09	2374.44
589.44	2370.98
589.79	2368.26
590.14	2365.98
590.49	2362.98
590.84	2358.98
591.19	2355.69
591.54	2352.17
591.89	2348.11
592.25	2344.75
592.60	2340.28
592.95	2336.00
593.30	2331.72
593.65	2327.26
594.00	2322.78
594.35	2319.58
594.70	2314.73
595.05	2310.21
595.40	2304.65
595.75	2298.66
596.10	2295.08
596.45	2290.09
596.80	2285.53
597.15	2280.16
597.50	2274.34
597.85	2269.33
598.19	2264.27
598.54	2258.40
598.89	2253.09
599.24	2248.48
599.59	2242.20
599.94	2236.23
600.29	2230.30
600.64	2224.27
600.99	2217.36
601.34	2211.79
601.69	2204.86
602.04	2198.52
602.39	2191.84
602.74	2185.79
603.08	2180.42
603.43	2173.83
603.78	2166.94
604.13	2159.99
604.48	2152.72
604.83	2146.57
605.18	2140.32
605.53	2133.26
605.87	2126.25
606.22	2119.45
606.57	2111.54
606.92	2103.67
607.27	2096.78
607.62	2090.26
607.96	2083.29
608.31	2076.92
608.66	2069.13
609.01	2061.55
609.36	2054.35
609.70	2046.65
610.05	2038.97
610.40	2030.69
610.75	2022.23
611.10	2014.43
611.44	2005.44
611.79	1996.84
612.14	1986.88
612.49	1976.23
612.83	1966.86
613.18	1957.60
613.53	1948.26
613.88	1938.65
614.22	1930.07
614.57	1920.32
614.92	1909.69
615.27	1899.58
615.61	1889.32
615.96	1879.75
616.31	1870.21
616.65	1860.92
617.00	1851.37
617.35	1841.71
617.70	1832.02
618.04	1822.26
618.39	1812.31
618.74	1802.90
619.08	1793.19
619.43	1784.61
619.78	1776.41
620.12	1767.91
620.47	1758.52
620.82	1748.32
621.16	1738.60
621.51	1728.86
621.85	1719.13
622.20	1708.98
622.55	1698.48
622.89	1688.71
623.24	1679.10
623.59	1669.32
623.93	1659.14
624.28	1649.42
624.62	1639.49
624.97	1629.33
625.32	1619.50
625.66	1610.71
626.01	1601.91
626.35	1592.81
626.70	1582.89
627.04	1573.03
627.39	1563.00
627.73	1553.80
628.08	1545.01
628.43	1535.57
628.77	1526.44
629.12	1517.61
629.46	1509.78
629.81	1501.70
630.15	1492.48
630.50	1482.75
630.84	1472.34
631.19	1462.77
631.53	1453.67
631.88	1443.63
632.22	1433.76
632.57	1424.67
632.91	1414.74
633.26	1405.06
633.60	1395.61
633.95	1386.42
634.29	1377.00
634.64	1367.80
634.98	1357.96
635.32	1348.81
635.67	1340.48
636.01	1331.32
636.36	1321.69
636.70	1312.25
637.05	1302.94
637.39	1294.15
637.73	1285.68
638.08	1278.29
638.42	1270.23
638.77	1261.55
639.11	1253.49
639.45	1245.91
639.80	1237.45
640.14	1228.81
640.49	1220.22
640.83	1211.48
641.17	1203.35
641.52	1195.23
641.86	1186.82
642.20	1179.15
642.55	1170.67
642.89	1161.98
643.23	1153.38
643.58	1145.36
643.92	1136.47
644.26	1127.86
644.61	1119.52
644.95	1110.85
645.29	1101.79
645.64	1092.73
645.98	1084.22
646.32	1076.32
646.66	1067.81
647.01	1059.59
647.35	1051.64
647.69	1043.21
648.04	1035.06
648.38	1026.31
648.72	1017.68
649.06	1009.35
649.41	1001.15
649.75	993.31
650.09	985.50
650.43	977.65
650.78	969.45
651.12	961.83
651.46	954.43
651.80	947.24
652.14	940.09
652.49	932.69
652.83	925.42
653.17	917.79
653.51	910.21
653.85	903.04
654.20	895.78
654.54	888.39
654.88	881.29
655.22	874.12
655.56	867.21
655.90	860.42
656.25	853.75
656.59	846.93
656.93	839.87
657.27	832.74
657.61	825.70
657.95	819.63
658.29	813.66
658.64	807.61
658.98	801.18
659.32	794.64
659.66	788.38
660.00	782.08
660.34	776.05
660.68	769.94
661.02	763.62
661.36	757.69
661.70	751.82
662.05	746.16
662.39	740.67
662.73	735.26
663.07	729.94
663.41	724.39
663.75	718.67
664.09	713.03
664.43	707.65
664.77	702.39
665.11	696.59
665.45	690.76
665.79	684.99
666.13	679.31
666.47	673.85
666.81	668.43
667.15	662.98
667.49	657.83
667.83	652.56
668.17	647.27
668.51	642.17
668.85	637.32
669.19	632.45
669.53	627.42
669.87	622.26
670.21	617.44
670.55	612.72
670.89	608.25
671.23	603.86
671.57	599.44
671.91	595.15
672.25	591.01
672.58	586.94
672.92	582.83
673.26	578.90
673.60	574.96
673.94	571.14
674.28	567.50
674.62	563.77
674.96	560.10
675.30	556.66
675.64	553.00
675.97	549.29
676.31	545.69
676.65	542.08
676.99	538.75
677.33	534.95
677.67	531.32
678.01	527.50
678.34	523.90
678.68	520.43
679.02	516.88
679.36	513.21
679.70	509.47
680.04	505.89
680.37	502.34
680.71	499.05
681.05	495.81
681.39	492.54
681.73	489.33
682.06	486.26
682.40	483.18
682.74	480.01
683.08	476.77
683.42	473.49
683.75	470.49
684.09	467.35
684.43	464.52
684.77	461.52
685.10	458.64
685.44	455.71
685.78	452.75
686.12	449.91
686.45	447.13
686.79	444.46
687.13	441.96
687.46	439.35
687.80	436.61
688.14	433.75
688.48	431.11
688.81	428.44
689.15	425.81
689.49	423.17
689.82	420.59
690.16	418.04
690.50	415.67
690.83	413.17
691.17	410.65
691.51	408.17
691.84	405.90
692.18	403.64
692.52	401.41
692.85	399.28
693.19	397.10
693.52	394.87
693.86	392.64
694.20	390.40
694.53	388.25
694.87	386.03
695.21	383.89
695.54	381.69
695.88	379.52
696.21	377.32
696.55	375.15
696.88	373.09
697.22	371.10
697.56	369.11
697.89	367.14
698.23	365.37
698.56	363.59
698.90	361.77
699.23	359.87
699.57	357.97
699.90	356.01
700.24	354.15
700.58	352.41
700.91	350.71
701.25	349.11
701.58	347.44
701.92	345.84
702.25	344.22
702.59	342.58
702.92	340.99
703.26	339.38
703.59	337.87
703.93	336.58
704.26	335.09
704.60	333.57
704.93	332.10
705.26	330.61
705.60	329.11
705.93	327.56
706.27	326.21
706.60	324.94
706.94	323.73
707.27	322.32
707.61	320.98
707.94	319.64
708.27	318.10
708.61	316.68
708.94	315.32
709.28	314.04
709.61	312.79
709.94	311.56
710.28	310.36
710.61	309.16
710.95	307.73
711.28	306.62
711.61	305.47
711.95	304.33
712.28	303.05
712.61	301.84
712.95	300.81
713.28	299.71
713.61	298.50
713.95	297.30
714.28	296.29
714.61	295.22
714.95	294.17
715.28	293.17
715.61	292.12
715.95	291.10
716.28	290.10
716.61	289.14
716.95	288.12
717.28	287.18
717.61	286.21
717.94	285.28
718.28	284.23
718.61	283.31
718.94	282.40
719.27	281.57
719.61	280.73
719.94	279.85
720.27	278.86
720.60	278.01
720.94	277.20
721.27	276.42
721.60	275.71
721.93	275.00
722.27	274.36
722.60	273.70
722.93	272.99
723.26	272.31
723.59	271.58
723.93	270.92
724.26	270.27
724.59	269.61
724.92	269.02
725.25	268.46
725.59	267.89
725.92	267.29
726.25	266.69
726.58	266.11
726.91	265.49
727.24	265.02
727.57	264.46
727.91	263.86
728.24	263.29
728.57	262.71
728.90	262.13
729.23	261.46
729.56	260.99
729.89	260.42
730.22	259.84
730.55	259.32
730.89	258.78
731.22	258.24
731.55	257.70
731.88	257.13
732.21	256.59
732.54	256.00
732.87	255.51
733.20	255.03
733.53	254.53
733.86	254.07
734.19	253.53
734.52	253.09
734.85	252.78
735.18	252.30
735.51	251.88
735.84	251.46
736.17	251.09
736.50	250.53
736.83	250.38
737.16	249.94
737.49	249.57
737.82	249.14
738.15	248.75
738.48	248.37
738.81	247.99
739.14	247.55
739.47	247.23
739.80	246.84
740.13	246.48
740.46	246.07
740.79	245.65
741.12	245.31
741.45	244.92
741.78	244.45
742.11	244.19
742.44	243.83
742.77	243.46
743.10	243.07
743.43	242.71
743.75	242.13
744.08	242.08
744.41	241.68
744.74	241.34
745.07	240.92
745.40	240.64
745.73	240.37
746.06	240.06
746.39	239.73
746.71	239.36
747.04	239.02
747.37	238.71
747.70	238.45
748.03	238.16
748.36	237.91
748.68	237.63
749.01	237.22
749.34	236.92
749.67	236.64
750.00	236.40
750.33	236.31
750.65	236.06
750.98	235.53
751.31	235.30
751.64	235.06
751.97	234.99
752.29	234.67
752.62	234.36
752.95	234.09
753.28	233.80
753.60	233.58
753.93	233.37
754.26	233.14
754.59	232.88
754.91	232.60
755.24	232.34
755.57	232.13
755.90	231.94
756.22	231.69
756.55	231.45
756.88	231.19
757.20	230.80
757.53	230.56
757.86	230.33
758.19	230.13
758.51	229.92
758.84	229.58
759.17	229.38
759.49	229.23
759.82	229.17
760.15	229.01
760.47	228.82
760.80	228.55
761.13	228.39
761.45	228.21
761.78	228.00
762.11	227.80
762.43	227.56
762.76	227.36
763.08	227.21
763.41	227.04
763.74	226.88
764.06	226.73
764.39	226.55
764.71	226.42
765.04	226.23
765.37	226.06
765.69	225.94
766.02	225.81
766.34	225.66
766.67	225.45
767.00	225.36
767.32	225.33
767.65	225.37
767.97	225.20
768.30	225.04
768.62	224.93
768.95	224.78
769.27	224.62
769.60	224.54
769.92	224.41
770.25	224.26
770.57	224.09
770.90	223.97
771.22	223.86
771.55	223.77
771.87	223.69
772.20	223.52
772.52	223.56
772.85	223.70
773.17	223.54
773.50	223.38
773.82	223.24
774.15	223.05
774.47	222.80
774.80	222.73
775.12	222.63
775.45	222.53
775.77	222.46
776.09	222.41
776.42	222.31
776.74	222.27
777.07	222.19
777.39	222.11
777.72	222.01
778.04	221.95
778.36	221.81
778.69	221.74
779.01	221.72
779.33	221.44
779.66	221.13
779.98	221.06
780.31	221.00
780.63	221.00
780.95	220.94
781.28	220.86
781.60	220.75
781.92	220.69
782.25	220.63
782.57	220.58
782.89	220.51
783.22	220.43
783.54	220.30
783.86	220.21
784.19	220.18
784.51	220.16
784.83	220.07
785.16	220.03
785.48	219.95
785.80	219.88
786.12	219.84
786.45	219.76
786.77	219.67
787.09	219.62
787.42	219.50
787.74	219.44
788.06	219.40
788.38	219.31
788.71	219.23
789.03	219.19
789.35	219.15
789.67	219.06
789.99	219.02
790.32	218.92
790.64	218.91
790.96	219.02
791.28	218.94
791.61	218.86
791.93	218.80
792.25	218.75
792.57	218.85
792.89	218.75
793.21	218.72
793.54	218.64
793.86	218.56
794.18	218.48
794.50	218.37
794.82	218.30
795.14	218.27
795.47	218.25
795.79	218.18
796.11	218.07
796.43	218.03
796.75	217.98
797.07	217.97
797.39	217.91
797.71	217.68
798.04	217.65
798.36	217.63
798.68	217.58
799.00	217.56
799.32	217.38
799.64	217.42
799.96	217.37
800.28	217.40
800.60	217.37
800.92	217.35
801.24	217.31
801.56	217.29
801.89	217.25
802.21	217.24
802.53	217.18
802.85	217.20
803.17	217.27
803.49	217.18
803.81	217.13
804.13	217.09
804.45	217.07
804.77	217.01
805.09	217.00
805.41	216.95
805.73	216.89
806.05	216.82
806.37	216.76
806.69	216.71
807.01	216.65
807.33	216.64
807.65	216.54
807.97	216.65
808.28	216.60
808.60	216.61
808.92	216.53
809.24	216.65
809.56	216.57
809.88	216.47
810.20	216.48
810.52	216.50
810.84	216.44
811.16	216.38
811.48	216.37
811.80	216.41
812.12	216.38
812.43	216.42
812.75	216.41
813.07	216.37
813.39	216.40
813.71	216.36
814.03	216.30
814.35	216.29
814.67	216.16
814.98	216.16
815.30	216.10
815.62	216.09
815.94	215.93
816.26	215.93
816.58	215.87
816.89	215.87
817.21	215.79
817.53	215.78
817.85	215.79
818.17	215.77
818.48	215.68
818.80	215.73
819.12	215.66
819.44	215.60
819.76	215.55
820.07	215.53
820.39	215.52
820.71	215.53
821.03	215.53
821.34	215.53
821.66	215.52
821.98	215.52
822.30	215.51
822.61	215.60
822.93	215.60
823.25	215.58
823.57	215.52
823.88	215.59
824.20	215.61
824.52	215.62
824.83	215.61
825.15	215.57
825.47	215.53
825.79	215.53
826.10	215.53
826.42	215.54
826.74	215.51
827.05	215.49
827.37	215.49
827.69	215.43
828.00	215.38
828.32	215.36
828.64	215.33
828.95	215.41
829.27	215.34
829.58	215.32
829.90	215.34
830.22	215.36
830.53	215.25
830.85	215.20
831.17	215.15
831.48	215.15
831.80	215.17
832.11	215.13
832.43	215.11
832.75	215.11
833.06	215.25
833.38	215.20
833.69	215.18
834.01	215.15
834.32	215.17
834.64	215.16
834.96	215.16
835.27	215.12
835.59	215.02
835.90	214.97
836.22	214.92
836.53	214.88
836.85	214.84
837.16	215.08
837.48	215.06
837.79	215.11
838.11	215.13
838.42	215.10
838.74	215.16
839.05	215.10
839.37	215.07
839.68	214.89
840.00	214.88
840.31	214.90
840.63	214.89
840.94	214.87
841.26	214.85
841.57	214.83
841.88	214.89
842.20	214.84
842.51	214.86
842.83	214.86
843.14	215.03
843.46	215.05
843.77	214.93
844.08	214.91
844.40	214.83
844.71	214.77
845.03	214.76
845.34	214.69
845.65	214.68
845.97	214.71
846.28	214.73
846.60	214.73
846.91	214.70
847.22	214.71
847.54	214.73
847.85	214.74
848.16	214.76
848.48	214.70
848.79	214.83
849.10	214.80
849.42	214.81
849.73	214.63
850.04	214.59
850.36	214.50
850.67	214.56
850.98	214.58
851.30	214.60
851.61	214.57
851.92	214.58
852.23	214.66
852.55	214.64
852.86	214.63
853.17	214.68
853.49	214.71
853.80	214.71
854.11	214.71
854.42	214.75
854.74	214.68
855.05	214.72
855.36	214.58
855.67	214.58
855.99	214.59
856.30	214.82
856.61	214.82
856.92	214.85
857.23	214.81
857.55	214.78
857.86	214.78
858.17	214.82
858.48	214.78
858.79	214.72
859.11	214.74
859.42	214.75
859.73	214.68
860.04	214.63
860.35	214.57
860.66	214.55
860.98	214.51
861.29	214.55
861.60	214.48
861.91	214.52
862.22	214.49
862.53	214.46
862.84	214.22
863.16	214.26
863.47	214.20
863.78	214.19
864.09	214.19
864.40	214.19
864.71	214.18
865.02	214.20
865.33	214.16
865.64	214.12
865.95	214.10
866.27	214.27
866.58	214.25
866.89	214.27
867.20	214.21
867.51	214.18
867.82	214.16
868.13	214.23
868.44	214.19
868.75	214.21
869.06	214.18
869.37	214.18
869.68	214.11
869.99	214.12
870.30	214.15
870.61	214.14
870.92	214.11
871.23	214.08
871.54	214.11
871.85	214.18
872.16	214.21
872.47	214.20
872.78	214.07
873.09	214.14
873.40	214.11
873.71	214.14
874.02	214.17
874.33	214.17
874.64	214.14
874.95	214.18
875.26	214.16
875.56	214.20
875.87	214.20
876.18	214.20
876.49	214.47
876.80	214.42
877.11	214.38
877.42	214.36
877.73	214.35
878.04	214.31
878.35	214.29
878.66	214.32
878.96	214.29
879.27	214.27
879.58	214.23
879.89	214.24
880.20	214.31
880.51	214.34
880.82	214.33
881.12	214.34
881.43	214.29
881.74	214.28
882.05	214.26
882.36	214.30
882.67	214.30
882.97	214.04
883.28	214.02
883.59	214.03
883.90	214.08
884.21	214.12
884.51	214.13
884.82	214.10
885.13	214.05
885.44	214.09
885.74	214.09
886.05	214.06
886.36	214.08
886.67	213.98
886.98	214.07
887.28	214.13
887.59	214.14
887.90	214.16
888.20	214.17
888.51	214.20
888.82	214.14
889.13	214.16
889.43	214.32
889.74	214.33
890.05	214.33
890.35	214.30
890.66	214.25
890.97	214.20
891.28	214.18
891.58	214.17
891.89	214.15
892.20	214.12
892.50	214.12
892.81	214.11
893.12	214.11
893.42	214.02
893.73	213.97
894.04	213.95
894.34	213.98
894.65	213.99
894.95	213.98
895.26	214.03
895.57	214.13
895.87	213.92
896.18	213.97
896.48	214.01
896.79	214.02
897.10	214.05
897.40	214.10
897.71	214.15
898.01	214.14
898.32	214.18
898.63	214.18
898.93	214.19
899.24	214.18
899.54	214.17
899.85	214.15
900.15	214.15
900.46	214.13
900.76	214.13
901.07	214.10
901.38	214.08
901.68	214.06
901.99	213.96
902.29	213.98
902.60	213.95
902.90	213.96
903.21	213.96
903.51	213.96
903.82	214.01
904.12	214.01
904.43	214.02
904.73	214.01
905.03	214.02
905.34	214.23
905.64	214.22
905.95	214.25
906.25	214.23
906.56	214.21
906.86	214.22
907.17	214.18
907.47	214.19
907.77	214.15
908.08	214.12
908.38	214.15
908.69	214.15
908.99	214.20
909.30	214.17
909.60	214.16
909.90	214.20
910.21	214.12
910.51	214.11
910.81	214.10
911.12	214.12
911.42	214.12
911.73	213.89
912.03	213.89
912.33	213.91
912.64	213.92
912.94	213.92
913.24	213.88
913.55	213.90
913.85	213.91
914.15	213.97
914.46	213.97
914.76	213.94
915.06	213.91
915.37	213.87
915.67	213.84
915.97	213.84
916.27	213.77
916.58	213.78
916.88	213.78
917.18	213.79
917.49	213.89
917.79	213.90
918.09	213.93
918.39	214.05
918.70	214.04
919.00	214.04
919.30	214.15
919.60	214.12
919.91	214.12
920.21	214.15
920.51	214.11
920.81	214.13
921.12	214.15
921.42	214.16
921.72	214.18
922.02	214.17
922.32	214.21
922.63	214.21
922.93	214.31
923.23	214.28
923.53	214.24
923.83	214.14
924.13	214.14
924.44	214.12
924.74	214.12
925.04	214.18
925.34	214.18
925.64	214.07
925.94	214.08
926.24	214.20
926.55	214.13
926.85	214.17
927.15	214.16
927.45	214.15
927.75	214.18
928.05	214.20
928.35	214.20
928.65	214.23
928.95	214.26
929.26	214.16
929.56	214.21
929.86	214.22
930.16	214.21
930.46	214.18
930.76	214.19
931.06	214.07
931.36	213.99
931.66	214.04
931.96	214.08
932.26	214.09
932.56	213.96
932.86	213.96
933.16	213.90
933.46	213.88
933.76	213.88
934.06	213.89
934.36	213.95
934.66	213.93
934.96	213.90
935.26	213.90
935.56	213.92
935.86	213.89
936.16	213.88
936.46	213.84
936.76	213.84
937.06	213.80
937.36	213.84
937.66	213.85
937.96	213.83
938.26	213.77
938.56	213.74
938.86	213.75
939.16	213.81
939.46	213.86
939.76	213.86
940.06	213.84
940.35	213.79
940.65	213.67
940.95	213.68
941.25	213.62
941.55	213.61
941.85	213.60
942.15	213.63
942.45	213.71
942.75	213.71
943.04	213.74
943.34	213.81
943.64	213.74
943.94	213.69
944.24	213.69
944.54	213.73
944.84	213.70
945.13	213.66
945.43	213.68
945.73	213.66
946.03	213.64
946.33	213.62
946.62	213.60
946.92	213.60
947.22	213.62
947.52	213.66
947.82	213.65
948.11	213.64
948.41	213.58
948.71	213.52
949.01	213.55
949.31	213.53
949.60	213.48
949.90	213.57
950.20	213.58
950.50	213.57
950.79	213.56
951.09	213.61
951.39	213.61
951.69	213.55
951.98	213.62
952.28	213.64
952.58	213.64
952.87	213.69
953.17	213.70
953.47	213.67
953.76	213.65
954.06	213.62
954.36	213.57
954.66	213.54
954.95	213.56
955.25	213.55
955.55	213.55
955.84	213.51
956.14	213.52
956.44	213.53
956.73	213.49
957.03	213.47
957.32	213.47
957.62	213.48
957.92	213.52
958.21	213.50
958.51	213.74
958.81	213.75
959.10	213.77
959.40	213.82
959.69	213.84
959.99	213.88
960.29	213.91
960.58	213.91
960.88	213.98
961.17	213.98
961.47	214.00
961.76	213.99
962.06	214.04
962.36	213.97
962.65	214.00
962.95	214.02
963.24	214.00
963.54	214.03
963.83	214.04
964.13	214.02
964.42	213.93
964.72	213.75
965.01	213.73
965.31	213.69
965.60	213.65
965.90	213.77
966.19	213.71
966.49	213.72
966.78	213.71
967.08	213.69
967.37	213.67
967.67	213.63
967.96	213.65
968.26	213.64
968.55	213.67
968.85	213.64
969.14	213.60
969.43	213.60
969.73	213.60
970.02	213.58
970.32	213.57
970.61	213.58
970.91	213.51
971.20	213.47
971.49	213.45
971.79	213.44
972.08	213.31
972.38	213.31
972.67	213.29
972.96	213.35
973.26	213.34
973.55	213.41
973.85	213.41
974.14	213.40
974.43	213.45
974.73	213.45
975.02	213.43
975.31	213.47
975.61	213.47
975.90	213.42
976.19	213.38
976.49	213.37
976.78	213.38
977.07	213.40
977.37	213.41
977.66	213.43
977.95	213.47
978.24	213.48
978.54	213.55
978.83	213.51
979.12	213.49
979.42	213.50
979.71	213.46
980.00	213.47
980.29	213.48
980.59	213.46
980.88	213.51
981.17	213.52
981.46	213.51
981.76	213.49
982.05	213.56
982.34	213.61
982.63	213.66
982.93	213.63
983.22	213.68
983.51	213.71
983.80	213.73
984.09	213.73
984.39	213.70
984.68	213.65
984.97	213.70
985.26	213.70
985.55	213.69
985.85	213.63
986.14	213.64
986.43	213.67
986.72	213.61
987.01	213.52
987.30	213.53
987.59	213.54
987.89	213.56
988.18	213.49
988.47	213.46
988.76	213.43
989.05	213.44
989.34	213.44
989.63	213.47
989.92	213.48
990.22	213.47
990.51	213.49
990.80	213.47
991.09	213.51
991.38	213.51
991.67	213.48
991.96	213.51
992.25	213.53
992.54	213.45
992.83	213.46
993.12	213.46
993.41	213.50
993.70	213.57
993.99	213.63
994.28	213.70
994.58	213.73
994.87	213.70
995.16	213.70
995.45	213.65
995.74	213.62
996.03	213.63
996.32	213.66
996.61	213.69
996.90	213.70
997.19	213.66
997.48	213.67
997.77	213.66
998.06	213.64
998.34	213.64
998.63	213.65
998.92	213.63
999.21	213.67
999.50	213.68
999.79	213.60
1000.08	213.60
1000.37	213.58
1000.66	213.53
1000.95	213.59
1001.24	213.61
1001.53	213.66
1001.82	213.63
1002.11	213.59
1002.40	213.60
1002.68	213.64
1002.97	213.79
1003.26	213.78
1003.55	213.76
1003.84	213.79
1004.13	213.86
1004.42	213.84
1004.71	213.87
1004.99	213.87
1005.28	213.92
1005.57	213.90
1005.86	213.88
1006.15	213.82
1006.44	213.77
1006.72	213.81
1007.01	213.77
1007.30	213.79
1007.59	213.76
1007.88	213.75
1008.17	213.75
1008.45	213.67
1008.74	213.61
1009.03	213.53
1009.32	213.51
1009.60	213.52
1009.89	213.53
1010.18	213.44
1010.47	213.41
1010.76	213.43
1011.04	213.43
1011.33	213.47
1011.62	213.50
1011.91	213.52
1012.19	213.56
1012.48	213.59
1012.77	213.61
1013.05	213.71
1013.34	213.69
1013.63	213.69
1013.92	213.71
1014.20	213.68
1014.49	213.71
1014.78	213.71
1015.06	213.65
1015.35	213.62
1015.64	213.64
1015.92	213.65
1016.21	213.64
1016.50	213.68
1016.78	213.68
1017.07	213.71
1017.36	213.63
1017.64	213.61
1017.93	213.60
1018.22	213.57
1018.50	213.57
1018.79	213.54
1019.08	213.43
1019.36	213.48
1019.65	213.43
1019.93	213.49
1020.22	213.54
1020.51	213.63
1020.79	213.57
1021.08	213.24
1021.36	213.21
1021.65	213.37
1021.94	213.33
1022.22	214.19
1022.51	212.77
1022.79	214.35
1023.08	213.79
1023.36	215.58
1023.65	212.36
>>>>>End Processed Spectral Data<<<<<
