SpectraSuite Data File
++++++++++++++++++++++++++++++++++++
Date: Tue Jan 29 16:32:28 EST 2013
User: group
Dark Spectrum Present: No
Reference Spectrum Present: No
Number of Sampled Component Spectra: 1
Spectrometers: USB2E7196
Integration Time (usec): 65000 (USB2E7196)
Spectra Averaged: 100 (USB2E7196)
Boxcar Smoothing: 10 (USB2E7196)
Correct for Electrical Dark: No (USB2E7196)
Strobe/Lamp Enabled: No (USB2E7196)
Correct for Detector Non-linearity: No (USB2E7196)
Correct for Stray Light: No (USB2E7196)
Number of Pixels in Processed Spectrum: 2048
>>>>>Begin Processed Spectral Data<<<<<
339.09	0.00
339.48	201.93
339.86	203.24
340.24	205.15
340.63	206.51
341.01	211.01
341.39	208.65
341.78	210.24
342.16	211.96
342.54	212.23
342.93	201.17
343.31	211.35
343.69	211.92
344.07	212.37
344.46	212.80
344.84	213.17
345.22	213.33
345.60	213.62
345.99	213.84
346.37	213.96
346.75	214.07
347.13	214.17
347.52	214.24
347.90	214.34
348.28	214.41
348.66	214.47
349.05	214.43
349.43	214.49
349.81	214.54
350.19	214.62
350.57	214.70
350.96	214.81
351.34	214.91
351.72	214.96
352.10	215.11
352.48	215.15
352.87	215.23
353.25	215.32
353.63	215.37
354.01	215.40
354.39	215.46
354.77	215.56
355.15	215.67
355.54	215.71
355.92	215.69
356.30	215.77
356.68	215.96
357.06	216.04
357.44	216.09
357.82	216.17
358.20	216.21
358.58	216.25
358.97	216.31
359.35	216.39
359.73	216.50
360.11	216.53
360.49	216.63
360.87	216.64
361.25	216.71
361.63	216.79
362.01	216.88
362.39	216.90
362.77	216.93
363.15	216.95
363.53	216.99
363.91	217.07
364.29	217.09
364.67	216.92
365.05	216.95
365.43	217.01
365.81	217.01
366.19	217.13
366.57	217.21
366.95	217.21
367.33	217.16
367.71	217.14
368.09	217.17
368.47	217.19
368.85	217.18
369.23	217.19
369.61	217.09
369.99	217.13
370.37	217.15
370.75	217.25
371.13	217.22
371.51	217.19
371.89	217.19
372.27	217.16
372.65	217.14
373.03	217.09
373.41	217.04
373.78	217.00
374.16	216.88
374.54	216.80
374.92	216.75
375.30	216.75
375.68	216.70
376.06	216.69
376.44	216.60
376.82	216.60
377.19	216.53
377.57	216.51
377.95	216.42
378.33	216.36
378.71	216.20
379.09	216.16
379.47	216.15
379.84	216.10
380.22	216.06
380.60	215.99
380.98	215.96
381.36	215.91
381.73	215.86
382.11	215.83
382.49	215.78
382.87	215.69
383.25	215.62
383.62	215.81
384.00	215.70
384.38	215.67
384.76	215.65
385.13	215.72
385.51	215.71
385.89	215.64
386.27	215.64
386.64	215.62
387.02	215.57
387.40	215.50
387.78	215.47
388.15	215.44
388.53	215.41
388.91	215.41
389.29	215.35
389.66	215.35
390.04	215.34
390.42	215.39
390.79	215.42
391.17	215.44
391.55	215.18
391.92	215.20
392.30	215.21
392.68	215.18
393.05	215.14
393.43	215.13
393.81	215.14
394.18	215.12
394.56	215.12
394.94	215.18
395.31	215.18
395.69	215.22
396.06	215.23
396.44	215.29
396.82	215.30
397.19	215.45
397.57	215.44
397.95	215.49
398.32	215.43
398.70	215.51
399.07	215.60
399.45	215.66
399.82	215.71
400.20	215.74
400.58	215.79
400.95	215.78
401.33	215.89
401.70	216.11
402.08	216.21
402.45	216.29
402.83	216.41
403.20	216.56
403.58	216.64
403.95	216.79
404.33	216.94
404.71	217.08
405.08	217.33
405.46	217.51
405.83	217.71
406.21	217.90
406.58	218.10
406.96	218.29
407.33	218.59
407.70	218.87
408.08	219.36
408.45	219.72
408.83	220.13
409.20	220.50
409.58	220.78
409.95	221.22
410.33	221.72
410.70	222.17
411.08	222.71
411.45	223.29
411.82	223.90
412.20	224.57
412.57	225.41
412.95	225.98
413.32	226.80
413.69	227.61
414.07	228.53
414.44	229.53
414.82	230.56
415.19	231.72
415.56	232.92
415.94	234.08
416.31	235.45
416.68	236.85
417.06	238.45
417.43	239.98
417.81	241.71
418.18	243.48
418.55	245.47
418.93	247.48
419.30	249.58
419.67	251.81
420.04	254.10
420.42	256.47
420.79	259.36
421.16	262.15
421.54	265.03
421.91	268.02
422.28	271.13
422.66	274.44
423.03	277.70
423.40	281.11
423.77	284.72
424.15	288.43
424.52	292.28
424.89	296.45
425.26	300.61
425.64	304.55
426.01	308.83
426.38	313.24
426.75	317.79
427.13	322.54
427.50	327.49
427.87	332.69
428.24	337.89
428.61	342.84
428.99	348.37
429.36	354.46
429.73	360.32
430.10	366.17
430.47	372.19
430.85	378.54
431.22	385.17
431.59	392.29
431.96	399.10
432.33	406.52
432.70	413.74
433.08	422.21
433.45	430.27
433.82	438.31
434.19	447.16
434.56	455.86
434.93	464.24
435.30	472.52
435.68	481.64
436.05	490.66
436.42	499.58
436.79	507.73
437.16	516.41
437.53	525.74
437.90	534.90
438.27	543.91
438.64	553.09
439.01	561.68
439.38	569.20
439.75	576.60
440.13	585.06
440.50	593.03
440.87	599.52
441.24	606.20
441.61	613.55
441.98	619.02
442.35	625.33
442.72	631.68
443.09	637.81
443.46	641.58
443.83	644.09
444.20	646.28
444.57	649.45
444.94	651.02
445.31	652.48
445.68	653.92
446.05	654.57
446.42	653.79
446.79	652.83
447.16	651.80
447.53	650.96
447.90	647.73
448.27	644.43
448.64	639.73
449.01	636.32
449.37	630.39
449.74	624.71
450.11	617.84
450.48	610.42
450.85	602.91
451.22	596.44
451.59	590.27
451.96	584.47
452.33	576.60
452.70	569.44
453.07	560.91
453.43	552.22
453.80	543.84
454.17	535.88
454.54	528.31
454.91	520.12
455.28	512.18
455.65	504.67
456.02	497.16
456.38	490.81
456.75	483.01
457.12	476.44
457.49	469.89
457.86	463.67
458.23	458.24
458.59	452.24
458.96	446.22
459.33	440.91
459.70	435.47
460.07	431.20
460.43	426.28
460.80	421.68
461.17	417.72
461.54	413.52
461.91	409.48
462.27	405.35
462.64	401.89
463.01	398.08
463.38	394.42
463.74	390.74
464.11	387.50
464.48	384.60
464.85	381.49
465.21	379.08
465.58	376.45
465.95	373.32
466.32	370.74
466.68	368.12
467.05	365.54
467.42	362.98
467.78	360.29
468.15	357.77
468.52	355.90
468.88	353.38
469.25	351.22
469.62	349.39
469.98	347.48
470.35	345.70
470.72	343.98
471.08	342.14
471.45	340.64
471.82	339.09
472.18	337.42
472.55	336.22
472.92	334.79
473.28	333.59
473.65	332.40
474.02	331.33
474.38	330.44
474.75	329.65
475.11	328.86
475.48	328.32
475.85	327.83
476.21	327.33
476.58	327.01
476.94	326.76
477.31	326.47
477.67	326.14
478.04	325.95
478.41	325.97
478.77	326.18
479.14	326.10
479.50	326.20
479.87	326.52
480.23	326.85
480.60	327.15
480.96	327.45
481.33	328.07
481.69	328.61
482.06	329.14
482.42	329.62
482.79	330.15
483.15	330.92
483.52	331.86
483.88	332.75
484.25	333.71
484.61	334.72
484.98	335.76
485.34	337.12
485.71	338.52
486.07	339.93
486.44	341.21
486.80	342.85
487.17	344.56
487.53	346.36
487.90	348.22
488.26	350.20
488.62	352.36
488.99	354.42
489.35	356.60
489.72	358.99
490.08	361.56
490.44	364.14
490.81	366.84
491.17	369.57
491.54	372.57
491.90	375.56
492.26	378.78
492.63	382.19
492.99	385.67
493.36	389.34
493.72	393.17
494.08	397.22
494.45	401.45
494.81	405.82
495.17	410.29
495.54	415.00
495.90	419.87
496.26	424.77
496.63	429.99
496.99	435.38
497.35	440.94
497.72	446.77
498.08	452.71
498.44	458.89
498.80	465.30
499.17	471.79
499.53	478.53
499.89	485.51
500.26	492.47
500.62	499.57
500.98	507.03
501.34	514.58
501.71	522.38
502.07	530.19
502.43	538.28
502.79	546.44
503.16	554.87
503.52	563.54
503.88	572.34
504.24	581.35
504.60	590.42
504.97	599.71
505.33	609.07
505.69	619.02
506.05	628.90
506.41	638.85
506.78	649.00
507.14	659.32
507.50	669.86
507.86	680.77
508.22	691.57
508.59	702.32
508.95	713.48
509.31	724.76
509.67	736.28
510.03	747.68
510.39	759.52
510.75	771.51
511.12	783.51
511.48	795.61
511.84	807.86
512.20	820.37
512.56	833.10
512.92	845.93
513.28	858.63
513.64	871.48
514.00	884.46
514.37	897.53
514.73	910.72
515.09	923.80
515.45	936.74
515.81	949.91
516.17	963.44
516.53	976.69
516.89	989.98
517.25	1003.25
517.61	1016.93
517.97	1030.45
518.33	1043.61
518.69	1057.19
519.05	1071.06
519.41	1084.78
519.77	1098.75
520.13	1112.12
520.49	1125.43
520.85	1138.91
521.21	1152.30
521.57	1166.05
521.93	1179.26
522.29	1193.13
522.65	1206.79
523.01	1220.50
523.37	1233.83
523.73	1247.16
524.09	1260.48
524.45	1273.97
524.81	1287.64
525.17	1301.24
525.53	1314.61
525.89	1328.13
526.25	1341.35
526.61	1354.27
526.97	1367.62
527.33	1380.71
527.68	1394.37
528.04	1408.00
528.40	1421.32
528.76	1434.73
529.12	1447.67
529.48	1461.13
529.84	1473.45
530.20	1486.42
530.56	1499.10
530.91	1512.44
531.27	1525.45
531.63	1538.28
531.99	1551.00
532.35	1563.38
532.71	1575.84
533.07	1588.71
533.42	1600.98
533.78	1613.21
534.14	1625.47
534.50	1636.68
534.86	1648.28
535.21	1659.22
535.57	1670.80
535.93	1682.02
536.29	1693.30
536.65	1704.93
537.00	1715.90
537.36	1727.43
537.72	1738.45
538.08	1749.99
538.44	1761.04
538.79	1772.29
539.15	1783.43
539.51	1794.37
539.87	1805.61
540.22	1816.52
540.58	1827.49
540.94	1838.46
541.29	1848.87
541.65	1858.74
542.01	1869.50
542.37	1879.72
542.72	1889.94
543.08	1899.83
543.44	1910.59
543.79	1920.07
544.15	1929.68
544.51	1939.83
544.87	1949.86
545.22	1959.16
545.58	1968.18
545.94	1977.19
546.29	1985.74
546.65	1994.06
547.01	2002.50
547.36	2010.35
547.72	2018.13
548.07	2025.94
548.43	2033.83
548.79	2041.70
549.14	2049.93
549.50	2058.43
549.86	2066.57
550.21	2074.07
550.57	2081.87
550.92	2088.67
551.28	2096.13
551.64	2103.50
551.99	2110.96
552.35	2118.10
552.70	2125.05
553.06	2131.77
553.41	2138.10
553.77	2144.71
554.13	2151.21
554.48	2158.25
554.84	2165.46
555.19	2172.14
555.55	2178.42
555.90	2184.82
556.26	2191.90
556.61	2198.02
556.97	2202.87
557.32	2208.49
557.68	2214.99
558.03	2220.73
558.39	2226.08
558.74	2232.13
559.10	2237.55
559.45	2243.24
559.81	2248.82
560.16	2254.36
560.52	2260.36
560.87	2266.76
561.23	2272.65
561.58	2279.39
561.94	2284.64
562.29	2289.29
562.64	2295.37
563.00	2301.19
563.35	2306.66
563.71	2312.27
564.06	2317.95
564.42	2323.96
564.77	2329.12
565.12	2334.45
565.48	2339.55
565.83	2345.24
566.19	2350.60
566.54	2356.00
566.89	2360.59
567.25	2365.24
567.60	2371.09
567.96	2376.32
568.31	2380.98
568.66	2385.24
569.02	2389.02
569.37	2392.73
569.72	2397.15
570.08	2400.54
570.43	2403.66
570.78	2406.92
571.14	2409.66
571.49	2412.83
571.84	2416.33
572.20	2419.18
572.55	2422.06
572.90	2424.31
573.26	2426.95
573.61	2429.51
573.96	2431.65
574.31	2433.71
574.67	2435.50
575.02	2436.13
575.37	2437.34
575.72	2438.03
576.08	2439.46
576.43	2439.67
576.78	2440.04
577.13	2441.59
577.49	2442.73
577.84	2443.75
578.19	2444.97
578.54	2445.16
578.90	2445.81
579.25	2445.61
579.60	2445.57
579.95	2444.72
580.30	2444.89
580.66	2444.28
581.01	2442.48
581.36	2440.15
581.71	2438.47
582.06	2437.36
582.42	2436.57
582.77	2434.19
583.12	2432.42
583.47	2431.05
583.82	2430.47
584.17	2429.46
584.53	2427.31
584.88	2425.28
585.23	2423.39
585.58	2421.05
585.93	2419.16
586.28	2416.92
586.63	2414.30
586.98	2412.11
587.34	2410.11
587.69	2407.61
588.04	2405.29
588.39	2403.84
588.74	2401.32
589.09	2398.61
589.44	2395.39
589.79	2392.89
590.14	2390.97
590.49	2388.15
590.84	2384.20
591.19	2380.84
591.54	2377.39
591.89	2373.26
592.25	2369.98
592.60	2365.47
592.95	2361.23
593.30	2356.90
593.65	2352.38
594.00	2348.11
594.35	2344.85
594.70	2340.15
595.05	2335.47
595.40	2329.95
595.75	2324.13
596.10	2320.34
596.45	2315.43
596.80	2310.81
597.15	2305.39
597.50	2299.43
597.85	2294.49
598.19	2289.14
598.54	2283.45
598.89	2278.06
599.24	2273.57
599.59	2267.12
599.94	2261.41
600.29	2255.51
600.64	2249.65
600.99	2242.73
601.34	2237.08
601.69	2230.07
602.04	2223.66
602.39	2216.96
602.74	2211.01
603.08	2205.37
603.43	2198.84
603.78	2192.04
604.13	2184.94
604.48	2177.64
604.83	2171.58
605.18	2165.16
605.53	2158.30
605.87	2151.17
606.22	2144.41
606.57	2136.35
606.92	2128.45
607.27	2121.54
607.62	2114.74
607.96	2107.65
608.31	2101.20
608.66	2093.47
609.01	2085.83
609.36	2078.67
609.70	2070.95
610.05	2062.97
610.40	2054.63
610.75	2046.24
611.10	2038.39
611.44	2029.41
611.79	2020.58
612.14	2010.41
612.49	1999.63
612.83	1990.20
613.18	1980.90
613.53	1971.60
613.88	1961.99
614.22	1953.36
614.57	1943.42
614.92	1932.79
615.27	1922.48
615.61	1912.28
615.96	1902.67
616.31	1893.00
616.65	1883.54
617.00	1873.74
617.35	1864.08
617.70	1854.45
618.04	1844.50
618.39	1834.35
618.74	1824.70
619.08	1815.00
619.43	1806.29
619.78	1798.06
620.12	1789.41
620.47	1779.70
620.82	1769.18
621.16	1759.37
621.51	1749.48
621.85	1739.50
622.20	1729.15
622.55	1718.62
622.89	1708.76
623.24	1698.93
623.59	1689.23
623.93	1679.02
624.28	1669.24
624.62	1659.16
624.97	1648.80
625.32	1638.90
625.66	1630.01
626.01	1621.17
626.35	1611.82
626.70	1601.64
627.04	1591.61
627.39	1581.49
627.73	1572.22
628.08	1563.34
628.43	1553.73
628.77	1544.38
629.12	1535.50
629.46	1527.48
629.81	1519.14
630.15	1509.59
630.50	1499.70
630.84	1489.00
631.19	1479.13
631.53	1469.82
631.88	1459.54
632.22	1449.41
632.57	1439.97
632.91	1429.77
633.26	1419.99
633.60	1410.39
633.95	1401.11
634.29	1391.54
634.64	1382.08
634.98	1372.12
635.32	1362.73
635.67	1354.17
636.01	1344.94
636.36	1335.17
636.70	1325.70
637.05	1316.18
637.39	1307.22
637.73	1298.49
638.08	1291.01
638.42	1282.78
638.77	1273.89
639.11	1265.66
639.45	1257.84
639.80	1249.38
640.14	1240.60
640.49	1231.58
640.83	1222.74
641.17	1214.60
641.52	1206.41
641.86	1197.91
642.20	1189.94
642.55	1181.33
642.89	1172.47
643.23	1163.65
643.58	1155.51
643.92	1146.45
644.26	1137.79
644.61	1129.28
644.95	1120.57
645.29	1111.30
645.64	1102.10
645.98	1093.61
646.32	1085.66
646.66	1077.09
647.01	1068.56
647.35	1060.34
647.69	1051.95
648.04	1043.64
648.38	1034.74
648.72	1025.95
649.06	1017.41
649.41	1009.21
649.75	1001.23
650.09	993.29
650.43	985.27
650.78	976.88
651.12	969.14
651.46	961.58
651.80	954.28
652.14	946.83
652.49	939.22
652.83	931.78
653.17	923.98
653.51	916.27
653.85	909.01
654.20	901.74
654.54	894.31
654.88	887.07
655.22	879.69
655.56	872.52
655.90	865.62
656.25	858.90
656.59	851.89
656.93	844.73
657.27	837.54
657.61	830.52
657.95	824.38
658.29	818.42
658.64	812.27
658.98	805.77
659.32	799.16
659.66	792.86
660.00	786.55
660.34	780.44
660.68	774.26
661.02	767.87
661.36	761.88
661.70	755.93
662.05	750.23
662.39	744.79
662.73	739.38
663.07	733.98
663.41	728.34
663.75	722.61
664.09	716.88
664.43	711.35
664.77	705.96
665.11	700.12
665.45	694.10
665.79	688.26
666.13	682.52
666.47	676.98
666.81	671.52
667.15	666.05
667.49	660.79
667.83	655.48
668.17	650.16
668.51	644.97
668.85	640.07
669.19	635.11
669.53	629.99
669.87	624.82
670.21	619.95
670.55	615.14
670.89	610.61
671.23	606.32
671.57	601.92
671.91	597.54
672.25	593.31
672.58	589.13
672.92	585.01
673.26	581.05
673.60	577.24
673.94	573.36
674.28	569.66
674.62	565.88
674.96	562.11
675.30	558.59
675.64	554.89
675.97	551.25
676.31	547.54
676.65	543.88
676.99	540.38
677.33	536.56
677.67	532.84
678.01	528.94
678.34	525.24
678.68	521.70
679.02	518.07
679.36	514.32
679.70	510.66
680.04	507.08
680.37	503.57
680.71	500.15
681.05	496.92
681.39	493.63
681.73	490.43
682.06	487.35
682.40	484.19
682.74	480.98
683.08	477.67
683.42	474.45
683.75	471.48
684.09	468.48
684.43	465.62
684.77	462.64
685.10	459.80
685.44	456.86
685.78	453.86
686.12	451.05
686.45	448.30
686.79	445.65
687.13	443.06
687.46	440.36
687.80	437.65
688.14	434.71
688.48	432.02
688.81	429.29
689.15	426.63
689.49	423.98
689.82	421.34
690.16	418.76
690.50	416.29
690.83	413.69
691.17	411.10
691.51	408.58
691.84	406.33
692.18	404.04
692.52	401.83
692.85	399.67
693.19	397.50
693.52	395.33
693.86	393.00
694.20	390.76
694.53	388.62
694.87	386.39
695.21	384.23
695.54	382.06
695.88	379.89
696.21	377.68
696.55	375.51
696.88	373.45
697.22	371.40
697.56	369.45
697.89	367.58
698.23	365.78
698.56	363.99
698.90	362.17
699.23	360.27
699.57	358.31
699.90	356.39
700.24	354.51
700.58	352.70
700.91	351.07
701.25	349.46
701.58	347.81
701.92	346.19
702.25	344.59
702.59	342.91
702.92	341.34
703.26	339.74
703.59	338.25
703.93	336.97
704.26	335.55
704.60	334.02
704.93	332.49
705.26	330.97
705.60	329.45
705.93	327.91
706.27	326.58
706.60	325.32
706.94	324.07
707.27	322.63
707.61	321.25
707.94	319.84
708.27	318.30
708.61	316.84
708.94	315.45
709.28	314.11
709.61	312.85
709.94	311.62
710.28	310.38
710.61	309.14
710.95	307.67
711.28	306.55
711.61	305.40
711.95	304.26
712.28	303.03
712.61	301.81
712.95	300.77
713.28	299.65
713.61	298.45
713.95	297.27
714.28	296.31
714.61	295.26
714.95	294.21
715.28	293.22
715.61	292.17
715.95	291.19
716.28	290.19
716.61	289.25
716.95	288.22
717.28	287.31
717.61	286.35
717.94	285.49
718.28	284.44
718.61	283.54
718.94	282.62
719.27	281.79
719.61	281.00
719.94	280.13
720.27	279.20
720.60	278.34
720.94	277.59
721.27	276.81
721.60	276.11
721.93	275.41
722.27	274.74
722.60	274.08
722.93	273.35
723.26	272.71
723.59	272.01
723.93	271.39
724.26	270.73
724.59	270.09
724.92	269.45
725.25	268.90
725.59	268.31
725.92	267.78
726.25	267.19
726.58	266.58
726.91	265.93
727.24	265.42
727.57	264.86
727.91	264.22
728.24	263.65
728.57	263.04
728.90	262.51
729.23	261.90
729.56	261.48
729.89	260.93
730.22	260.34
730.55	259.77
730.89	259.24
731.22	258.71
731.55	258.19
731.88	257.68
732.21	257.12
732.54	256.54
732.87	255.99
733.20	255.50
733.53	255.00
733.86	254.55
734.19	254.00
734.52	253.57
734.85	253.25
735.18	252.77
735.51	252.39
735.84	251.90
736.17	251.47
736.50	250.88
736.83	250.74
737.16	250.35
737.49	249.95
737.82	249.53
738.15	249.11
738.48	248.70
738.81	248.32
739.14	247.90
739.47	247.51
739.80	247.12
740.13	246.71
740.46	246.33
740.79	245.93
741.12	245.57
741.45	245.19
741.78	244.74
742.11	244.43
742.44	244.00
742.77	243.72
743.10	243.37
743.43	243.03
743.75	242.44
744.08	242.39
744.41	242.02
744.74	241.66
745.07	241.31
745.40	241.04
745.73	240.77
746.06	240.46
746.39	240.18
746.71	239.86
747.04	239.51
747.37	239.19
747.70	238.91
748.03	238.59
748.36	238.31
748.68	238.03
749.01	237.66
749.34	237.42
749.67	237.11
750.00	236.87
750.33	236.74
750.65	236.47
750.98	235.92
751.31	235.68
751.64	235.45
751.97	235.33
752.29	235.02
752.62	234.72
752.95	234.44
753.28	234.13
753.60	233.90
753.93	233.75
754.26	233.53
754.59	233.26
754.91	233.03
755.24	232.76
755.57	232.46
755.90	232.24
756.22	231.94
756.55	231.68
756.88	231.41
757.20	231.05
757.53	230.80
757.86	230.60
758.19	230.40
758.51	230.18
758.84	229.90
759.17	229.69
759.49	229.48
759.82	229.41
760.15	229.26
760.47	229.05
760.80	228.81
761.13	228.63
761.45	228.41
761.78	228.20
762.11	228.02
762.43	227.85
762.76	227.68
763.08	227.56
763.41	227.38
763.74	227.22
764.06	227.06
764.39	226.90
764.71	226.71
765.04	226.55
765.37	226.37
765.69	226.20
766.02	226.04
766.34	225.85
766.67	225.65
767.00	225.53
767.32	225.53
767.65	225.51
767.97	225.37
768.30	225.25
768.62	225.15
768.95	225.03
769.27	224.89
769.60	224.83
769.92	224.64
770.25	224.49
770.57	224.35
770.90	224.22
771.22	224.05
771.55	223.96
771.87	223.86
772.20	223.73
772.52	223.78
772.85	223.92
773.17	223.84
773.50	223.70
773.82	223.57
774.15	223.35
774.47	223.11
774.80	223.01
775.12	222.90
775.45	222.83
775.77	222.74
776.09	222.65
776.42	222.52
776.74	222.55
777.07	222.47
777.39	222.39
777.72	222.29
778.04	222.25
778.36	222.15
778.69	222.07
779.01	222.01
779.33	221.72
779.66	221.42
779.98	221.34
780.31	221.27
780.63	221.27
780.95	221.20
781.28	221.13
781.60	221.04
781.92	220.99
782.25	220.91
782.57	220.83
782.89	220.79
783.22	220.72
783.54	220.58
783.86	220.53
784.19	220.42
784.51	220.46
784.83	220.39
785.16	220.37
785.48	220.30
785.80	220.27
786.12	220.23
786.45	220.17
786.77	220.13
787.09	220.08
787.42	219.96
787.74	219.91
788.06	219.86
788.38	219.82
788.71	219.75
789.03	219.69
789.35	219.66
789.67	219.56
789.99	219.49
790.32	219.42
790.64	219.38
790.96	219.53
791.28	219.40
791.61	219.31
791.93	219.24
792.25	219.20
792.57	219.27
792.89	219.18
793.21	219.13
793.54	219.06
793.86	218.99
794.18	218.95
794.50	218.89
794.82	218.86
795.14	218.85
795.47	218.83
795.79	218.79
796.11	218.72
796.43	218.69
796.75	218.66
797.07	218.66
797.39	218.63
797.71	218.46
798.04	218.42
798.36	218.41
798.68	218.38
799.00	218.33
799.32	218.21
799.64	218.22
799.96	218.18
800.28	218.18
800.60	218.14
800.92	218.12
801.24	218.07
801.56	218.04
801.89	217.96
802.21	217.92
802.53	217.83
802.85	217.82
803.17	217.91
803.49	217.85
803.81	217.78
804.13	217.69
804.45	217.61
804.77	217.61
805.09	217.57
805.41	217.54
805.73	217.46
806.05	217.36
806.37	217.32
806.69	217.29
807.01	217.25
807.33	217.23
807.65	217.16
807.97	217.22
808.28	217.20
808.60	217.21
808.92	217.18
809.24	217.31
809.56	217.27
809.88	217.14
810.20	217.14
810.52	217.18
810.84	217.13
811.16	217.07
811.48	217.02
811.80	217.08
812.12	217.06
812.43	217.08
812.75	217.08
813.07	217.04
813.39	217.02
813.71	216.96
814.03	216.91
814.35	216.90
814.67	216.76
814.98	216.70
815.30	216.66
815.62	216.62
815.94	216.44
816.26	216.41
816.58	216.37
816.89	216.34
817.21	216.24
817.53	216.27
817.85	216.24
818.17	216.23
818.48	216.13
818.80	216.14
819.12	216.12
819.44	216.07
819.76	216.01
820.07	215.99
820.39	215.99
820.71	215.99
821.03	215.98
821.34	215.97
821.66	215.98
821.98	216.00
822.30	215.97
822.61	216.10
822.93	216.07
823.25	216.04
823.57	215.98
823.88	216.03
824.20	216.01
824.52	216.08
824.83	216.06
825.15	216.02
825.47	216.00
825.79	216.02
826.10	216.00
826.42	216.00
826.74	216.03
827.05	215.99
827.37	216.00
827.69	215.97
828.00	215.98
828.32	215.96
828.64	215.92
828.95	216.04
829.27	215.95
829.58	215.97
829.90	216.00
830.22	216.02
830.53	215.94
830.85	215.90
831.17	215.83
831.48	215.82
831.80	215.84
832.11	215.79
832.43	215.72
832.75	215.73
833.06	215.85
833.38	215.74
833.69	215.74
834.01	215.71
834.32	215.69
834.64	215.65
834.96	215.63
835.27	215.63
835.59	215.52
835.90	215.44
836.22	215.39
836.53	215.35
836.85	215.32
837.16	215.53
837.48	215.54
837.79	215.60
838.11	215.59
838.42	215.56
838.74	215.60
839.05	215.61
839.37	215.60
839.68	215.46
840.00	215.45
840.31	215.47
840.63	215.47
840.94	215.44
841.26	215.44
841.57	215.44
841.88	215.44
842.20	215.42
842.51	215.43
842.83	215.45
843.14	215.60
843.46	215.61
843.77	215.50
844.08	215.45
844.40	215.37
844.71	215.35
845.03	215.32
845.34	215.28
845.65	215.22
845.97	215.20
846.28	215.21
846.60	215.25
846.91	215.20
847.22	215.18
847.54	215.20
847.85	215.15
848.16	215.13
848.48	215.06
848.79	215.12
849.10	215.14
849.42	215.13
849.73	214.96
850.04	214.95
850.36	214.88
850.67	214.93
850.98	214.96
851.30	214.97
851.61	214.96
851.92	214.97
852.23	215.06
852.55	215.09
852.86	215.08
853.17	215.08
853.49	215.13
853.80	215.17
854.11	215.21
854.42	215.27
854.74	215.20
855.05	215.23
855.36	215.12
855.67	215.14
855.99	215.14
856.30	215.36
856.61	215.36
856.92	215.34
857.23	215.30
857.55	215.26
857.86	215.23
858.17	215.29
858.48	215.28
858.79	215.25
859.11	215.27
859.42	215.26
859.73	215.23
860.04	215.20
860.35	215.11
860.66	215.06
860.98	215.04
861.29	215.10
861.60	215.10
861.91	215.16
862.22	215.14
862.53	215.09
862.84	214.85
863.16	214.88
863.47	214.85
863.78	214.88
864.09	214.88
864.40	214.93
864.71	214.91
865.02	214.91
865.33	214.90
865.64	214.85
865.95	214.83
866.27	214.99
866.58	214.98
866.89	215.01
867.20	215.02
867.51	214.98
867.82	214.97
868.13	215.00
868.44	214.94
868.75	214.96
869.06	214.97
869.37	214.99
869.68	214.91
869.99	214.93
870.30	214.94
870.61	214.95
870.92	214.87
871.23	214.80
871.54	214.82
871.85	214.84
872.16	214.85
872.47	214.85
872.78	214.69
873.09	214.73
873.40	214.70
873.71	214.69
874.02	214.72
874.33	214.71
874.64	214.67
874.95	214.69
875.26	214.65
875.56	214.66
875.87	214.64
876.18	214.64
876.49	214.85
876.80	214.84
877.11	214.79
877.42	214.81
877.73	214.84
878.04	214.80
878.35	214.77
878.66	214.78
878.96	214.77
879.27	214.75
879.58	214.70
879.89	214.72
880.20	214.76
880.51	214.76
880.82	214.77
881.12	214.79
881.43	214.76
881.74	214.75
882.05	214.73
882.36	214.75
882.67	214.79
882.97	214.57
883.28	214.54
883.59	214.54
883.90	214.56
884.21	214.60
884.51	214.59
884.82	214.59
885.13	214.57
885.44	214.53
885.74	214.52
886.05	214.48
886.36	214.46
886.67	214.39
886.98	214.46
887.28	214.47
887.59	214.42
887.90	214.45
888.20	214.44
888.51	214.51
888.82	214.48
889.13	214.48
889.43	214.65
889.74	214.65
890.05	214.62
890.35	214.60
890.66	214.56
890.97	214.51
891.28	214.46
891.58	214.48
891.89	214.49
892.20	214.50
892.50	214.49
892.81	214.50
893.12	214.52
893.42	214.39
893.73	214.35
894.04	214.36
894.34	214.36
894.65	214.37
894.95	214.29
895.26	214.29
895.57	214.40
895.87	214.20
896.18	214.24
896.48	214.26
896.79	214.25
897.10	214.31
897.40	214.37
897.71	214.41
898.01	214.38
898.32	214.42
898.63	214.42
898.93	214.46
899.24	214.47
899.54	214.45
899.85	214.47
900.15	214.48
900.46	214.50
900.76	214.48
901.07	214.45
901.38	214.46
901.68	214.46
901.99	214.33
902.29	214.33
902.60	214.29
902.90	214.27
903.21	214.26
903.51	214.20
903.82	214.22
904.12	214.19
904.43	214.23
904.73	214.22
905.03	214.22
905.34	214.40
905.64	214.39
905.95	214.38
906.25	214.37
906.56	214.39
906.86	214.38
907.17	214.38
907.47	214.44
907.77	214.44
908.08	214.43
908.38	214.44
908.69	214.46
908.99	214.50
909.30	214.51
909.60	214.54
909.90	214.55
910.21	214.50
910.51	214.48
910.81	214.47
911.12	214.50
911.42	214.51
911.73	214.28
912.03	214.32
912.33	214.40
912.64	214.42
912.94	214.39
913.24	214.34
913.55	214.33
913.85	214.28
914.15	214.31
914.46	214.33
914.76	214.31
915.06	214.28
915.37	214.25
915.67	214.28
915.97	214.27
916.27	214.25
916.58	214.23
916.88	214.22
917.18	214.22
917.49	214.31
917.79	214.31
918.09	214.37
918.39	214.38
918.70	214.34
919.00	214.33
919.30	214.41
919.60	214.42
919.91	214.39
920.21	214.41
920.51	214.37
920.81	214.36
921.12	214.41
921.42	214.43
921.72	214.43
922.02	214.43
922.32	214.46
922.63	214.45
922.93	214.55
923.23	214.56
923.53	214.53
923.83	214.42
924.13	214.42
924.44	214.42
924.74	214.47
925.04	214.53
925.34	214.52
925.64	214.42
925.94	214.43
926.24	214.56
926.55	214.53
926.85	214.57
927.15	214.57
927.45	214.54
927.75	214.55
928.05	214.57
928.35	214.53
928.65	214.54
928.95	214.59
929.26	214.55
929.56	214.61
929.86	214.64
930.16	214.62
930.46	214.60
930.76	214.60
931.06	214.49
931.36	214.43
931.66	214.47
931.96	214.50
932.26	214.53
932.56	214.41
932.86	214.44
933.16	214.42
933.46	214.39
933.76	214.36
934.06	214.42
934.36	214.47
934.66	214.47
934.96	214.43
935.26	214.43
935.56	214.42
935.86	214.36
936.16	214.34
936.46	214.34
936.76	214.32
937.06	214.30
937.36	214.31
937.66	214.29
937.96	214.29
938.26	214.27
938.56	214.25
938.86	214.28
939.16	214.32
939.46	214.33
939.76	214.31
940.06	214.31
940.35	214.25
940.65	214.15
940.95	214.16
941.25	214.15
941.55	214.10
941.85	214.09
942.15	214.13
942.45	214.17
942.75	214.15
943.04	214.15
943.34	214.19
943.64	214.12
943.94	214.09
944.24	214.08
944.54	214.08
944.84	214.08
945.13	214.07
945.43	214.02
945.73	214.00
946.03	213.98
946.33	213.99
946.62	213.94
946.92	213.94
947.22	213.95
947.52	213.96
947.82	214.00
948.11	213.97
948.41	213.94
948.71	213.89
949.01	213.93
949.31	213.94
949.60	213.92
949.90	213.97
950.20	213.98
950.50	213.96
950.79	213.97
951.09	213.98
951.39	213.94
951.69	213.93
951.98	213.97
952.28	213.99
952.58	214.00
952.87	213.99
953.17	214.02
953.47	214.00
953.76	213.97
954.06	213.95
954.36	213.91
954.66	213.87
954.95	213.93
955.25	213.92
955.55	213.93
955.84	213.89
956.14	213.91
956.44	213.92
956.73	213.91
957.03	213.93
957.32	213.95
957.62	213.98
957.92	214.01
958.21	213.99
958.51	214.24
958.81	214.26
959.10	214.32
959.40	214.36
959.69	214.37
959.99	214.42
960.29	214.41
960.58	214.42
960.88	214.50
961.17	214.47
961.47	214.48
961.76	214.46
962.06	214.50
962.36	214.49
962.65	214.50
962.95	214.51
963.24	214.49
963.54	214.48
963.83	214.49
964.13	214.51
964.42	214.48
964.72	214.31
965.01	214.32
965.31	214.27
965.60	214.21
965.90	214.34
966.19	214.27
966.49	214.28
966.78	214.28
967.08	214.31
967.37	214.30
967.67	214.30
967.96	214.33
968.26	214.36
968.55	214.39
968.85	214.38
969.14	214.40
969.43	214.39
969.73	214.38
970.02	214.37
970.32	214.34
970.61	214.31
970.91	214.23
971.20	214.21
971.49	214.20
971.79	214.22
972.08	214.08
972.38	214.11
972.67	214.10
972.96	214.17
973.26	214.09
973.55	214.13
973.85	214.08
974.14	214.05
974.43	214.02
974.73	213.98
975.02	213.97
975.31	213.99
975.61	214.02
975.90	214.00
976.19	213.93
976.49	213.95
976.78	214.02
977.07	214.04
977.37	214.04
977.66	214.07
977.95	214.03
978.24	214.03
978.54	214.06
978.83	214.06
979.12	214.02
979.42	214.03
979.71	214.01
980.00	214.03
980.29	214.07
980.59	214.05
980.88	214.09
981.17	214.08
981.46	214.04
981.76	214.04
982.05	214.09
982.34	214.12
982.63	214.12
982.93	214.10
983.22	214.16
983.51	214.18
983.80	214.18
984.09	214.21
984.39	214.21
984.68	214.21
984.97	214.19
985.26	214.18
985.55	214.19
985.85	214.17
986.14	214.22
986.43	214.21
986.72	214.19
987.01	214.12
987.30	214.13
987.59	214.11
987.89	214.09
988.18	214.04
988.47	214.02
988.76	214.00
989.05	213.97
989.34	213.93
989.63	213.97
989.92	213.94
990.22	213.93
990.51	213.95
990.80	213.90
991.09	213.93
991.38	213.93
991.67	213.88
991.96	213.84
992.25	213.82
992.54	213.78
992.83	213.79
993.12	213.77
993.41	213.80
993.70	213.89
993.99	213.94
994.28	213.95
994.58	213.99
994.87	213.95
995.16	213.93
995.45	213.90
995.74	213.79
996.03	213.85
996.32	213.87
996.61	213.87
996.90	213.89
997.19	213.88
997.48	213.89
997.77	213.93
998.06	213.96
998.34	213.95
998.63	213.91
998.92	213.93
999.21	213.99
999.50	213.97
999.79	213.91
1000.08	213.88
1000.37	213.91
1000.66	213.88
1000.95	213.94
1001.24	213.97
1001.53	214.01
1001.82	214.03
1002.11	213.97
1002.40	214.01
1002.68	214.07
1002.97	214.23
1003.26	214.21
1003.55	214.21
1003.84	214.21
1004.13	214.27
1004.42	214.27
1004.71	214.34
1004.99	214.31
1005.28	214.37
1005.57	214.38
1005.86	214.33
1006.15	214.33
1006.44	214.31
1006.72	214.35
1007.01	214.30
1007.30	214.31
1007.59	214.30
1007.88	214.30
1008.17	214.32
1008.45	214.25
1008.74	214.16
1009.03	214.08
1009.32	214.08
1009.60	214.07
1009.89	214.04
1010.18	213.94
1010.47	213.92
1010.76	213.88
1011.04	213.89
1011.33	213.89
1011.62	213.88
1011.91	213.92
1012.19	213.92
1012.48	213.92
1012.77	213.92
1013.05	214.05
1013.34	214.04
1013.63	214.01
1013.92	214.03
1014.20	214.00
1014.49	214.02
1014.78	214.04
1015.06	213.95
1015.35	213.92
1015.64	213.93
1015.92	213.95
1016.21	213.98
1016.50	213.98
1016.78	214.06
1017.07	214.07
1017.36	214.02
1017.64	213.98
1017.93	214.00
1018.22	213.98
1018.50	213.97
1018.79	213.95
1019.08	213.84
1019.36	213.86
1019.65	213.83
1019.93	213.86
1020.22	213.90
1020.51	214.02
1020.79	214.01
1021.08	213.54
1021.36	213.66
1021.65	214.15
1021.94	213.90
1022.22	214.08
1022.51	213.15
1022.79	214.75
1023.08	214.37
1023.36	216.37
1023.65	213.60
>>>>>End Processed Spectral Data<<<<<
