SpectraSuite Data File
++++++++++++++++++++++++++++++++++++
Date: Tue Jan 29 15:57:24 EST 2013
User: group
Dark Spectrum Present: No
Reference Spectrum Present: No
Number of Sampled Component Spectra: 1
Spectrometers: USB2E7196
Integration Time (usec): 65000 (USB2E7196)
Spectra Averaged: 100 (USB2E7196)
Boxcar Smoothing: 10 (USB2E7196)
Correct for Electrical Dark: No (USB2E7196)
Strobe/Lamp Enabled: No (USB2E7196)
Correct for Detector Non-linearity: No (USB2E7196)
Correct for Stray Light: No (USB2E7196)
Number of Pixels in Processed Spectrum: 2048
>>>>>Begin Processed Spectral Data<<<<<
339.09	0.00
339.48	202.35
339.86	205.09
340.24	205.42
340.63	207.41
341.01	211.62
341.39	210.35
341.78	211.05
342.16	212.82
342.54	213.53
342.93	202.23
343.31	212.44
343.69	213.01
344.07	213.46
344.46	213.94
344.84	214.38
345.22	214.55
345.60	214.80
345.99	215.03
346.37	215.20
346.75	215.29
347.13	215.35
347.52	215.44
347.90	215.53
348.28	215.61
348.66	215.67
349.05	215.68
349.43	215.74
349.81	215.84
350.19	215.88
350.57	215.95
350.96	216.02
351.34	216.12
351.72	216.22
352.10	216.33
352.48	216.39
352.87	216.40
353.25	216.48
353.63	216.55
354.01	216.60
354.39	216.68
354.77	216.78
355.15	216.87
355.54	216.88
355.92	216.92
356.30	216.97
356.68	217.16
357.06	217.21
357.44	217.26
357.82	217.29
358.20	217.36
358.58	217.41
358.97	217.46
359.35	217.56
359.73	217.70
360.11	217.75
360.49	217.79
360.87	217.84
361.25	217.89
361.63	217.99
362.01	218.06
362.39	218.01
362.77	218.06
363.15	218.08
363.53	218.17
363.91	218.17
364.29	218.17
364.67	218.04
365.05	218.10
365.43	218.10
365.81	218.15
366.19	218.24
366.57	218.30
366.95	218.32
367.33	218.28
367.71	218.26
368.09	218.27
368.47	218.27
368.85	218.22
369.23	218.25
369.61	218.16
369.99	218.19
370.37	218.21
370.75	218.25
371.13	218.21
371.51	218.11
371.89	218.13
372.27	218.11
372.65	218.07
373.03	218.02
373.41	217.99
373.78	217.92
374.16	217.77
374.54	217.67
374.92	217.61
375.30	217.56
375.68	217.43
376.06	217.38
376.44	217.31
376.82	217.30
377.19	217.22
377.57	217.19
377.95	217.07
378.33	217.03
378.71	216.88
379.09	216.84
379.47	216.83
379.84	216.74
380.22	216.69
380.60	216.61
380.98	216.56
381.36	216.52
381.73	216.47
382.11	216.46
382.49	216.45
382.87	216.36
383.25	216.33
383.62	216.56
384.00	216.51
384.38	216.48
384.76	216.53
385.13	216.56
385.51	216.49
385.89	216.45
386.27	216.45
386.64	216.45
387.02	216.39
387.40	216.38
387.78	216.38
388.15	216.39
388.53	216.40
388.91	216.37
389.29	216.37
389.66	216.39
390.04	216.34
390.42	216.36
390.79	216.40
391.17	216.39
391.55	216.15
391.92	216.16
392.30	216.16
392.68	216.10
393.05	216.07
393.43	216.07
393.81	216.11
394.18	216.05
394.56	216.08
394.94	216.17
395.31	216.15
395.69	216.21
396.06	216.19
396.44	216.21
396.82	216.20
397.19	216.31
397.57	216.31
397.95	216.41
398.32	216.38
398.70	216.42
399.07	216.51
399.45	216.56
399.82	216.56
400.20	216.61
400.58	216.68
400.95	216.70
401.33	216.82
401.70	217.01
402.08	217.12
402.45	217.18
402.83	217.30
403.20	217.42
403.58	217.51
403.95	217.70
404.33	217.85
404.71	217.99
405.08	218.24
405.46	218.42
405.83	218.58
406.21	218.79
406.58	219.00
406.96	219.22
407.33	219.49
407.70	219.82
408.08	220.26
408.45	220.56
408.83	220.92
409.20	221.27
409.58	221.51
409.95	221.94
410.33	222.39
410.70	222.82
411.08	223.35
411.45	223.91
411.82	224.45
412.20	225.11
412.57	225.92
412.95	226.42
413.32	227.22
413.69	228.03
414.07	228.88
414.44	229.81
414.82	230.76
415.19	231.85
415.56	232.98
415.94	234.07
416.31	235.46
416.68	236.81
417.06	238.34
417.43	239.87
417.81	241.57
418.18	243.27
418.55	245.10
418.93	247.05
419.30	249.03
419.67	251.16
420.04	253.35
420.42	255.63
420.79	258.34
421.16	261.02
421.54	263.81
421.91	266.66
422.28	269.66
422.66	272.86
423.03	276.00
423.40	279.20
423.77	282.66
424.15	286.16
424.52	289.87
424.89	293.89
425.26	297.82
425.64	301.56
426.01	305.69
426.38	309.99
426.75	314.33
427.13	318.88
427.50	323.68
427.87	328.67
428.24	333.70
428.61	338.50
428.99	343.82
429.36	349.56
429.73	355.29
430.10	360.94
430.47	366.71
430.85	372.73
431.22	379.23
431.59	386.07
431.96	392.67
432.33	399.88
432.70	406.88
433.08	415.03
433.45	422.75
433.82	430.47
434.19	439.01
434.56	447.40
434.93	455.44
435.30	463.37
435.68	472.10
436.05	480.68
436.42	489.27
436.79	497.09
437.16	505.57
437.53	514.45
437.90	523.22
438.27	531.84
438.64	540.72
439.01	548.91
439.38	556.24
439.75	563.25
440.13	571.27
440.50	578.91
440.87	585.08
441.24	591.46
441.61	598.53
441.98	603.72
442.35	609.78
442.72	615.79
443.09	621.51
443.46	625.08
443.83	627.46
444.20	629.52
444.57	632.47
444.94	633.87
445.31	635.19
445.68	636.54
446.05	637.13
446.42	636.35
446.79	635.41
447.16	634.37
447.53	633.55
447.90	630.34
448.27	627.07
448.64	622.61
449.01	619.36
449.37	613.60
449.74	608.11
450.11	601.48
450.48	594.33
450.85	587.28
451.22	581.10
451.59	575.25
451.96	569.60
452.33	562.05
452.70	555.13
453.07	547.02
453.43	538.70
453.80	530.74
454.17	523.14
454.54	515.86
454.91	507.96
455.28	500.37
455.65	493.30
456.02	486.18
456.38	480.13
456.75	472.69
457.12	466.44
457.49	460.28
457.86	454.37
458.23	449.33
458.59	443.67
458.96	437.99
459.33	432.97
459.70	427.87
460.07	423.83
460.43	419.21
460.80	414.85
461.17	411.08
461.54	407.07
461.91	403.21
462.27	399.28
462.64	396.02
463.01	392.33
463.38	388.81
463.74	385.25
464.11	382.13
464.48	379.35
464.85	376.38
465.21	373.99
465.58	371.45
465.95	368.41
466.32	365.88
466.68	363.36
467.05	360.85
467.42	358.45
467.78	355.88
468.15	353.43
468.52	351.60
468.88	349.20
469.25	347.08
469.62	345.38
469.98	343.54
470.35	341.81
470.72	340.24
471.08	338.50
471.45	337.09
471.82	335.68
472.18	334.12
472.55	333.03
472.92	331.73
473.28	330.61
473.65	329.51
474.02	328.43
474.38	327.60
474.75	326.87
475.11	326.08
475.48	325.57
475.85	325.18
476.21	324.73
476.58	324.45
476.94	324.27
477.31	323.99
477.67	323.78
478.04	323.71
478.41	323.71
478.77	323.93
479.14	323.92
479.50	324.02
479.87	324.34
480.23	324.63
480.60	324.94
480.96	325.26
481.33	325.87
481.69	326.50
482.06	327.02
482.42	327.53
482.79	328.13
483.15	328.93
483.52	329.89
483.88	330.80
484.25	331.75
484.61	332.76
484.98	333.81
485.34	335.10
485.71	336.46
486.07	337.97
486.44	339.25
486.80	340.84
487.17	342.52
487.53	344.34
487.90	346.19
488.26	348.17
488.62	350.31
488.99	352.38
489.35	354.54
489.72	356.91
490.08	359.47
490.44	362.07
490.81	364.80
491.17	367.51
491.54	370.45
491.90	373.48
492.26	376.74
492.63	380.17
492.99	383.69
493.36	387.33
493.72	391.14
494.08	395.20
494.45	399.42
494.81	403.78
495.17	408.21
495.54	412.97
495.90	417.79
496.26	422.74
496.63	427.92
496.99	433.29
497.35	438.89
497.72	444.70
498.08	450.63
498.44	456.67
498.80	463.05
499.17	469.58
499.53	476.29
499.89	483.16
500.26	490.06
500.62	497.11
500.98	504.48
501.34	511.88
501.71	519.61
502.07	527.35
502.43	535.33
502.79	543.38
503.16	551.73
503.52	560.33
503.88	568.93
504.24	577.86
504.60	586.86
504.97	596.02
505.33	605.21
505.69	615.08
506.05	624.89
506.41	634.68
506.78	644.66
507.14	654.84
507.50	665.19
507.86	675.97
508.22	686.69
508.59	697.32
508.95	708.33
509.31	719.57
509.67	730.99
510.03	742.37
510.39	754.14
510.75	765.88
511.12	777.67
511.48	789.76
511.84	801.92
512.20	814.15
512.56	826.70
512.92	839.34
513.28	851.81
513.64	864.45
514.00	877.18
514.37	890.08
514.73	903.10
515.09	915.95
515.45	928.44
515.81	941.39
516.17	954.56
516.53	967.67
516.89	980.56
517.25	993.56
517.61	1006.79
517.97	1019.94
518.33	1032.83
518.69	1046.26
519.05	1059.78
519.41	1073.21
519.77	1086.98
520.13	1100.16
520.49	1113.26
520.85	1126.39
521.21	1139.52
521.57	1153.05
521.93	1165.94
522.29	1179.40
522.65	1192.82
523.01	1206.38
523.37	1219.33
523.73	1232.36
524.09	1245.25
524.45	1258.43
524.81	1271.58
525.17	1284.70
525.53	1297.66
525.89	1310.77
526.25	1323.57
526.61	1336.08
526.97	1348.87
527.33	1361.42
527.68	1374.51
528.04	1387.61
528.40	1400.44
528.76	1413.50
529.12	1425.97
529.48	1438.86
529.84	1450.78
530.20	1463.22
530.56	1475.60
530.91	1488.53
531.27	1501.08
531.63	1513.67
531.99	1526.19
532.35	1538.25
532.71	1550.42
533.07	1562.85
533.42	1574.72
533.78	1586.48
534.14	1598.24
534.50	1609.22
534.86	1620.43
535.21	1631.03
535.57	1642.15
535.93	1653.24
536.29	1664.00
536.65	1675.03
537.00	1685.66
537.36	1696.73
537.72	1707.40
538.08	1718.29
538.44	1728.74
538.79	1739.49
539.15	1749.90
539.51	1760.22
539.87	1771.25
540.22	1781.71
540.58	1792.31
540.94	1802.85
541.29	1812.77
541.65	1822.19
542.01	1832.41
542.37	1842.21
542.72	1852.05
543.08	1861.44
543.44	1871.53
543.79	1880.61
544.15	1889.86
544.51	1899.59
544.87	1909.13
545.22	1917.84
545.58	1926.34
545.94	1934.96
546.29	1943.28
546.65	1951.31
547.01	1959.27
547.36	1966.60
547.72	1974.15
548.07	1981.54
548.43	1989.15
548.79	1996.74
549.14	2004.62
549.50	2012.61
549.86	2020.20
550.21	2027.28
550.57	2034.69
550.92	2041.07
551.28	2048.23
551.64	2055.31
551.99	2062.61
552.35	2069.59
552.70	2076.35
553.06	2082.82
553.41	2088.87
553.77	2095.09
554.13	2101.28
554.48	2108.11
554.84	2114.81
555.19	2121.05
555.55	2127.23
555.90	2133.20
556.26	2139.63
556.61	2145.39
556.97	2150.14
557.32	2155.89
557.68	2162.26
558.03	2167.88
558.39	2173.01
558.74	2178.85
559.10	2184.25
559.45	2189.78
559.81	2195.26
560.16	2200.84
560.52	2206.79
560.87	2213.21
561.23	2219.18
561.58	2225.87
561.94	2231.05
562.29	2235.96
562.64	2242.10
563.00	2247.82
563.35	2253.48
563.71	2259.45
564.06	2265.19
564.42	2271.19
564.77	2276.30
565.12	2281.43
565.48	2286.80
565.83	2292.57
566.19	2298.18
566.54	2303.59
566.89	2308.14
567.25	2312.74
567.60	2318.50
567.96	2323.67
568.31	2328.35
568.66	2332.70
569.02	2336.52
569.37	2340.29
569.72	2344.79
570.08	2348.31
570.43	2351.45
570.78	2354.57
571.14	2357.14
571.49	2360.28
571.84	2364.05
572.20	2367.00
572.55	2370.20
572.90	2372.50
573.26	2375.71
573.61	2378.32
573.96	2380.59
574.31	2382.84
574.67	2384.87
575.02	2385.87
575.37	2387.41
575.72	2388.33
576.08	2389.93
576.43	2390.45
576.78	2391.41
577.13	2393.36
577.49	2394.64
577.84	2396.18
578.19	2397.93
578.54	2399.04
578.90	2400.35
579.25	2400.59
579.60	2400.94
579.95	2400.53
580.30	2401.11
580.66	2400.41
581.01	2398.95
581.36	2397.09
581.71	2395.94
582.06	2395.23
582.42	2394.56
582.77	2392.75
583.12	2391.37
583.47	2390.34
583.82	2390.21
584.17	2389.17
584.53	2387.08
584.88	2385.45
585.23	2383.63
585.58	2381.46
585.93	2379.45
586.28	2377.51
586.63	2375.21
586.98	2373.15
587.34	2371.47
587.69	2369.19
588.04	2367.54
588.39	2366.27
588.74	2363.98
589.09	2361.56
589.44	2358.72
589.79	2356.46
590.14	2354.85
590.49	2352.26
590.84	2348.70
591.19	2345.72
591.54	2342.46
591.89	2338.77
592.25	2335.53
592.60	2331.64
592.95	2327.76
593.30	2323.87
593.65	2319.47
594.00	2315.32
594.35	2312.31
594.70	2307.94
595.05	2303.53
595.40	2298.22
595.75	2292.88
596.10	2289.38
596.45	2284.64
596.80	2280.12
597.15	2275.11
597.50	2269.27
597.85	2264.47
598.19	2259.40
598.54	2253.69
598.89	2248.81
599.24	2244.28
599.59	2238.39
599.94	2232.81
600.29	2227.11
600.64	2221.25
600.99	2214.78
601.34	2209.43
601.69	2202.57
602.04	2196.11
602.39	2189.68
602.74	2183.77
603.08	2178.27
603.43	2172.03
603.78	2165.40
604.13	2158.43
604.48	2151.28
604.83	2145.40
605.18	2139.30
605.53	2132.43
605.87	2125.38
606.22	2118.74
606.57	2111.06
606.92	2103.26
607.27	2096.35
607.62	2089.70
607.96	2082.74
608.31	2076.30
608.66	2068.70
609.01	2061.36
609.36	2054.34
609.70	2046.79
610.05	2039.08
610.40	2030.90
610.75	2022.48
611.10	2014.87
611.44	2006.35
611.79	1997.70
612.14	1987.55
612.49	1977.13
612.83	1967.96
613.18	1959.08
613.53	1949.70
613.88	1940.03
614.22	1931.47
614.57	1921.54
614.92	1911.02
615.27	1901.10
615.61	1891.11
615.96	1881.32
616.31	1871.81
616.65	1862.52
617.00	1852.47
617.35	1842.72
617.70	1832.98
618.04	1822.98
618.39	1812.66
618.74	1802.83
619.08	1793.34
619.43	1784.71
619.78	1776.43
620.12	1767.64
620.47	1757.74
620.82	1747.55
621.16	1737.82
621.51	1727.86
621.85	1718.10
622.20	1707.63
622.55	1697.01
622.89	1687.12
623.24	1677.47
623.59	1667.65
623.93	1657.40
624.28	1647.82
624.62	1637.75
624.97	1627.42
625.32	1617.80
625.66	1608.95
626.01	1599.89
626.35	1590.41
626.70	1580.30
627.04	1569.97
627.39	1560.02
627.73	1550.69
628.08	1541.53
628.43	1531.94
628.77	1522.73
629.12	1513.68
629.46	1505.82
629.81	1497.35
630.15	1487.84
630.50	1477.96
630.84	1467.53
631.19	1457.67
631.53	1448.24
631.88	1438.01
632.22	1428.02
632.57	1418.56
632.91	1408.35
633.26	1398.64
633.60	1389.03
633.95	1379.64
634.29	1370.30
634.64	1360.79
634.98	1350.93
635.32	1341.67
635.67	1333.11
636.01	1323.91
636.36	1314.15
636.70	1304.64
637.05	1295.29
637.39	1286.22
637.73	1277.54
638.08	1269.89
638.42	1261.63
638.77	1252.80
639.11	1244.51
639.45	1236.50
639.80	1227.65
640.14	1218.98
640.49	1210.06
640.83	1201.22
641.17	1193.13
641.52	1184.88
641.86	1176.26
642.20	1168.37
642.55	1159.75
642.89	1150.85
643.23	1142.03
643.58	1133.90
643.92	1124.77
644.26	1116.07
644.61	1107.51
644.95	1098.68
645.29	1089.33
645.64	1080.06
645.98	1071.73
646.32	1063.84
646.66	1055.39
647.01	1047.15
647.35	1039.03
647.69	1030.55
648.04	1022.18
648.38	1013.20
648.72	1004.44
649.06	996.00
649.41	987.75
649.75	979.69
650.09	971.74
650.43	963.75
650.78	955.52
651.12	947.87
651.46	940.50
651.80	933.33
652.14	926.00
652.49	918.53
652.83	911.31
653.17	903.58
653.51	895.90
653.85	888.63
654.20	881.44
654.54	873.79
654.88	866.76
655.22	859.66
655.56	852.77
655.90	845.98
656.25	839.34
656.59	832.38
656.93	825.41
657.27	818.40
657.61	811.55
657.95	805.51
658.29	799.72
658.64	793.56
658.98	787.17
659.32	780.68
659.66	774.55
660.00	768.20
660.34	762.13
660.68	756.08
661.02	749.82
661.36	743.94
661.70	738.31
662.05	732.65
662.39	727.17
662.73	721.81
663.07	716.43
663.41	710.92
663.75	705.38
664.09	699.82
664.43	694.52
664.77	689.17
665.11	683.36
665.45	677.48
665.79	671.66
666.13	666.02
666.47	660.63
666.81	655.22
667.15	649.92
667.49	644.80
667.83	639.58
668.17	634.40
668.51	629.33
668.85	624.45
669.19	619.60
669.53	614.68
669.87	609.68
670.21	605.06
670.55	600.38
670.89	596.03
671.23	591.75
671.57	587.40
671.91	583.10
672.25	579.10
672.58	574.95
672.92	570.95
673.26	567.06
673.60	563.28
673.94	559.57
674.28	555.99
674.62	552.31
674.96	548.63
675.30	545.14
675.64	541.55
675.97	537.97
676.31	534.48
676.65	530.95
676.99	527.49
677.33	523.65
677.67	520.05
678.01	516.20
678.34	512.63
678.68	509.16
679.02	505.67
679.36	502.03
679.70	498.51
680.04	495.09
680.37	491.69
680.71	488.37
681.05	485.17
681.39	482.04
681.73	478.88
682.06	475.92
682.40	472.90
682.74	469.74
683.08	466.63
683.42	463.50
683.75	460.54
684.09	457.63
684.43	454.91
684.77	452.01
685.10	449.27
685.44	446.41
685.78	443.56
686.12	440.83
686.45	438.15
686.79	435.53
687.13	432.98
687.46	430.43
687.80	427.81
688.14	425.08
688.48	422.47
688.81	419.93
689.15	417.41
689.49	414.88
689.82	412.41
690.16	409.94
690.50	407.54
690.83	405.11
691.17	402.62
691.51	400.26
691.84	398.09
692.18	395.94
692.52	393.83
692.85	391.76
693.19	389.66
693.52	387.54
693.86	385.41
694.20	383.35
694.53	381.25
694.87	379.12
695.21	377.01
695.54	374.86
695.88	372.71
696.21	370.57
696.55	368.54
696.88	366.54
697.22	364.61
697.56	362.79
697.89	360.97
698.23	359.25
698.56	357.47
698.90	355.72
699.23	353.78
699.57	351.92
699.90	350.05
700.24	348.35
700.58	346.62
700.91	345.02
701.25	343.51
701.58	341.94
701.92	340.40
702.25	338.91
702.59	337.41
702.92	335.93
703.26	334.40
703.59	332.97
703.93	331.76
704.26	330.33
704.60	328.80
704.93	327.32
705.26	325.89
705.60	324.47
705.93	323.05
706.27	321.79
706.60	320.61
706.94	319.48
707.27	318.07
707.61	316.78
707.94	315.43
708.27	313.94
708.61	312.52
708.94	311.15
709.28	309.92
709.61	308.68
709.94	307.55
710.28	306.39
710.61	305.24
710.95	303.85
711.28	302.84
711.61	301.72
711.95	300.67
712.28	299.54
712.61	298.36
712.95	297.35
713.28	296.35
713.61	295.21
713.95	294.06
714.28	293.09
714.61	292.07
714.95	291.10
715.28	290.11
715.61	289.14
715.95	288.25
716.28	287.28
716.61	286.38
716.95	285.35
717.28	284.45
717.61	283.46
717.94	282.56
718.28	281.52
718.61	280.67
718.94	279.77
719.27	278.97
719.61	278.24
719.94	277.36
720.27	276.46
720.60	275.63
720.94	274.86
721.27	274.14
721.60	273.47
721.93	272.77
722.27	272.17
722.60	271.51
722.93	270.86
723.26	270.21
723.59	269.47
723.93	268.88
724.26	268.23
724.59	267.66
724.92	267.09
725.25	266.60
725.59	266.06
725.92	265.57
726.25	264.98
726.58	264.39
726.91	263.79
727.24	263.29
727.57	262.77
727.91	262.14
728.24	261.57
728.57	261.02
728.90	260.51
729.23	259.91
729.56	259.52
729.89	258.95
730.22	258.40
730.55	257.90
730.89	257.38
731.22	256.90
731.55	256.39
731.88	255.91
732.21	255.36
732.54	254.83
732.87	254.34
733.20	253.85
733.53	253.40
733.86	253.03
734.19	252.53
734.52	252.12
734.85	251.86
735.18	251.45
735.51	251.06
735.84	250.65
736.17	250.24
736.50	249.73
736.83	249.58
737.16	249.21
737.49	248.89
737.82	248.51
738.15	248.17
738.48	247.79
738.81	247.44
739.14	247.06
739.47	246.70
739.80	246.30
740.13	245.97
740.46	245.58
740.79	245.18
741.12	244.87
741.45	244.51
741.78	244.09
742.11	243.81
742.44	243.45
742.77	243.11
743.10	242.82
743.43	242.46
743.75	241.92
744.08	241.90
744.41	241.56
744.74	241.21
745.07	240.85
745.40	240.58
745.73	240.31
746.06	240.01
746.39	239.73
746.71	239.42
747.04	239.09
747.37	238.81
747.70	238.53
748.03	238.24
748.36	238.01
748.68	237.70
749.01	237.38
749.34	237.09
749.67	236.86
750.00	236.57
750.33	236.49
750.65	236.26
750.98	235.73
751.31	235.51
751.64	235.29
751.97	235.15
752.29	234.88
752.62	234.58
752.95	234.35
753.28	234.06
753.60	233.85
753.93	233.69
754.26	233.51
754.59	233.25
754.91	232.99
755.24	232.75
755.57	232.55
755.90	232.33
756.22	232.13
756.55	231.87
756.88	231.64
757.20	231.29
757.53	231.03
757.86	230.81
758.19	230.58
758.51	230.38
758.84	230.10
759.17	229.89
759.49	229.71
759.82	229.60
760.15	229.42
760.47	229.24
760.80	228.99
761.13	228.82
761.45	228.63
761.78	228.49
762.11	228.31
762.43	228.15
762.76	227.99
763.08	227.87
763.41	227.73
763.74	227.58
764.06	227.43
764.39	227.31
764.71	227.15
765.04	227.02
765.37	226.91
765.69	226.78
766.02	226.63
766.34	226.50
766.67	226.30
767.00	226.26
767.32	226.25
767.65	226.25
767.97	226.06
768.30	226.00
768.62	225.88
768.95	225.74
769.27	225.60
769.60	225.51
769.92	225.34
770.25	225.21
770.57	225.06
770.90	224.95
771.22	224.82
771.55	224.75
771.87	224.62
772.20	224.51
772.52	224.58
772.85	224.75
773.17	224.64
773.50	224.55
773.82	224.41
774.15	224.18
774.47	223.97
774.80	223.89
775.12	223.75
775.45	223.63
775.77	223.58
776.09	223.50
776.42	223.37
776.74	223.33
777.07	223.24
777.39	223.19
777.72	223.08
778.04	223.03
778.36	222.93
778.69	222.91
779.01	222.80
779.33	222.55
779.66	222.23
779.98	222.13
780.31	222.08
780.63	222.04
780.95	222.01
781.28	221.93
781.60	221.85
781.92	221.76
782.25	221.73
782.57	221.63
782.89	221.55
783.22	221.46
783.54	221.33
783.86	221.28
784.19	221.19
784.51	221.19
784.83	221.11
785.16	221.04
785.48	220.98
785.80	220.95
786.12	220.90
786.45	220.84
786.77	220.79
787.09	220.71
787.42	220.59
787.74	220.55
788.06	220.50
788.38	220.44
788.71	220.41
789.03	220.34
789.35	220.34
789.67	220.28
789.99	220.25
790.32	220.23
790.64	220.20
790.96	220.30
791.28	220.19
791.61	220.11
791.93	220.09
792.25	220.01
792.57	220.10
792.89	220.01
793.21	220.00
793.54	219.95
793.86	219.87
794.18	219.83
794.50	219.73
794.82	219.70
795.14	219.68
795.47	219.66
795.79	219.64
796.11	219.55
796.43	219.49
796.75	219.46
797.07	219.43
797.39	219.37
797.71	219.14
798.04	219.10
798.36	219.05
798.68	218.98
799.00	218.96
799.32	218.79
799.64	218.80
799.96	218.74
800.28	218.75
800.60	218.73
800.92	218.72
801.24	218.68
801.56	218.66
801.89	218.60
802.21	218.64
802.53	218.57
802.85	218.59
803.17	218.65
803.49	218.57
803.81	218.49
804.13	218.47
804.45	218.45
804.77	218.48
805.09	218.47
805.41	218.44
805.73	218.38
806.05	218.32
806.37	218.27
806.69	218.22
807.01	218.17
807.33	218.15
807.65	218.04
807.97	218.12
808.28	218.08
808.60	218.02
808.92	217.94
809.24	218.00
809.56	217.92
809.88	217.83
810.20	217.83
810.52	217.86
810.84	217.79
811.16	217.77
811.48	217.71
811.80	217.78
812.12	217.74
812.43	217.75
812.75	217.73
813.07	217.72
813.39	217.71
813.71	217.65
814.03	217.61
814.35	217.60
814.67	217.49
814.98	217.43
815.30	217.43
815.62	217.35
815.94	217.23
816.26	217.24
816.58	217.21
816.89	217.19
817.21	217.14
817.53	217.14
817.85	217.13
818.17	217.12
818.48	217.01
818.80	217.05
819.12	217.04
819.44	216.98
819.76	216.92
820.07	216.89
820.39	216.91
820.71	216.93
821.03	216.91
821.34	216.87
821.66	216.91
821.98	216.91
822.30	216.88
822.61	216.99
822.93	216.93
823.25	216.90
823.57	216.91
823.88	216.92
824.20	216.91
824.52	216.92
824.83	216.90
825.15	216.83
825.47	216.79
825.79	216.77
826.10	216.78
826.42	216.74
826.74	216.74
827.05	216.70
827.37	216.68
827.69	216.66
828.00	216.66
828.32	216.62
828.64	216.58
828.95	216.73
829.27	216.65
829.58	216.63
829.90	216.66
830.22	216.61
830.53	216.52
830.85	216.50
831.17	216.46
831.48	216.45
831.80	216.48
832.11	216.46
832.43	216.39
832.75	216.37
833.06	216.52
833.38	216.48
833.69	216.48
834.01	216.48
834.32	216.47
834.64	216.49
834.96	216.51
835.27	216.49
835.59	216.36
835.90	216.33
836.22	216.35
836.53	216.24
836.85	216.21
837.16	216.50
837.48	216.47
837.79	216.50
838.11	216.51
838.42	216.52
838.74	216.52
839.05	216.50
839.37	216.46
839.68	216.33
840.00	216.31
840.31	216.33
840.63	216.30
840.94	216.25
841.26	216.20
841.57	216.19
841.88	216.23
842.20	216.21
842.51	216.17
842.83	216.18
843.14	216.39
843.46	216.43
843.77	216.26
844.08	216.28
844.40	216.23
844.71	216.17
845.03	216.15
845.34	216.13
845.65	216.11
845.97	216.13
846.28	216.12
846.60	216.15
846.91	216.08
847.22	216.08
847.54	216.16
847.85	216.17
848.16	216.11
848.48	216.06
848.79	216.14
849.10	216.17
849.42	216.15
849.73	215.97
850.04	215.94
850.36	215.88
850.67	215.86
850.98	215.84
851.30	215.87
851.61	215.84
851.92	215.82
852.23	215.89
852.55	215.90
852.86	215.93
853.17	215.92
853.49	215.97
853.80	215.98
854.11	215.99
854.42	216.00
854.74	215.98
855.05	216.00
855.36	215.90
855.67	215.85
855.99	215.82
856.30	216.07
856.61	216.07
856.92	216.05
857.23	216.05
857.55	216.05
857.86	216.03
858.17	216.09
858.48	216.06
858.79	216.05
859.11	216.07
859.42	216.06
859.73	216.01
860.04	216.00
860.35	215.97
860.66	215.89
860.98	215.87
861.29	215.90
861.60	215.86
861.91	215.91
862.22	215.92
862.53	215.88
862.84	215.61
863.16	215.68
863.47	215.64
863.78	215.61
864.09	215.63
864.40	215.61
864.71	215.62
865.02	215.64
865.33	215.61
865.64	215.53
865.95	215.52
866.27	215.70
866.58	215.68
866.89	215.70
867.20	215.69
867.51	215.68
867.82	215.69
868.13	215.75
868.44	215.68
868.75	215.70
869.06	215.75
869.37	215.77
869.68	215.66
869.99	215.68
870.30	215.67
870.61	215.69
870.92	215.67
871.23	215.65
871.54	215.66
871.85	215.70
872.16	215.72
872.47	215.70
872.78	215.53
873.09	215.51
873.40	215.51
873.71	215.55
874.02	215.58
874.33	215.53
874.64	215.47
874.95	215.53
875.26	215.49
875.56	215.50
875.87	215.48
876.18	215.51
876.49	215.73
876.80	215.72
877.11	215.65
877.42	215.65
877.73	215.63
878.04	215.60
878.35	215.58
878.66	215.61
878.96	215.60
879.27	215.60
879.58	215.61
879.89	215.59
880.20	215.64
880.51	215.61
880.82	215.65
881.12	215.68
881.43	215.63
881.74	215.62
882.05	215.60
882.36	215.63
882.67	215.64
882.97	215.42
883.28	215.42
883.59	215.43
883.90	215.47
884.21	215.51
884.51	215.49
884.82	215.48
885.13	215.51
885.44	215.50
885.74	215.48
886.05	215.46
886.36	215.44
886.67	215.36
886.98	215.46
887.28	215.46
887.59	215.44
887.90	215.45
888.20	215.43
888.51	215.42
888.82	215.39
889.13	215.40
889.43	215.57
889.74	215.57
890.05	215.59
890.35	215.57
890.66	215.54
890.97	215.55
891.28	215.54
891.58	215.48
891.89	215.48
892.20	215.49
892.50	215.49
892.81	215.49
893.12	215.48
893.42	215.38
893.73	215.39
894.04	215.37
894.34	215.38
894.65	215.38
894.95	215.37
895.26	215.35
895.57	215.43
895.87	215.25
896.18	215.27
896.48	215.28
896.79	215.25
897.10	215.26
897.40	215.28
897.71	215.29
898.01	215.30
898.32	215.36
898.63	215.34
898.93	215.37
899.24	215.36
899.54	215.36
899.85	215.33
900.15	215.32
900.46	215.36
900.76	215.40
901.07	215.40
901.38	215.41
901.68	215.47
901.99	215.36
902.29	215.38
902.60	215.35
902.90	215.35
903.21	215.33
903.51	215.33
903.82	215.35
904.12	215.35
904.43	215.38
904.73	215.36
905.03	215.36
905.34	215.53
905.64	215.53
905.95	215.55
906.25	215.57
906.56	215.55
906.86	215.54
907.17	215.49
907.47	215.52
907.77	215.49
908.08	215.43
908.38	215.45
908.69	215.45
908.99	215.53
909.30	215.50
909.60	215.53
909.90	215.52
910.21	215.47
910.51	215.42
910.81	215.42
911.12	215.40
911.42	215.44
911.73	215.26
912.03	215.27
912.33	215.30
912.64	215.31
912.94	215.29
913.24	215.27
913.55	215.27
913.85	215.26
914.15	215.33
914.46	215.37
914.76	215.36
915.06	215.37
915.37	215.33
915.67	215.35
915.97	215.35
916.27	215.31
916.58	215.33
916.88	215.33
917.18	215.32
917.49	215.46
917.79	215.42
918.09	215.41
918.39	215.45
918.70	215.39
919.00	215.35
919.30	215.44
919.60	215.43
919.91	215.43
920.21	215.44
920.51	215.36
920.81	215.37
921.12	215.40
921.42	215.38
921.72	215.39
922.02	215.41
922.32	215.45
922.63	215.48
922.93	215.58
923.23	215.63
923.53	215.63
923.83	215.52
924.13	215.55
924.44	215.55
924.74	215.59
925.04	215.67
925.34	215.68
925.64	215.63
925.94	215.59
926.24	215.65
926.55	215.64
926.85	215.68
927.15	215.64
927.45	215.63
927.75	215.62
928.05	215.63
928.35	215.61
928.65	215.62
928.95	215.64
929.26	215.57
929.56	215.57
929.86	215.60
930.16	215.58
930.46	215.58
930.76	215.61
931.06	215.52
931.36	215.46
931.66	215.49
931.96	215.50
932.26	215.57
932.56	215.53
932.86	215.52
933.16	215.55
933.46	215.55
933.76	215.50
934.06	215.54
934.36	215.58
934.66	215.56
934.96	215.50
935.26	215.51
935.56	215.53
935.86	215.47
936.16	215.45
936.46	215.45
936.76	215.43
937.06	215.37
937.36	215.40
937.66	215.41
937.96	215.40
938.26	215.35
938.56	215.30
938.86	215.27
939.16	215.33
939.46	215.31
939.76	215.30
940.06	215.32
940.35	215.27
940.65	215.20
940.95	215.22
941.25	215.17
941.55	215.11
941.85	215.08
942.15	215.15
942.45	215.16
942.75	215.13
943.04	215.13
943.34	215.19
943.64	215.17
943.94	215.13
944.24	215.12
944.54	215.15
944.84	215.13
945.13	215.15
945.43	215.09
945.73	215.08
946.03	215.09
946.33	215.06
946.62	215.05
946.92	215.03
947.22	215.01
947.52	215.08
947.82	215.12
948.11	215.10
948.41	215.05
948.71	214.99
949.01	215.01
949.31	214.99
949.60	214.97
949.90	215.01
950.20	215.04
950.50	215.00
950.79	214.98
951.09	215.05
951.39	215.03
951.69	215.04
951.98	215.08
952.28	215.10
952.58	215.11
952.87	215.14
953.17	215.20
953.47	215.16
953.76	215.12
954.06	215.07
954.36	215.07
954.66	215.05
954.95	215.12
955.25	215.12
955.55	215.15
955.84	215.12
956.14	215.12
956.44	215.08
956.73	215.05
957.03	215.06
957.32	215.02
957.62	215.00
957.92	215.03
958.21	214.99
958.51	215.21
958.81	215.24
959.10	215.24
959.40	215.24
959.69	215.29
959.99	215.31
960.29	215.33
960.58	215.32
960.88	215.39
961.17	215.34
961.47	215.38
961.76	215.35
962.06	215.40
962.36	215.37
962.65	215.39
962.95	215.40
963.24	215.38
963.54	215.41
963.83	215.42
964.13	215.43
964.42	215.38
964.72	215.21
965.01	215.17
965.31	215.17
965.60	215.10
965.90	215.23
966.19	215.20
966.49	215.23
966.78	215.23
967.08	215.24
967.37	215.24
967.67	215.20
967.96	215.26
968.26	215.23
968.55	215.24
968.85	215.27
969.14	215.31
969.43	215.33
969.73	215.31
970.02	215.29
970.32	215.26
970.61	215.23
970.91	215.16
971.20	215.15
971.49	215.11
971.79	215.17
972.08	215.02
972.38	215.02
972.67	214.99
972.96	215.02
973.26	214.97
973.55	215.03
973.85	215.01
974.14	214.97
974.43	214.98
974.73	214.97
975.02	214.95
975.31	214.95
975.61	214.94
975.90	214.92
976.19	214.94
976.49	214.98
976.78	215.03
977.07	215.00
977.37	215.01
977.66	215.05
977.95	215.02
978.24	215.01
978.54	215.06
978.83	215.05
979.12	215.02
979.42	215.01
979.71	214.92
980.00	214.92
980.29	214.92
980.59	214.90
980.88	214.92
981.17	214.91
981.46	214.88
981.76	214.89
982.05	214.97
982.34	214.98
982.63	214.95
982.93	214.95
983.22	215.04
983.51	215.03
983.80	215.06
984.09	215.06
984.39	215.09
984.68	215.08
984.97	215.11
985.26	215.08
985.55	215.13
985.85	215.14
986.14	215.15
986.43	215.17
986.72	215.15
987.01	215.08
987.30	215.09
987.59	215.09
987.89	215.10
988.18	215.00
988.47	214.99
988.76	214.99
989.05	214.98
989.34	214.95
989.63	215.03
989.92	215.01
990.22	214.99
990.51	214.96
990.80	214.94
991.09	214.95
991.38	215.01
991.67	214.98
991.96	214.96
992.25	214.96
992.54	214.94
992.83	214.96
993.12	214.99
993.41	215.00
993.70	215.13
993.99	215.15
994.28	215.19
994.58	215.22
994.87	215.19
995.16	215.16
995.45	215.10
995.74	215.04
996.03	215.06
996.32	215.09
996.61	215.14
996.90	215.16
997.19	215.15
997.48	215.13
997.77	215.09
998.06	215.07
998.34	215.07
998.63	215.08
998.92	215.09
999.21	215.11
999.50	215.13
999.79	215.00
1000.08	215.00
1000.37	215.02
1000.66	214.98
1000.95	215.03
1001.24	215.06
1001.53	215.11
1001.82	215.09
1002.11	215.06
1002.40	215.08
1002.68	215.13
1002.97	215.26
1003.26	215.25
1003.55	215.24
1003.84	215.28
1004.13	215.38
1004.42	215.38
1004.71	215.37
1004.99	215.36
1005.28	215.42
1005.57	215.37
1005.86	215.40
1006.15	215.39
1006.44	215.36
1006.72	215.38
1007.01	215.34
1007.30	215.35
1007.59	215.31
1007.88	215.31
1008.17	215.30
1008.45	215.23
1008.74	215.10
1009.03	215.01
1009.32	214.98
1009.60	214.95
1009.89	214.93
1010.18	214.87
1010.47	214.85
1010.76	214.88
1011.04	214.85
1011.33	214.85
1011.62	214.89
1011.91	214.91
1012.19	214.93
1012.48	214.93
1012.77	214.94
1013.05	215.04
1013.34	215.03
1013.63	215.06
1013.92	215.08
1014.20	215.05
1014.49	215.12
1014.78	215.16
1015.06	215.07
1015.35	215.08
1015.64	215.15
1015.92	215.18
1016.21	215.19
1016.50	215.17
1016.78	215.17
1017.07	215.21
1017.36	215.17
1017.64	215.16
1017.93	215.13
1018.22	215.10
1018.50	215.10
1018.79	215.10
1019.08	214.96
1019.36	214.99
1019.65	214.96
1019.93	215.01
1020.22	215.09
1020.51	215.17
1020.79	215.15
1021.08	214.63
1021.36	214.98
1021.65	215.14
1021.94	214.39
1022.22	215.12
1022.51	214.64
1022.79	215.98
1023.08	215.87
1023.36	217.46
1023.65	214.37
>>>>>End Processed Spectral Data<<<<<
