SpectraSuite Data File
++++++++++++++++++++++++++++++++++++
Date: Tue Jan 29 16:56:08 EST 2013
User: group
Dark Spectrum Present: No
Reference Spectrum Present: No
Number of Sampled Component Spectra: 1
Spectrometers: USB2E7196
Integration Time (usec): 65000 (USB2E7196)
Spectra Averaged: 100 (USB2E7196)
Boxcar Smoothing: 10 (USB2E7196)
Correct for Electrical Dark: No (USB2E7196)
Strobe/Lamp Enabled: No (USB2E7196)
Correct for Detector Non-linearity: No (USB2E7196)
Correct for Stray Light: No (USB2E7196)
Number of Pixels in Processed Spectrum: 2048
>>>>>Begin Processed Spectral Data<<<<<
339.09	0.00
339.48	200.77
339.86	202.48
340.24	203.73
340.63	205.47
341.01	210.04
341.39	208.53
341.78	210.23
342.16	210.91
342.54	211.26
342.93	200.56
343.31	210.68
343.69	211.24
344.07	211.71
344.46	212.17
344.84	212.58
345.22	212.75
345.60	213.02
345.99	213.20
346.37	213.37
346.75	213.46
347.13	213.53
347.52	213.61
347.90	213.73
348.28	213.78
348.66	213.84
349.05	213.81
349.43	213.87
349.81	213.94
350.19	214.01
350.57	214.08
350.96	214.17
351.34	214.29
351.72	214.38
352.10	214.51
352.48	214.60
352.87	214.69
353.25	214.77
353.63	214.84
354.01	214.90
354.39	214.98
354.77	215.07
355.15	215.25
355.54	215.32
355.92	215.33
356.30	215.43
356.68	215.61
357.06	215.72
357.44	215.75
357.82	215.80
358.20	215.86
358.58	215.95
358.97	216.03
359.35	216.13
359.73	216.24
360.11	216.33
360.49	216.37
360.87	216.37
361.25	216.45
361.63	216.55
362.01	216.58
362.39	216.59
362.77	216.67
363.15	216.63
363.53	216.64
363.91	216.66
364.29	216.65
364.67	216.48
365.05	216.47
365.43	216.52
365.81	216.57
366.19	216.68
366.57	216.71
366.95	216.70
367.33	216.64
367.71	216.63
368.09	216.63
368.47	216.62
368.85	216.60
369.23	216.61
369.61	216.51
369.99	216.59
370.37	216.60
370.75	216.63
371.13	216.58
371.51	216.51
371.89	216.53
372.27	216.50
372.65	216.48
373.03	216.46
373.41	216.39
373.78	216.32
374.16	216.17
374.54	216.10
374.92	216.02
375.30	216.00
375.68	215.93
376.06	215.90
376.44	215.86
376.82	215.87
377.19	215.81
377.57	215.76
377.95	215.66
378.33	215.60
378.71	215.44
379.09	215.43
379.47	215.38
379.84	215.29
380.22	215.23
380.60	215.15
380.98	215.09
381.36	215.04
381.73	214.97
382.11	214.96
382.49	214.92
382.87	214.85
383.25	214.83
383.62	215.01
384.00	214.92
384.38	214.90
384.76	214.85
385.13	214.90
385.51	214.88
385.89	214.81
386.27	214.79
386.64	214.80
387.02	214.74
387.40	214.71
387.78	214.70
388.15	214.72
388.53	214.71
388.91	214.69
389.29	214.65
389.66	214.67
390.04	214.63
390.42	214.66
390.79	214.66
391.17	214.64
391.55	214.40
391.92	214.41
392.30	214.43
392.68	214.39
393.05	214.36
393.43	214.34
393.81	214.35
394.18	214.31
394.56	214.32
394.94	214.40
395.31	214.43
395.69	214.52
396.06	214.54
396.44	214.61
396.82	214.62
397.19	214.78
397.57	214.78
397.95	214.86
398.32	214.85
398.70	214.92
399.07	214.98
399.45	214.98
399.82	215.03
400.20	215.04
400.58	215.11
400.95	215.09
401.33	215.23
401.70	215.48
402.08	215.57
402.45	215.67
402.83	215.81
403.20	215.92
403.58	216.00
403.95	216.14
404.33	216.27
404.71	216.41
405.08	216.65
405.46	216.83
405.83	217.01
406.21	217.19
406.58	217.44
406.96	217.68
407.33	218.00
407.70	218.29
408.08	218.76
408.45	219.10
408.83	219.53
409.20	219.88
409.58	220.14
409.95	220.61
410.33	221.08
410.70	221.50
411.08	222.07
411.45	222.63
411.82	223.22
412.20	223.92
412.57	224.76
412.95	225.31
413.32	226.11
413.69	226.92
414.07	227.84
414.44	228.84
414.82	229.86
415.19	231.05
415.56	232.24
415.94	233.45
416.31	234.88
416.68	236.28
417.06	237.87
417.43	239.44
417.81	241.18
418.18	242.96
418.55	244.94
418.93	246.98
419.30	249.15
419.67	251.40
420.04	253.70
420.42	256.09
420.79	258.93
421.16	261.79
421.54	264.72
421.91	267.75
422.28	270.81
422.66	274.09
423.03	277.30
423.40	280.69
423.77	284.30
424.15	288.04
424.52	291.86
424.89	296.05
425.26	300.15
425.64	304.05
426.01	308.43
426.38	312.88
426.75	317.45
427.13	322.22
427.50	327.18
427.87	332.40
428.24	337.64
428.61	342.66
428.99	348.22
429.36	354.31
429.73	360.26
430.10	366.22
430.47	372.39
430.85	378.82
431.22	385.51
431.59	392.65
431.96	399.46
432.33	407.04
432.70	414.34
433.08	422.91
433.45	431.06
433.82	439.14
434.19	448.14
434.56	456.87
434.93	465.24
435.30	473.65
435.68	482.79
436.05	491.89
436.42	500.79
436.79	508.96
437.16	517.76
437.53	527.07
437.90	536.28
438.27	545.31
438.64	554.54
439.01	563.23
439.38	570.93
439.75	578.32
440.13	586.74
440.50	594.77
440.87	601.17
441.24	607.84
441.61	615.17
441.98	620.46
442.35	626.89
442.72	633.26
443.09	639.31
443.46	643.11
443.83	645.62
444.20	647.99
444.57	651.17
444.94	652.66
445.31	654.14
445.68	655.53
446.05	656.08
446.42	655.35
446.79	654.39
447.16	653.33
447.53	652.59
447.90	649.30
448.27	645.98
448.64	641.37
449.01	638.04
449.37	632.13
449.74	626.56
450.11	619.60
450.48	612.17
450.85	604.66
451.22	598.20
451.59	592.04
451.96	586.11
452.33	578.20
452.70	571.03
453.07	562.45
453.43	553.84
453.80	545.57
454.17	537.50
454.54	529.89
454.91	521.60
455.28	513.54
455.65	506.09
456.02	498.55
456.38	492.17
456.75	484.22
457.12	477.53
457.49	470.92
457.86	464.64
458.23	459.23
458.59	453.25
458.96	447.11
459.33	441.75
459.70	436.35
460.07	432.02
460.43	427.08
460.80	422.49
461.17	418.42
461.54	414.15
461.91	410.09
462.27	405.95
462.64	402.47
463.01	398.67
463.38	394.90
463.74	391.16
464.11	387.92
464.48	385.10
464.85	382.01
465.21	379.53
465.58	376.91
465.95	373.74
466.32	371.12
466.68	368.54
467.05	365.92
467.42	363.29
467.78	360.65
468.15	358.12
468.52	356.16
468.88	353.66
469.25	351.46
469.62	349.65
469.98	347.65
470.35	345.82
470.72	344.06
471.08	342.25
471.45	340.73
471.82	339.15
472.18	337.43
472.55	336.23
472.92	334.83
473.28	333.63
473.65	332.45
474.02	331.30
474.38	330.38
474.75	329.61
475.11	328.81
475.48	328.18
475.85	327.66
476.21	327.19
476.58	326.81
476.94	326.51
477.31	326.17
477.67	325.89
478.04	325.69
478.41	325.65
478.77	325.87
479.14	325.81
479.50	325.93
479.87	326.21
480.23	326.51
480.60	326.76
480.96	327.00
481.33	327.57
481.69	328.14
482.06	328.64
482.42	329.12
482.79	329.69
483.15	330.47
483.52	331.41
483.88	332.25
484.25	333.21
484.61	334.21
484.98	335.25
485.34	336.57
485.71	337.94
486.07	339.34
486.44	340.60
486.80	342.21
487.17	343.88
487.53	345.68
487.90	347.54
488.26	349.59
488.62	351.74
488.99	353.77
489.35	355.97
489.72	358.37
490.08	360.90
490.44	363.51
490.81	366.24
491.17	368.94
491.54	371.88
491.90	374.89
492.26	378.15
492.63	381.58
492.99	385.02
493.36	388.71
493.72	392.56
494.08	396.57
494.45	400.75
494.81	405.13
495.17	409.56
495.54	414.28
495.90	419.06
496.26	423.97
496.63	429.16
496.99	434.50
497.35	440.09
497.72	445.90
498.08	451.77
498.44	457.83
498.80	464.25
499.17	470.76
499.53	477.43
499.89	484.32
500.26	491.27
500.62	498.37
500.98	505.81
501.34	513.27
501.71	521.03
502.07	528.84
502.43	536.78
502.79	544.89
503.16	553.25
503.52	561.82
503.88	570.55
504.24	579.51
504.60	588.60
504.97	597.75
505.33	606.99
505.69	616.87
506.05	626.67
506.41	636.46
506.78	646.55
507.14	656.77
507.50	667.20
507.86	677.85
508.22	688.51
508.59	699.09
508.95	710.12
509.31	721.29
509.67	732.70
510.03	744.04
510.39	755.71
510.75	767.47
511.12	779.33
511.48	791.30
511.84	803.51
512.20	815.77
512.56	828.47
512.92	841.24
513.28	853.76
513.64	866.53
514.00	879.37
514.37	892.31
514.73	905.43
515.09	918.41
515.45	931.35
515.81	944.47
516.17	957.93
516.53	971.18
516.89	984.26
517.25	997.47
517.61	1011.06
517.97	1024.55
518.33	1037.72
518.69	1051.20
519.05	1065.04
519.41	1078.69
519.77	1092.60
520.13	1105.83
520.49	1119.03
520.85	1132.44
521.21	1145.83
521.57	1159.58
521.93	1172.53
522.29	1186.20
522.65	1199.81
523.01	1213.35
523.37	1226.60
523.73	1239.84
524.09	1253.07
524.45	1266.51
524.81	1280.04
525.17	1293.39
525.53	1306.47
525.89	1319.85
526.25	1332.99
526.61	1345.86
526.97	1358.99
527.33	1371.91
527.68	1385.33
528.04	1398.74
528.40	1411.88
528.76	1425.30
529.12	1438.16
529.48	1451.66
529.84	1463.92
530.20	1476.68
530.56	1489.28
530.91	1502.55
531.27	1515.50
531.63	1528.28
531.99	1541.16
532.35	1553.39
532.71	1565.93
533.07	1579.02
533.42	1591.26
533.78	1603.53
534.14	1615.55
534.50	1626.83
534.86	1638.62
535.21	1649.63
535.57	1661.26
535.93	1672.61
536.29	1683.63
536.65	1695.16
537.00	1706.09
537.36	1717.64
537.72	1728.71
538.08	1740.25
538.44	1751.28
538.79	1762.32
539.15	1773.43
539.51	1784.30
539.87	1795.66
540.22	1806.52
540.58	1817.49
540.94	1828.55
541.29	1838.75
541.65	1848.73
542.01	1859.28
542.37	1869.35
542.72	1879.51
543.08	1889.28
543.44	1899.90
543.79	1909.25
544.15	1918.84
544.51	1928.88
544.87	1938.74
545.22	1948.06
545.58	1957.04
545.94	1966.04
546.29	1974.60
546.65	1982.93
547.01	1991.20
547.36	1998.99
547.72	2006.79
548.07	2014.38
548.43	2022.15
548.79	2030.14
549.14	2038.25
549.50	2046.82
549.86	2054.90
550.21	2062.47
550.57	2070.31
550.92	2077.06
551.28	2084.55
551.64	2091.69
551.99	2099.18
552.35	2106.45
552.70	2113.40
553.06	2120.02
553.41	2126.18
553.77	2132.73
554.13	2139.02
554.48	2145.99
554.84	2153.06
555.19	2159.61
555.55	2165.84
555.90	2172.11
556.26	2178.95
556.61	2185.07
556.97	2189.80
557.32	2195.29
557.68	2201.65
558.03	2207.45
558.39	2212.96
558.74	2218.99
559.10	2224.50
559.45	2230.10
559.81	2235.62
560.16	2240.98
560.52	2246.82
560.87	2253.21
561.23	2258.91
561.58	2265.52
561.94	2270.61
562.29	2275.13
562.64	2280.88
563.00	2286.70
563.35	2292.10
563.71	2297.66
564.06	2303.26
564.42	2309.16
564.77	2314.23
565.12	2319.50
565.48	2324.41
565.83	2329.71
566.19	2334.72
566.54	2339.84
566.89	2344.24
567.25	2348.57
567.60	2354.26
567.96	2359.08
568.31	2363.51
568.66	2367.82
569.02	2371.67
569.37	2375.38
569.72	2379.77
570.08	2383.33
570.43	2386.40
570.78	2389.53
571.14	2391.86
571.49	2394.95
571.84	2398.39
572.20	2401.23
572.55	2403.96
572.90	2406.25
573.26	2408.70
573.61	2411.35
573.96	2413.57
574.31	2415.58
574.67	2417.46
575.02	2418.01
575.37	2419.60
575.72	2420.07
576.08	2421.38
576.43	2421.47
576.78	2421.65
577.13	2422.91
577.49	2423.97
577.84	2424.79
578.19	2425.80
578.54	2426.32
578.90	2426.58
579.25	2426.04
579.60	2425.73
579.95	2424.64
580.30	2424.26
580.66	2423.57
581.01	2421.83
581.36	2419.14
581.71	2417.45
582.06	2416.00
582.42	2415.02
582.77	2412.38
583.12	2410.52
583.47	2408.86
583.82	2407.85
584.17	2406.31
584.53	2404.04
584.88	2401.59
585.23	2399.51
585.58	2396.98
585.93	2394.96
586.28	2392.68
586.63	2390.23
586.98	2387.83
587.34	2385.81
587.69	2383.16
588.04	2380.81
588.39	2379.06
588.74	2376.51
589.09	2373.67
589.44	2370.26
589.79	2367.47
590.14	2365.33
590.49	2362.50
590.84	2358.57
591.19	2355.26
591.54	2352.01
591.89	2347.98
592.25	2344.65
592.60	2340.20
592.95	2335.90
593.30	2331.46
593.65	2326.91
594.00	2322.41
594.35	2319.27
594.70	2314.53
595.05	2310.13
595.40	2304.60
595.75	2298.55
596.10	2294.95
596.45	2290.06
596.80	2285.41
597.15	2280.09
597.50	2274.28
597.85	2269.22
598.19	2263.97
598.54	2258.17
598.89	2252.84
599.24	2248.20
599.59	2241.92
599.94	2235.97
600.29	2229.98
600.64	2224.07
600.99	2217.18
601.34	2211.70
601.69	2204.70
602.04	2198.17
602.39	2191.35
602.74	2185.21
603.08	2179.85
603.43	2173.10
603.78	2166.20
604.13	2159.13
604.48	2151.84
604.83	2145.64
605.18	2139.49
605.53	2132.53
605.87	2125.58
606.22	2118.91
606.57	2110.98
606.92	2103.00
607.27	2096.16
607.62	2089.76
607.96	2082.74
608.31	2076.25
608.66	2068.44
609.01	2060.75
609.36	2053.61
609.70	2045.95
610.05	2038.18
610.40	2029.86
610.75	2021.68
611.10	2013.83
611.44	2004.89
611.79	1996.25
612.14	1986.29
612.49	1975.46
612.83	1966.04
613.18	1956.59
613.53	1947.18
613.88	1937.57
614.22	1929.00
614.57	1919.10
614.92	1908.36
615.27	1898.04
615.61	1887.98
615.96	1878.36
616.31	1868.90
616.65	1859.47
617.00	1850.04
617.35	1840.45
617.70	1830.81
618.04	1820.87
618.39	1810.96
618.74	1801.53
619.08	1791.98
619.43	1783.35
619.78	1775.16
620.12	1766.59
620.47	1757.37
620.82	1747.18
621.16	1737.57
621.51	1727.90
621.85	1718.37
622.20	1708.26
622.55	1697.96
622.89	1688.08
623.24	1678.47
623.59	1668.57
623.93	1658.65
624.28	1648.82
624.62	1638.79
624.97	1628.77
625.32	1619.00
625.66	1610.04
626.01	1601.49
626.35	1592.29
626.70	1582.32
627.04	1572.49
627.39	1562.56
627.73	1553.36
628.08	1544.69
628.43	1535.25
628.77	1526.17
629.12	1517.25
629.46	1509.42
629.81	1501.17
630.15	1491.96
630.50	1482.21
630.84	1472.03
631.19	1462.32
631.53	1453.15
631.88	1443.24
632.22	1433.14
632.57	1423.89
632.91	1414.01
633.26	1404.25
633.60	1394.80
633.95	1385.84
634.29	1376.43
634.64	1367.27
634.98	1357.31
635.32	1348.14
635.67	1339.84
636.01	1330.55
636.36	1320.98
636.70	1311.58
637.05	1302.34
637.39	1293.66
637.73	1285.29
638.08	1277.77
638.42	1269.69
638.77	1261.04
639.11	1252.91
639.45	1245.41
639.80	1237.12
640.14	1228.44
640.49	1219.64
640.83	1210.88
641.17	1202.62
641.52	1194.65
641.86	1186.24
642.20	1178.57
642.55	1169.78
642.89	1160.88
643.23	1152.47
643.58	1144.45
643.92	1135.65
644.26	1126.99
644.61	1118.57
644.95	1109.76
645.29	1100.73
645.64	1091.68
645.98	1083.20
646.32	1075.33
646.66	1066.80
647.01	1058.64
647.35	1050.78
647.69	1042.54
648.04	1034.48
648.38	1025.83
648.72	1017.19
649.06	1008.79
649.41	1000.54
649.75	992.78
650.09	985.05
650.43	977.15
650.78	968.87
651.12	961.01
651.46	953.75
651.80	946.56
652.14	939.42
652.49	932.01
652.83	924.81
653.17	917.23
653.51	909.67
653.85	902.48
654.20	895.23
654.54	887.84
654.88	880.71
655.22	873.54
655.56	866.54
655.90	859.81
656.25	853.25
656.59	846.56
656.93	839.66
657.27	832.57
657.61	825.48
657.95	819.40
658.29	813.59
658.64	807.56
658.98	801.16
659.32	794.62
659.66	788.39
660.00	782.10
660.34	776.10
660.68	770.00
661.02	763.68
661.36	757.60
661.70	751.76
662.05	746.14
662.39	740.68
662.73	735.21
663.07	729.84
663.41	724.27
663.75	718.55
664.09	712.86
664.43	707.34
664.77	702.11
665.11	696.38
665.45	690.55
665.79	684.64
666.13	678.95
666.47	673.50
666.81	668.07
667.15	662.64
667.49	657.40
667.83	652.19
668.17	647.00
668.51	641.96
668.85	637.00
669.19	632.16
669.53	627.08
669.87	622.06
670.21	617.24
670.55	612.48
670.89	608.03
671.23	603.72
671.57	599.43
671.91	595.16
672.25	590.93
672.58	586.84
672.92	582.81
673.26	578.90
673.60	574.92
673.94	571.08
674.28	567.52
674.62	563.82
674.96	560.09
675.30	556.63
675.64	553.00
675.97	549.45
676.31	545.76
676.65	542.22
676.99	538.88
677.33	535.06
677.67	531.44
678.01	527.62
678.34	523.99
678.68	520.48
679.02	516.82
679.36	513.17
679.70	509.51
680.04	505.94
680.37	502.44
680.71	499.16
681.05	495.99
681.39	492.58
681.73	489.39
682.06	486.34
682.40	483.24
682.74	480.03
683.08	476.78
683.42	473.52
683.75	470.43
684.09	467.28
684.43	464.47
684.77	461.54
685.10	458.64
685.44	455.67
685.78	452.73
686.12	449.99
686.45	447.28
686.79	444.61
687.13	442.03
687.46	439.40
687.80	436.70
688.14	433.81
688.48	431.18
688.81	428.46
689.15	425.87
689.49	423.23
689.82	420.67
690.16	418.02
690.50	415.59
690.83	413.05
691.17	410.54
691.51	407.97
691.84	405.61
692.18	403.41
692.52	401.23
692.85	399.07
693.19	396.88
693.52	394.69
693.86	392.42
694.20	390.20
694.53	388.03
694.87	385.82
695.21	383.68
695.54	381.51
695.88	379.31
696.21	377.05
696.55	374.84
696.88	372.77
697.22	370.81
697.56	368.89
697.89	367.00
698.23	365.18
698.56	363.44
698.90	361.68
699.23	359.73
699.57	357.86
699.90	355.93
700.24	354.04
700.58	352.27
700.91	350.61
701.25	349.03
701.58	347.39
701.92	345.78
702.25	344.13
702.59	342.50
702.92	340.97
703.26	339.40
703.59	337.90
703.93	336.64
704.26	335.12
704.60	333.61
704.93	332.09
705.26	330.56
705.60	329.06
705.93	327.52
706.27	326.20
706.60	324.89
706.94	323.66
707.27	322.28
707.61	320.95
707.94	319.55
708.27	318.03
708.61	316.60
708.94	315.20
709.28	313.90
709.61	312.65
709.94	311.41
710.28	310.19
710.61	308.99
710.95	307.53
711.28	306.48
711.61	305.27
711.95	304.15
712.28	302.95
712.61	301.71
712.95	300.65
713.28	299.58
713.61	298.43
713.95	297.26
714.28	296.22
714.61	295.12
714.95	294.11
715.28	293.04
715.61	291.99
715.95	291.00
716.28	289.99
716.61	289.00
716.95	288.00
717.28	287.05
717.61	286.06
717.94	285.10
718.28	284.05
718.61	283.14
718.94	282.22
719.27	281.35
719.61	280.48
719.94	279.60
720.27	278.61
720.60	277.70
720.94	276.86
721.27	276.10
721.60	275.43
721.93	274.72
722.27	274.11
722.60	273.45
722.93	272.74
723.26	272.12
723.59	271.39
723.93	270.73
724.26	270.05
724.59	269.43
724.92	268.84
725.25	268.30
725.59	267.72
725.92	267.15
726.25	266.56
726.58	266.01
726.91	265.38
727.24	264.82
727.57	264.24
727.91	263.61
728.24	263.03
728.57	262.41
728.90	261.80
729.23	261.15
729.56	260.65
729.89	260.11
730.22	259.50
730.55	258.97
730.89	258.40
731.22	257.86
731.55	257.34
731.88	256.84
732.21	256.29
732.54	255.75
732.87	255.22
733.20	254.75
733.53	254.26
733.86	253.80
734.19	253.32
734.52	252.92
734.85	252.66
735.18	252.17
735.51	251.78
735.84	251.38
736.17	251.01
736.50	250.48
736.83	250.32
737.16	249.91
737.49	249.50
737.82	249.12
738.15	248.75
738.48	248.34
738.81	247.92
739.14	247.48
739.47	247.09
739.80	246.72
740.13	246.34
740.46	245.95
740.79	245.54
741.12	245.17
741.45	244.77
741.78	244.33
742.11	244.06
742.44	243.67
742.77	243.29
743.10	242.91
743.43	242.60
743.75	242.01
744.08	241.96
744.41	241.58
744.74	241.18
745.07	240.80
745.40	240.49
745.73	240.23
746.06	239.88
746.39	239.57
746.71	239.25
747.04	238.90
747.37	238.60
747.70	238.33
748.03	238.03
748.36	237.80
748.68	237.44
749.01	237.06
749.34	236.79
749.67	236.54
750.00	236.28
750.33	236.13
750.65	235.86
750.98	235.31
751.31	235.10
751.64	234.92
751.97	234.83
752.29	234.57
752.62	234.21
752.95	233.99
753.28	233.73
753.60	233.47
753.93	233.30
754.26	233.06
754.59	232.77
754.91	232.54
755.24	232.29
755.57	232.10
755.90	231.90
756.22	231.63
756.55	231.34
756.88	231.08
757.20	230.74
757.53	230.44
757.86	230.26
758.19	230.07
758.51	229.81
758.84	229.47
759.17	229.23
759.49	229.05
759.82	228.95
760.15	228.75
760.47	228.56
760.80	228.29
761.13	228.13
761.45	227.93
761.78	227.74
762.11	227.56
762.43	227.32
762.76	227.15
763.08	227.02
763.41	226.83
763.74	226.69
764.06	226.55
764.39	226.42
764.71	226.25
765.04	226.09
765.37	225.94
765.69	225.80
766.02	225.69
766.34	225.55
766.67	225.33
767.00	225.26
767.32	225.27
767.65	225.27
767.97	225.10
768.30	225.01
768.62	224.86
768.95	224.73
769.27	224.64
769.60	224.54
769.92	224.36
770.25	224.22
770.57	224.07
770.90	223.90
771.22	223.76
771.55	223.62
771.87	223.50
772.20	223.40
772.52	223.42
772.85	223.54
773.17	223.42
773.50	223.29
773.82	223.15
774.15	222.93
774.47	222.70
774.80	222.60
775.12	222.50
775.45	222.39
775.77	222.27
776.09	222.19
776.42	222.07
776.74	222.07
777.07	222.02
777.39	221.94
777.72	221.84
778.04	221.78
778.36	221.71
778.69	221.63
779.01	221.54
779.33	221.32
779.66	220.99
779.98	220.91
780.31	220.82
780.63	220.82
780.95	220.76
781.28	220.69
781.60	220.61
781.92	220.50
782.25	220.47
782.57	220.41
782.89	220.32
783.22	220.26
783.54	220.15
783.86	220.06
784.19	219.96
784.51	220.00
784.83	219.92
785.16	219.83
785.48	219.77
785.80	219.72
786.12	219.66
786.45	219.61
786.77	219.57
787.09	219.51
787.42	219.37
787.74	219.32
788.06	219.28
788.38	219.21
788.71	219.13
789.03	219.08
789.35	219.04
789.67	218.98
789.99	218.93
790.32	218.83
790.64	218.84
790.96	218.98
791.28	218.85
791.61	218.79
791.93	218.77
792.25	218.73
792.57	218.83
792.89	218.74
793.21	218.70
793.54	218.62
793.86	218.55
794.18	218.52
794.50	218.41
794.82	218.36
795.14	218.34
795.47	218.37
795.79	218.34
796.11	218.28
796.43	218.21
796.75	218.15
797.07	218.11
797.39	218.01
797.71	217.82
798.04	217.77
798.36	217.77
798.68	217.69
799.00	217.65
799.32	217.51
799.64	217.55
799.96	217.53
800.28	217.56
800.60	217.52
800.92	217.51
801.24	217.48
801.56	217.45
801.89	217.42
802.21	217.38
802.53	217.27
802.85	217.23
803.17	217.30
803.49	217.26
803.81	217.23
804.13	217.19
804.45	217.14
804.77	217.14
805.09	217.11
805.41	217.09
805.73	217.04
806.05	216.96
806.37	216.90
806.69	216.84
807.01	216.78
807.33	216.79
807.65	216.70
807.97	216.77
808.28	216.71
808.60	216.66
808.92	216.59
809.24	216.75
809.56	216.72
809.88	216.62
810.20	216.58
810.52	216.59
810.84	216.53
811.16	216.47
811.48	216.44
811.80	216.47
812.12	216.42
812.43	216.42
812.75	216.43
813.07	216.38
813.39	216.38
813.71	216.33
814.03	216.29
814.35	216.30
814.67	216.16
814.98	216.15
815.30	216.12
815.62	216.07
815.94	215.92
816.26	215.89
816.58	215.84
816.89	215.85
817.21	215.79
817.53	215.78
817.85	215.78
818.17	215.74
818.48	215.62
818.80	215.66
819.12	215.59
819.44	215.52
819.76	215.49
820.07	215.45
820.39	215.44
820.71	215.41
821.03	215.37
821.34	215.37
821.66	215.35
821.98	215.39
822.30	215.37
822.61	215.45
822.93	215.38
823.25	215.34
823.57	215.29
823.88	215.33
824.20	215.33
824.52	215.35
824.83	215.32
825.15	215.32
825.47	215.26
825.79	215.26
826.10	215.22
826.42	215.16
826.74	215.16
827.05	215.13
827.37	215.17
827.69	215.12
828.00	215.07
828.32	215.06
828.64	215.00
828.95	215.11
829.27	215.04
829.58	215.05
829.90	215.10
830.22	215.10
830.53	215.03
830.85	215.00
831.17	214.92
831.48	214.93
831.80	214.92
832.11	214.89
832.43	214.88
832.75	214.87
833.06	215.04
833.38	214.96
833.69	214.97
834.01	214.92
834.32	214.92
834.64	214.91
834.96	214.91
835.27	214.90
835.59	214.81
835.90	214.75
836.22	214.73
836.53	214.69
836.85	214.66
837.16	214.84
837.48	214.83
837.79	214.91
838.11	214.90
838.42	214.87
838.74	214.90
839.05	214.86
839.37	214.90
839.68	214.75
840.00	214.73
840.31	214.77
840.63	214.76
840.94	214.77
841.26	214.78
841.57	214.79
841.88	214.81
842.20	214.77
842.51	214.76
842.83	214.76
843.14	214.93
843.46	214.91
843.77	214.79
844.08	214.76
844.40	214.71
844.71	214.68
845.03	214.65
845.34	214.65
845.65	214.68
845.97	214.64
846.28	214.64
846.60	214.66
846.91	214.59
847.22	214.56
847.54	214.61
847.85	214.60
848.16	214.55
848.48	214.52
848.79	214.61
849.10	214.64
849.42	214.64
849.73	214.44
850.04	214.42
850.36	214.35
850.67	214.40
850.98	214.38
851.30	214.40
851.61	214.42
851.92	214.38
852.23	214.38
852.55	214.41
852.86	214.39
853.17	214.40
853.49	214.45
853.80	214.50
854.11	214.48
854.42	214.50
854.74	214.46
855.05	214.45
855.36	214.32
855.67	214.34
855.99	214.36
856.30	214.60
856.61	214.59
856.92	214.58
857.23	214.55
857.55	214.53
857.86	214.51
858.17	214.51
858.48	214.49
858.79	214.47
859.11	214.46
859.42	214.46
859.73	214.42
860.04	214.39
860.35	214.32
860.66	214.26
860.98	214.25
861.29	214.29
861.60	214.25
861.91	214.33
862.22	214.24
862.53	214.18
862.84	213.94
863.16	213.98
863.47	213.93
863.78	213.94
864.09	213.96
864.40	213.98
864.71	214.01
865.02	214.05
865.33	214.01
865.64	213.96
865.95	213.98
866.27	214.11
866.58	214.08
866.89	214.08
867.20	214.06
867.51	214.01
867.82	213.97
868.13	214.04
868.44	213.97
868.75	214.04
869.06	214.06
869.37	214.10
869.68	214.06
869.99	214.14
870.30	214.13
870.61	214.14
870.92	214.10
871.23	214.04
871.54	214.08
871.85	214.12
872.16	214.16
872.47	214.13
872.78	214.01
873.09	214.01
873.40	214.00
873.71	214.03
874.02	214.06
874.33	214.06
874.64	214.01
874.95	214.03
875.26	213.99
875.56	213.98
875.87	213.98
876.18	213.96
876.49	214.12
876.80	214.11
877.11	214.07
877.42	214.09
877.73	214.11
878.04	214.08
878.35	214.03
878.66	214.04
878.96	214.04
879.27	214.03
879.58	214.02
879.89	214.01
880.20	214.10
880.51	214.10
880.82	214.08
881.12	214.09
881.43	214.05
881.74	214.00
882.05	213.98
882.36	213.94
882.67	213.95
882.97	213.73
883.28	213.73
883.59	213.70
883.90	213.71
884.21	213.72
884.51	213.72
884.82	213.72
885.13	213.72
885.44	213.72
885.74	213.73
886.05	213.75
886.36	213.77
886.67	213.64
886.98	213.75
887.28	213.79
887.59	213.79
887.90	213.82
888.20	213.85
888.51	213.87
888.82	213.87
889.13	213.90
889.43	214.09
889.74	214.07
890.05	214.09
890.35	214.08
890.66	214.06
890.97	214.02
891.28	214.01
891.58	214.02
891.89	214.02
892.20	213.99
892.50	213.94
892.81	213.91
893.12	213.92
893.42	213.80
893.73	213.77
894.04	213.77
894.34	213.78
894.65	213.77
894.95	213.75
895.26	213.78
895.57	213.86
895.87	213.68
896.18	213.71
896.48	213.72
896.79	213.72
897.10	213.74
897.40	213.75
897.71	213.81
898.01	213.75
898.32	213.77
898.63	213.77
898.93	213.79
899.24	213.82
899.54	213.80
899.85	213.80
900.15	213.78
900.46	213.81
900.76	213.84
901.07	213.83
901.38	213.82
901.68	213.82
901.99	213.65
902.29	213.67
902.60	213.67
902.90	213.64
903.21	213.66
903.51	213.64
903.82	213.70
904.12	213.65
904.43	213.66
904.73	213.65
905.03	213.69
905.34	213.87
905.64	213.85
905.95	213.86
906.25	213.85
906.56	213.87
906.86	213.81
907.17	213.77
907.47	213.82
907.77	213.81
908.08	213.79
908.38	213.83
908.69	213.84
908.99	213.87
909.30	213.88
909.60	213.87
909.90	213.87
910.21	213.83
910.51	213.82
910.81	213.84
911.12	213.85
911.42	213.84
911.73	213.64
912.03	213.66
912.33	213.75
912.64	213.75
912.94	213.75
913.24	213.73
913.55	213.74
913.85	213.70
914.15	213.73
914.46	213.76
914.76	213.76
915.06	213.72
915.37	213.66
915.67	213.64
915.97	213.67
916.27	213.66
916.58	213.66
916.88	213.65
917.18	213.63
917.49	213.77
917.79	213.77
918.09	213.81
918.39	213.84
918.70	213.81
919.00	213.81
919.30	213.92
919.60	213.93
919.91	213.89
920.21	213.95
920.51	213.90
920.81	213.88
921.12	213.88
921.42	213.91
921.72	213.92
922.02	213.93
922.32	213.97
922.63	213.94
922.93	214.04
923.23	214.03
923.53	214.04
923.83	213.89
924.13	213.89
924.44	213.90
924.74	213.97
925.04	213.99
925.34	213.99
925.64	213.87
925.94	213.85
926.24	213.98
926.55	213.91
926.85	213.99
927.15	213.96
927.45	213.98
927.75	213.98
928.05	213.96
928.35	213.96
928.65	213.96
928.95	214.03
929.26	213.95
929.56	214.00
929.86	213.99
930.16	213.98
930.46	213.98
930.76	213.94
931.06	213.82
931.36	213.76
931.66	213.81
931.96	213.83
932.26	213.86
932.56	213.78
932.86	213.79
933.16	213.75
933.46	213.74
933.76	213.71
934.06	213.79
934.36	213.91
934.66	213.90
934.96	213.84
935.26	213.80
935.56	213.84
935.86	213.79
936.16	213.78
936.46	213.76
936.76	213.73
937.06	213.71
937.36	213.75
937.66	213.77
937.96	213.74
938.26	213.72
938.56	213.72
938.86	213.75
939.16	213.80
939.46	213.83
939.76	213.85
940.06	213.83
940.35	213.75
940.65	213.63
940.95	213.63
941.25	213.63
941.55	213.60
941.85	213.58
942.15	213.61
942.45	213.64
942.75	213.65
943.04	213.71
943.34	213.74
943.64	213.70
943.94	213.65
944.24	213.65
944.54	213.66
944.84	213.63
945.13	213.56
945.43	213.52
945.73	213.49
946.03	213.45
946.33	213.44
946.62	213.39
946.92	213.43
947.22	213.43
947.52	213.42
947.82	213.46
948.11	213.46
948.41	213.41
948.71	213.38
949.01	213.39
949.31	213.35
949.60	213.32
949.90	213.34
950.20	213.35
950.50	213.37
950.79	213.35
951.09	213.41
951.39	213.40
951.69	213.38
951.98	213.41
952.28	213.45
952.58	213.46
952.87	213.48
953.17	213.46
953.47	213.45
953.76	213.45
954.06	213.41
954.36	213.36
954.66	213.36
954.95	213.40
955.25	213.40
955.55	213.42
955.84	213.43
956.14	213.43
956.44	213.45
956.73	213.40
957.03	213.39
957.32	213.38
957.62	213.38
957.92	213.42
958.21	213.41
958.51	213.65
958.81	213.67
959.10	213.68
959.40	213.72
959.69	213.75
959.99	213.77
960.29	213.80
960.58	213.79
960.88	213.87
961.17	213.85
961.47	213.87
961.76	213.82
962.06	213.85
962.36	213.83
962.65	213.84
962.95	213.84
963.24	213.87
963.54	213.85
963.83	213.88
964.13	213.89
964.42	213.83
964.72	213.67
965.01	213.66
965.31	213.66
965.60	213.61
965.90	213.69
966.19	213.65
966.49	213.66
966.78	213.66
967.08	213.63
967.37	213.64
967.67	213.59
967.96	213.66
968.26	213.61
968.55	213.65
968.85	213.63
969.14	213.64
969.43	213.63
969.73	213.64
970.02	213.64
970.32	213.61
970.61	213.61
970.91	213.54
971.20	213.53
971.49	213.47
971.79	213.48
972.08	213.36
972.38	213.41
972.67	213.36
972.96	213.41
973.26	213.35
973.55	213.39
973.85	213.37
974.14	213.35
974.43	213.38
974.73	213.32
975.02	213.31
975.31	213.28
975.61	213.27
975.90	213.21
976.19	213.22
976.49	213.23
976.78	213.23
977.07	213.23
977.37	213.26
977.66	213.31
977.95	213.30
978.24	213.33
978.54	213.33
978.83	213.37
979.12	213.32
979.42	213.33
979.71	213.28
980.00	213.29
980.29	213.28
980.59	213.24
980.88	213.31
981.17	213.32
981.46	213.34
981.76	213.36
982.05	213.43
982.34	213.42
982.63	213.40
982.93	213.44
983.22	213.51
983.51	213.51
983.80	213.54
984.09	213.57
984.39	213.52
984.68	213.51
984.97	213.49
985.26	213.51
985.55	213.53
985.85	213.49
986.14	213.57
986.43	213.61
986.72	213.62
987.01	213.55
987.30	213.53
987.59	213.52
987.89	213.51
988.18	213.48
988.47	213.46
988.76	213.47
989.05	213.44
989.34	213.40
989.63	213.43
989.92	213.39
990.22	213.37
990.51	213.40
990.80	213.37
991.09	213.37
991.38	213.39
991.67	213.37
991.96	213.38
992.25	213.35
992.54	213.32
992.83	213.30
993.12	213.30
993.41	213.35
993.70	213.44
993.99	213.46
994.28	213.48
994.58	213.52
994.87	213.48
995.16	213.46
995.45	213.41
995.74	213.33
996.03	213.38
996.32	213.43
996.61	213.51
996.90	213.50
997.19	213.52
997.48	213.50
997.77	213.49
998.06	213.50
998.34	213.48
998.63	213.45
998.92	213.49
999.21	213.54
999.50	213.54
999.79	213.49
1000.08	213.48
1000.37	213.48
1000.66	213.43
1000.95	213.52
1001.24	213.54
1001.53	213.61
1001.82	213.62
1002.11	213.57
1002.40	213.59
1002.68	213.60
1002.97	213.76
1003.26	213.74
1003.55	213.73
1003.84	213.77
1004.13	213.87
1004.42	213.86
1004.71	213.87
1004.99	213.83
1005.28	213.87
1005.57	213.85
1005.86	213.82
1006.15	213.79
1006.44	213.74
1006.72	213.80
1007.01	213.72
1007.30	213.71
1007.59	213.70
1007.88	213.69
1008.17	213.69
1008.45	213.63
1008.74	213.52
1009.03	213.42
1009.32	213.42
1009.60	213.43
1009.89	213.38
1010.18	213.28
1010.47	213.29
1010.76	213.31
1011.04	213.34
1011.33	213.36
1011.62	213.37
1011.91	213.38
1012.19	213.39
1012.48	213.43
1012.77	213.43
1013.05	213.54
1013.34	213.56
1013.63	213.55
1013.92	213.60
1014.20	213.58
1014.49	213.60
1014.78	213.65
1015.06	213.60
1015.35	213.59
1015.64	213.60
1015.92	213.64
1016.21	213.64
1016.50	213.62
1016.78	213.62
1017.07	213.62
1017.36	213.53
1017.64	213.50
1017.93	213.53
1018.22	213.55
1018.50	213.54
1018.79	213.51
1019.08	213.40
1019.36	213.37
1019.65	213.35
1019.93	213.36
1020.22	213.39
1020.51	213.47
1020.79	213.46
1021.08	213.59
1021.36	213.21
1021.65	213.11
1021.94	212.88
1022.22	213.13
1022.51	212.96
1022.79	214.25
1023.08	213.55
1023.36	215.61
1023.65	213.39
>>>>>End Processed Spectral Data<<<<<
