SpectraSuite Data File
++++++++++++++++++++++++++++++++++++
Date: Tue Jan 29 16:05:01 EST 2013
User: group
Dark Spectrum Present: No
Reference Spectrum Present: No
Number of Sampled Component Spectra: 1
Spectrometers: USB2E7196
Integration Time (usec): 65000 (USB2E7196)
Spectra Averaged: 100 (USB2E7196)
Boxcar Smoothing: 10 (USB2E7196)
Correct for Electrical Dark: No (USB2E7196)
Strobe/Lamp Enabled: No (USB2E7196)
Correct for Detector Non-linearity: No (USB2E7196)
Correct for Stray Light: No (USB2E7196)
Number of Pixels in Processed Spectrum: 2048
>>>>>Begin Processed Spectral Data<<<<<
339.09	0.00
339.48	202.99
339.86	203.93
340.24	205.79
340.63	207.26
341.01	211.71
341.39	210.03
341.78	211.37
342.16	212.39
342.54	212.70
342.93	201.90
343.31	212.13
343.69	212.65
344.07	213.12
344.46	213.56
344.84	213.97
345.22	214.14
345.60	214.43
345.99	214.64
346.37	214.76
346.75	214.87
347.13	214.95
347.52	215.03
347.90	215.17
348.28	215.23
348.66	215.31
349.05	215.29
349.43	215.36
349.81	215.44
350.19	215.49
350.57	215.58
350.96	215.67
351.34	215.74
351.72	215.84
352.10	215.96
352.48	216.04
352.87	216.08
353.25	216.11
353.63	216.11
354.01	216.17
354.39	216.28
354.77	216.37
355.15	216.50
355.54	216.54
355.92	216.54
356.30	216.63
356.68	216.78
357.06	216.85
357.44	216.83
357.82	216.87
358.20	216.95
358.58	217.00
358.97	217.08
359.35	217.18
359.73	217.28
360.11	217.32
360.49	217.36
360.87	217.39
361.25	217.48
361.63	217.61
362.01	217.67
362.39	217.71
362.77	217.76
363.15	217.79
363.53	217.85
363.91	217.87
364.29	217.90
364.67	217.75
365.05	217.76
365.43	217.84
365.81	217.91
366.19	217.98
366.57	218.09
366.95	218.09
367.33	218.03
367.71	218.05
368.09	218.08
368.47	218.07
368.85	218.05
369.23	218.07
369.61	218.01
369.99	218.05
370.37	218.05
370.75	218.13
371.13	218.06
371.51	217.98
371.89	218.02
372.27	218.02
372.65	218.02
373.03	218.01
373.41	217.97
373.78	217.91
374.16	217.78
374.54	217.69
374.92	217.64
375.30	217.63
375.68	217.53
376.06	217.53
376.44	217.49
376.82	217.45
377.19	217.39
377.57	217.32
377.95	217.20
378.33	217.13
378.71	216.97
379.09	216.95
379.47	216.95
379.84	216.86
380.22	216.79
380.60	216.72
380.98	216.66
381.36	216.62
381.73	216.56
382.11	216.57
382.49	216.50
382.87	216.42
383.25	216.39
383.62	216.59
384.00	216.50
384.38	216.46
384.76	216.51
385.13	216.56
385.51	216.52
385.89	216.47
386.27	216.43
386.64	216.42
387.02	216.37
387.40	216.30
387.78	216.29
388.15	216.27
388.53	216.22
388.91	216.20
389.29	216.16
389.66	216.17
390.04	216.13
390.42	216.16
390.79	216.15
391.17	216.09
391.55	215.85
391.92	215.86
392.30	215.89
392.68	215.81
393.05	215.79
393.43	215.79
393.81	215.82
394.18	215.81
394.56	215.80
394.94	215.83
395.31	215.84
395.69	215.91
396.06	215.96
396.44	216.03
396.82	216.04
397.19	216.15
397.57	216.13
397.95	216.21
398.32	216.20
398.70	216.28
399.07	216.37
399.45	216.41
399.82	216.41
400.20	216.45
400.58	216.52
400.95	216.46
401.33	216.57
401.70	216.77
402.08	216.86
402.45	216.98
402.83	217.11
403.20	217.22
403.58	217.29
403.95	217.41
404.33	217.54
404.71	217.68
405.08	217.92
405.46	218.11
405.83	218.25
406.21	218.41
406.58	218.61
406.96	218.83
407.33	219.10
407.70	219.42
408.08	219.86
408.45	220.20
408.83	220.59
409.20	220.90
409.58	221.14
409.95	221.61
410.33	222.06
410.70	222.47
411.08	222.98
411.45	223.50
411.82	224.06
412.20	224.73
412.57	225.55
412.95	226.06
413.32	226.83
413.69	227.65
414.07	228.57
414.44	229.52
414.82	230.48
415.19	231.62
415.56	232.72
415.94	233.84
416.31	235.18
416.68	236.57
417.06	238.12
417.43	239.63
417.81	241.28
418.18	242.99
418.55	244.85
418.93	246.82
419.30	248.85
419.67	250.99
420.04	253.22
420.42	255.50
420.79	258.26
421.16	260.95
421.54	263.78
421.91	266.65
422.28	269.63
422.66	272.80
423.03	275.95
423.40	279.18
423.77	282.65
424.15	286.17
424.52	289.85
424.89	293.87
425.26	297.78
425.64	301.56
426.01	305.71
426.38	310.02
426.75	314.41
427.13	318.96
427.50	323.77
427.87	328.73
428.24	333.75
428.61	338.57
428.99	343.89
429.36	349.67
429.73	355.33
430.10	360.97
430.47	366.86
430.85	372.89
431.22	379.41
431.59	386.24
431.96	392.90
432.33	400.24
432.70	407.21
433.08	415.47
433.45	423.25
433.82	430.97
434.19	439.54
434.56	447.92
434.93	456.01
435.30	464.03
435.68	472.90
436.05	481.59
436.42	490.13
436.79	497.98
437.16	506.43
437.53	515.45
437.90	524.36
438.27	532.98
438.64	541.92
439.01	550.12
439.38	557.47
439.75	564.47
440.13	572.53
440.50	580.25
440.87	586.45
441.24	592.84
441.61	600.01
441.98	605.17
442.35	611.32
442.72	617.38
443.09	623.15
443.46	626.64
443.83	629.02
444.20	631.13
444.57	634.15
444.94	635.56
445.31	636.92
445.68	638.20
446.05	638.81
446.42	637.95
446.79	636.99
447.16	635.95
447.53	635.18
447.90	631.93
448.27	628.67
448.64	624.15
449.01	620.91
449.37	615.17
449.74	609.72
450.11	603.10
450.48	595.99
450.85	588.75
451.22	582.56
451.59	576.68
451.96	571.09
452.33	563.52
452.70	556.64
453.07	548.39
453.43	540.05
453.80	532.04
454.17	524.41
454.54	517.23
454.91	509.34
455.28	501.74
455.65	494.58
456.02	487.47
456.38	481.45
456.75	473.90
457.12	467.53
457.49	461.30
457.86	455.35
458.23	450.22
458.59	444.60
458.96	438.84
459.33	433.71
459.70	428.51
460.07	424.40
460.43	419.78
460.80	415.42
461.17	411.60
461.54	407.58
461.91	403.70
462.27	399.68
462.64	396.43
463.01	392.73
463.38	389.20
463.74	385.58
464.11	382.36
464.48	379.60
464.85	376.63
465.21	374.27
465.58	371.68
465.95	368.56
466.32	366.03
466.68	363.54
467.05	361.07
467.42	358.65
467.78	356.13
468.15	353.65
468.52	351.84
468.88	349.47
469.25	347.30
469.62	345.63
469.98	343.79
470.35	342.03
470.72	340.47
471.08	338.75
471.45	337.34
471.82	335.92
472.18	334.33
472.55	333.20
472.92	331.86
473.28	330.74
473.65	329.71
474.02	328.68
474.38	327.82
474.75	327.11
475.11	326.36
475.48	325.82
475.85	325.33
476.21	324.86
476.58	324.60
476.94	324.40
477.31	324.12
477.67	323.86
478.04	323.72
478.41	323.67
478.77	323.89
479.14	323.86
479.50	324.03
479.87	324.38
480.23	324.69
480.60	324.94
480.96	325.26
481.33	325.86
481.69	326.45
482.06	326.96
482.42	327.42
482.79	328.03
483.15	328.85
483.52	329.86
483.88	330.77
484.25	331.67
484.61	332.70
484.98	333.78
485.34	335.14
485.71	336.51
486.07	337.91
486.44	339.22
486.80	340.85
487.17	342.49
487.53	344.32
487.90	346.20
488.26	348.24
488.62	350.35
488.99	352.40
489.35	354.54
489.72	356.95
490.08	359.45
490.44	362.01
490.81	364.72
491.17	367.44
491.54	370.40
491.90	373.46
492.26	376.73
492.63	380.14
492.99	383.61
493.36	387.26
493.72	391.14
494.08	395.14
494.45	399.30
494.81	403.63
495.17	408.08
495.54	412.77
495.90	417.57
496.26	422.47
496.63	427.64
496.99	433.03
497.35	438.59
497.72	444.42
498.08	450.32
498.44	456.36
498.80	462.76
499.17	469.23
499.53	475.88
499.89	482.74
500.26	489.60
500.62	496.56
500.98	503.93
501.34	511.32
501.71	519.09
502.07	526.90
502.43	534.90
502.79	543.00
503.16	551.36
503.52	559.96
503.88	568.64
504.24	577.57
504.60	586.59
504.97	595.82
505.33	605.06
505.69	614.90
506.05	624.74
506.41	634.52
506.78	644.52
507.14	654.73
507.50	665.09
507.86	675.81
508.22	686.63
508.59	697.32
508.95	708.43
509.31	719.61
509.67	731.02
510.03	742.35
510.39	754.03
510.75	765.84
511.12	777.67
511.48	789.78
511.84	801.95
512.20	814.17
512.56	826.76
512.92	839.49
513.28	852.08
513.64	864.69
514.00	877.46
514.37	890.31
514.73	903.29
515.09	916.19
515.45	928.97
515.81	941.85
516.17	955.05
516.53	968.13
516.89	981.08
517.25	994.05
517.61	1007.40
517.97	1020.55
518.33	1033.54
518.69	1046.91
519.05	1060.42
519.41	1073.92
519.77	1087.65
520.13	1100.71
520.49	1113.70
520.85	1126.76
521.21	1139.84
521.57	1153.29
521.93	1166.28
522.29	1179.84
522.65	1193.27
523.01	1206.66
523.37	1219.64
523.73	1232.84
524.09	1245.84
524.45	1259.12
524.81	1272.44
525.17	1285.63
525.53	1298.58
525.89	1311.59
526.25	1324.48
526.61	1337.05
526.97	1349.86
527.33	1362.50
527.68	1375.70
528.04	1388.99
528.40	1401.95
528.76	1415.14
529.12	1427.69
529.48	1440.67
529.84	1452.67
530.20	1465.13
530.56	1477.47
530.91	1490.49
531.27	1502.92
531.63	1515.35
531.99	1527.74
532.35	1539.75
532.71	1551.80
533.07	1564.33
533.42	1576.17
533.78	1587.95
534.14	1599.75
534.50	1610.51
534.86	1621.80
535.21	1632.33
535.57	1643.44
535.93	1654.46
536.29	1665.19
536.65	1676.43
537.00	1687.07
537.36	1698.19
537.72	1708.80
538.08	1719.90
538.44	1730.43
538.79	1741.22
539.15	1751.73
539.51	1762.10
539.87	1773.00
540.22	1783.52
540.58	1794.16
540.94	1804.84
541.29	1814.86
541.65	1824.34
542.01	1834.76
542.37	1844.66
542.72	1854.59
543.08	1864.15
543.44	1874.15
543.79	1883.27
544.15	1892.37
544.51	1902.09
544.87	1911.64
545.22	1920.52
545.58	1929.02
545.94	1937.75
546.29	1945.94
546.65	1954.06
547.01	1962.11
547.36	1969.61
547.72	1977.07
548.07	1984.55
548.43	1991.96
548.79	1999.68
549.14	2007.62
549.50	2015.75
549.86	2023.10
550.21	2030.25
550.57	2037.69
550.92	2044.37
551.28	2051.57
551.64	2058.66
551.99	2066.02
552.35	2073.00
552.70	2079.80
553.06	2086.38
553.41	2092.41
553.77	2098.85
554.13	2104.99
554.48	2111.94
554.84	2118.69
555.19	2125.15
555.55	2131.40
555.90	2137.68
556.26	2144.22
556.61	2149.96
556.97	2154.82
557.32	2160.64
557.68	2167.03
558.03	2172.70
558.39	2177.79
558.74	2183.67
559.10	2189.20
559.45	2194.61
559.81	2200.10
560.16	2205.66
560.52	2211.49
560.87	2217.86
561.23	2223.76
561.58	2230.53
561.94	2235.54
562.29	2240.67
562.64	2246.76
563.00	2252.49
563.35	2258.05
563.71	2263.99
564.06	2269.72
564.42	2275.58
564.77	2280.80
565.12	2285.96
565.48	2291.13
565.83	2296.98
566.19	2302.54
566.54	2308.04
566.89	2312.63
567.25	2317.30
567.60	2322.92
567.96	2328.22
568.31	2332.79
568.66	2337.09
569.02	2340.88
569.37	2344.77
569.72	2349.02
570.08	2352.61
570.43	2355.60
570.78	2358.79
571.14	2361.46
571.49	2364.71
571.84	2368.42
572.20	2371.40
572.55	2374.51
572.90	2376.86
573.26	2379.75
573.61	2382.21
573.96	2384.50
574.31	2386.59
574.67	2388.47
575.02	2389.61
575.37	2390.94
575.72	2391.91
576.08	2393.44
576.43	2394.07
576.78	2395.05
577.13	2396.91
577.49	2398.11
577.84	2399.63
578.19	2401.25
578.54	2401.96
578.90	2403.14
579.25	2403.28
579.60	2403.58
579.95	2403.26
580.30	2403.61
580.66	2402.97
581.01	2401.60
581.36	2399.53
581.71	2398.48
582.06	2397.74
582.42	2397.07
582.77	2395.26
583.12	2393.92
583.47	2393.13
583.82	2392.65
584.17	2391.36
584.53	2389.33
584.88	2387.63
585.23	2385.76
585.58	2383.48
585.93	2381.40
586.28	2379.28
586.63	2377.02
586.98	2374.85
587.34	2373.02
587.69	2370.88
588.04	2369.11
588.39	2367.88
588.74	2365.56
589.09	2363.11
589.44	2360.32
589.79	2358.05
590.14	2356.35
590.49	2353.60
590.84	2349.67
591.19	2346.81
591.54	2343.80
591.89	2340.02
592.25	2337.00
592.60	2333.01
592.95	2329.17
593.30	2325.31
593.65	2321.07
594.00	2316.93
594.35	2313.99
594.70	2309.41
595.05	2304.79
595.40	2299.56
595.75	2294.11
596.10	2290.62
596.45	2285.81
596.80	2281.23
597.15	2275.99
597.50	2270.12
597.85	2265.30
598.19	2260.36
598.54	2254.71
598.89	2249.70
599.24	2245.09
599.59	2238.97
599.94	2233.46
600.29	2227.78
600.64	2221.98
600.99	2215.39
601.34	2210.08
601.69	2203.15
602.04	2196.89
602.39	2190.58
602.74	2184.61
603.08	2179.04
603.43	2172.47
603.78	2165.78
604.13	2158.73
604.48	2151.66
604.83	2145.73
605.18	2139.55
605.53	2132.66
605.87	2125.64
606.22	2118.81
606.57	2111.17
606.92	2103.43
607.27	2096.53
607.62	2089.92
607.96	2082.86
608.31	2076.27
608.66	2068.53
609.01	2061.09
609.36	2054.02
609.70	2046.30
610.05	2038.63
610.40	2030.43
610.75	2022.48
611.10	2014.92
611.44	2006.30
611.79	1997.67
612.14	1987.65
612.49	1977.25
612.83	1968.17
613.18	1959.13
613.53	1949.78
613.88	1940.21
614.22	1931.58
614.57	1921.61
614.92	1911.13
615.27	1901.15
615.61	1891.20
615.96	1881.44
616.31	1871.93
616.65	1862.65
617.00	1852.80
617.35	1843.19
617.70	1833.66
618.04	1823.27
618.39	1812.87
618.74	1803.13
619.08	1793.43
619.43	1784.78
619.78	1776.49
620.12	1767.72
620.47	1757.91
620.82	1747.73
621.16	1737.87
621.51	1727.92
621.85	1718.14
622.20	1707.57
622.55	1697.01
622.89	1687.23
623.24	1677.55
623.59	1667.75
623.93	1657.59
624.28	1647.96
624.62	1637.73
624.97	1627.18
625.32	1617.74
625.66	1609.07
626.01	1600.06
626.35	1590.64
626.70	1580.45
627.04	1570.35
627.39	1560.16
627.73	1550.87
628.08	1541.75
628.43	1532.31
628.77	1523.07
629.12	1514.25
629.46	1506.40
629.81	1497.96
630.15	1488.33
630.50	1478.46
630.84	1468.05
631.19	1458.06
631.53	1448.54
631.88	1438.33
632.22	1428.34
632.57	1418.78
632.91	1408.49
633.26	1398.80
633.60	1389.23
633.95	1379.96
634.29	1370.54
634.64	1361.26
634.98	1351.32
635.32	1342.02
635.67	1333.36
636.01	1324.02
636.36	1314.06
636.70	1304.53
637.05	1295.17
637.39	1286.16
637.73	1277.45
638.08	1269.84
638.42	1261.60
638.77	1252.76
639.11	1244.54
639.45	1236.72
639.80	1228.01
640.14	1219.50
640.49	1210.61
640.83	1201.79
641.17	1193.72
641.52	1185.42
641.86	1176.81
642.20	1168.90
642.55	1160.40
642.89	1151.51
643.23	1142.80
643.58	1134.72
643.92	1125.60
644.26	1117.03
644.61	1108.63
644.95	1099.98
645.29	1090.67
645.64	1081.54
645.98	1073.26
646.32	1065.29
646.66	1056.76
647.01	1048.56
647.35	1040.25
647.69	1031.83
648.04	1023.48
648.38	1014.50
648.72	1005.78
649.06	997.29
649.41	989.12
649.75	981.08
650.09	973.26
650.43	965.23
650.78	957.09
651.12	949.43
651.46	941.92
651.80	934.59
652.14	927.21
652.49	919.73
652.83	912.42
653.17	904.69
653.51	897.12
653.85	889.90
654.20	882.64
654.54	875.14
654.88	868.10
655.22	861.00
655.56	854.07
655.90	847.31
656.25	840.73
656.59	833.77
656.93	826.78
657.27	819.65
657.61	812.85
657.95	806.80
658.29	801.09
658.64	794.98
658.98	788.63
659.32	782.08
659.66	775.89
660.00	769.54
660.34	763.64
660.68	757.54
661.02	751.29
661.36	745.50
661.70	739.75
662.05	734.04
662.39	728.61
662.73	723.32
663.07	717.92
663.41	712.37
663.75	706.78
664.09	701.25
664.43	695.88
664.77	690.56
665.11	684.69
665.45	678.80
665.79	673.06
666.13	667.37
666.47	662.01
666.81	656.72
667.15	651.46
667.49	646.25
667.83	641.08
668.17	635.96
668.51	630.80
668.85	626.02
669.19	621.19
669.53	616.22
669.87	611.15
670.21	606.46
670.55	601.78
670.89	597.47
671.23	593.15
671.57	588.92
671.91	584.65
672.25	580.63
672.58	576.51
672.92	572.51
673.26	568.65
673.60	564.89
673.94	561.09
674.28	557.49
674.62	553.74
674.96	550.02
675.30	546.51
675.64	542.89
675.97	539.31
676.31	535.73
676.65	532.15
676.99	528.78
677.33	525.01
677.67	521.40
678.01	517.53
678.34	513.94
678.68	510.43
679.02	506.83
679.36	503.19
679.70	499.64
680.04	496.17
680.37	492.81
680.71	489.50
681.05	486.32
681.39	483.16
681.73	480.10
682.06	477.16
682.40	474.10
682.74	470.95
683.08	467.81
683.42	464.69
683.75	461.76
684.09	458.80
684.43	456.01
684.77	453.12
685.10	450.36
685.44	447.58
685.78	444.71
686.12	442.10
686.45	439.35
686.79	436.74
687.13	434.18
687.46	431.56
687.80	428.88
688.14	426.08
688.48	423.47
688.81	420.81
689.15	418.31
689.49	415.75
689.82	413.31
690.16	410.73
690.50	408.32
690.83	405.86
691.17	403.34
691.51	401.01
691.84	398.81
692.18	396.66
692.52	394.45
692.85	392.31
693.19	390.18
693.52	388.05
693.86	385.83
694.20	383.75
694.53	381.72
694.87	379.63
695.21	377.58
695.54	375.48
695.88	373.38
696.21	371.22
696.55	369.07
696.88	367.05
697.22	365.15
697.56	363.37
697.89	361.53
698.23	359.81
698.56	358.03
698.90	356.27
699.23	354.39
699.57	352.55
699.90	350.76
700.24	349.03
700.58	347.32
700.91	345.74
701.25	344.26
701.58	342.66
701.92	341.06
702.25	339.46
702.59	337.90
702.92	336.40
703.26	334.84
703.59	333.54
703.93	332.31
704.26	330.89
704.60	329.34
704.93	327.90
705.26	326.47
705.60	325.04
705.93	323.56
706.27	322.29
706.60	321.07
706.94	319.87
707.27	318.43
707.61	317.15
707.94	315.85
708.27	314.32
708.61	312.93
708.94	311.61
709.28	310.36
709.61	309.14
709.94	307.99
710.28	306.85
710.61	305.64
710.95	304.24
711.28	303.21
711.61	302.09
711.95	301.02
712.28	299.86
712.61	298.69
712.95	297.66
713.28	296.60
713.61	295.46
713.95	294.34
714.28	293.36
714.61	292.33
714.95	291.31
715.28	290.34
715.61	289.33
715.95	288.39
716.28	287.51
716.61	286.58
716.95	285.56
717.28	284.64
717.61	283.71
717.94	282.86
718.28	281.85
718.61	281.00
718.94	280.11
719.27	279.28
719.61	278.48
719.94	277.62
720.27	276.73
720.60	275.90
720.94	275.15
721.27	274.45
721.60	273.80
721.93	273.09
722.27	272.46
722.60	271.84
722.93	271.16
723.26	270.46
723.59	269.78
723.93	269.19
724.26	268.54
724.59	267.93
724.92	267.34
725.25	266.86
725.59	266.30
725.92	265.75
726.25	265.18
726.58	264.61
726.91	264.07
727.24	263.54
727.57	263.02
727.91	262.39
728.24	261.88
728.57	261.28
728.90	260.75
729.23	260.18
729.56	259.75
729.89	259.22
730.22	258.70
730.55	258.21
730.89	257.70
731.22	257.17
731.55	256.66
731.88	256.18
732.21	255.59
732.54	255.06
732.87	254.60
733.20	254.11
733.53	253.64
733.86	253.18
734.19	252.64
734.52	252.21
734.85	251.98
735.18	251.51
735.51	251.17
735.84	250.74
736.17	250.34
736.50	249.83
736.83	249.69
737.16	249.29
737.49	248.92
737.82	248.52
738.15	248.19
738.48	247.81
738.81	247.39
739.14	246.99
739.47	246.63
739.80	246.27
740.13	245.97
740.46	245.61
740.79	245.25
741.12	244.94
741.45	244.59
741.78	244.18
742.11	243.87
742.44	243.44
742.77	243.19
743.10	242.85
743.43	242.50
743.75	241.93
744.08	241.89
744.41	241.52
744.74	241.20
745.07	240.84
745.40	240.57
745.73	240.34
746.06	240.06
746.39	239.76
746.71	239.46
747.04	239.12
747.37	238.82
747.70	238.51
748.03	238.24
748.36	238.00
748.68	237.68
749.01	237.36
749.34	237.13
749.67	236.87
750.00	236.63
750.33	236.50
750.65	236.26
750.98	235.74
751.31	235.53
751.64	235.32
751.97	235.21
752.29	234.97
752.62	234.66
752.95	234.43
753.28	234.17
753.60	233.87
753.93	233.72
754.26	233.50
754.59	233.22
754.91	233.01
755.24	232.76
755.57	232.50
755.90	232.28
756.22	232.01
756.55	231.74
756.88	231.49
757.20	231.11
757.53	230.84
757.86	230.66
758.19	230.49
758.51	230.29
758.84	229.96
759.17	229.71
759.49	229.53
759.82	229.45
760.15	229.32
760.47	229.16
760.80	228.90
761.13	228.74
761.45	228.55
761.78	228.32
762.11	228.16
762.43	228.03
762.76	227.86
763.08	227.75
763.41	227.56
763.74	227.42
764.06	227.32
764.39	227.21
764.71	227.07
765.04	226.90
765.37	226.73
765.69	226.58
766.02	226.47
766.34	226.33
766.67	226.10
767.00	225.97
767.32	225.97
767.65	225.99
767.97	225.87
768.30	225.82
768.62	225.73
768.95	225.58
769.27	225.45
769.60	225.36
769.92	225.20
770.25	225.06
770.57	224.96
770.90	224.83
771.22	224.65
771.55	224.54
771.87	224.42
772.20	224.28
772.52	224.36
772.85	224.50
773.17	224.43
773.50	224.33
773.82	224.20
774.15	223.98
774.47	223.76
774.80	223.63
775.12	223.50
775.45	223.39
775.77	223.30
776.09	223.24
776.42	223.15
776.74	223.13
777.07	223.06
777.39	222.96
777.72	222.87
778.04	222.85
778.36	222.73
778.69	222.68
779.01	222.63
779.33	222.39
779.66	222.08
779.98	221.95
780.31	221.86
780.63	221.87
780.95	221.85
781.28	221.74
781.60	221.65
781.92	221.62
782.25	221.60
782.57	221.55
782.89	221.45
783.22	221.37
783.54	221.27
783.86	221.22
784.19	221.14
784.51	221.12
784.83	221.03
785.16	220.97
785.48	220.89
785.80	220.86
786.12	220.81
786.45	220.74
786.77	220.72
787.09	220.65
787.42	220.53
787.74	220.45
788.06	220.43
788.38	220.37
788.71	220.28
789.03	220.17
789.35	220.14
789.67	220.10
789.99	220.04
790.32	219.97
790.64	219.94
790.96	220.08
791.28	219.97
791.61	219.91
791.93	219.90
792.25	219.85
792.57	219.91
792.89	219.81
793.21	219.77
793.54	219.67
793.86	219.66
794.18	219.61
794.50	219.53
794.82	219.48
795.14	219.46
795.47	219.44
795.79	219.40
796.11	219.32
796.43	219.24
796.75	219.21
797.07	219.21
797.39	219.16
797.71	218.96
798.04	218.94
798.36	218.91
798.68	218.84
799.00	218.82
799.32	218.69
799.64	218.70
799.96	218.68
800.28	218.74
800.60	218.68
800.92	218.66
801.24	218.63
801.56	218.65
801.89	218.58
802.21	218.60
802.53	218.55
802.85	218.56
803.17	218.63
803.49	218.55
803.81	218.47
804.13	218.42
804.45	218.35
804.77	218.33
805.09	218.27
805.41	218.25
805.73	218.16
806.05	218.07
806.37	218.07
806.69	218.02
807.01	217.94
807.33	217.93
807.65	217.83
807.97	217.92
808.28	217.84
808.60	217.84
808.92	217.73
809.24	217.84
809.56	217.78
809.88	217.69
810.20	217.64
810.52	217.64
810.84	217.59
811.16	217.55
811.48	217.56
811.80	217.66
812.12	217.62
812.43	217.66
812.75	217.68
813.07	217.64
813.39	217.64
813.71	217.60
814.03	217.54
814.35	217.55
814.67	217.43
814.98	217.40
815.30	217.37
815.62	217.33
815.94	217.18
816.26	217.16
816.58	217.12
816.89	217.13
817.21	217.09
817.53	217.08
817.85	217.06
818.17	217.01
818.48	216.88
818.80	216.90
819.12	216.85
819.44	216.78
819.76	216.72
820.07	216.66
820.39	216.61
820.71	216.65
821.03	216.62
821.34	216.58
821.66	216.57
821.98	216.59
822.30	216.59
822.61	216.69
822.93	216.66
823.25	216.60
823.57	216.59
823.88	216.60
824.20	216.58
824.52	216.62
824.83	216.61
825.15	216.55
825.47	216.53
825.79	216.53
826.10	216.51
826.42	216.48
826.74	216.52
827.05	216.52
827.37	216.50
827.69	216.49
828.00	216.48
828.32	216.49
828.64	216.43
828.95	216.53
829.27	216.46
829.58	216.44
829.90	216.49
830.22	216.49
830.53	216.42
830.85	216.38
831.17	216.32
831.48	216.31
831.80	216.32
832.11	216.31
832.43	216.28
832.75	216.26
833.06	216.37
833.38	216.31
833.69	216.29
834.01	216.29
834.32	216.24
834.64	216.23
834.96	216.23
835.27	216.24
835.59	216.15
835.90	216.10
836.22	216.13
836.53	216.05
836.85	215.98
837.16	216.20
837.48	216.18
837.79	216.25
838.11	216.23
838.42	216.21
838.74	216.22
839.05	216.19
839.37	216.18
839.68	216.05
840.00	216.02
840.31	216.03
840.63	216.00
840.94	215.97
841.26	215.95
841.57	215.88
841.88	215.87
842.20	215.85
842.51	215.83
842.83	215.79
843.14	215.98
843.46	216.01
843.77	215.88
844.08	215.90
844.40	215.86
844.71	215.83
845.03	215.82
845.34	215.75
845.65	215.77
845.97	215.76
846.28	215.77
846.60	215.79
846.91	215.78
847.22	215.74
847.54	215.80
847.85	215.82
848.16	215.82
848.48	215.78
848.79	215.82
849.10	215.81
849.42	215.82
849.73	215.64
850.04	215.63
850.36	215.53
850.67	215.57
850.98	215.53
851.30	215.56
851.61	215.59
851.92	215.58
852.23	215.65
852.55	215.67
852.86	215.67
853.17	215.68
853.49	215.71
853.80	215.75
854.11	215.75
854.42	215.77
854.74	215.74
855.05	215.75
855.36	215.65
855.67	215.67
855.99	215.65
856.30	215.91
856.61	215.88
856.92	215.87
857.23	215.82
857.55	215.82
857.86	215.82
858.17	215.82
858.48	215.80
858.79	215.75
859.11	215.76
859.42	215.76
859.73	215.72
860.04	215.72
860.35	215.65
860.66	215.55
860.98	215.53
861.29	215.55
861.60	215.53
861.91	215.62
862.22	215.59
862.53	215.56
862.84	215.30
863.16	215.35
863.47	215.33
863.78	215.32
864.09	215.31
864.40	215.30
864.71	215.28
865.02	215.29
865.33	215.25
865.64	215.20
865.95	215.17
866.27	215.34
866.58	215.31
866.89	215.36
867.20	215.43
867.51	215.38
867.82	215.37
868.13	215.45
868.44	215.39
868.75	215.42
869.06	215.47
869.37	215.50
869.68	215.45
869.99	215.49
870.30	215.50
870.61	215.53
870.92	215.53
871.23	215.52
871.54	215.55
871.85	215.63
872.16	215.64
872.47	215.65
872.78	215.51
873.09	215.53
873.40	215.48
873.71	215.48
874.02	215.55
874.33	215.51
874.64	215.45
874.95	215.49
875.26	215.45
875.56	215.45
875.87	215.47
876.18	215.47
876.49	215.66
876.80	215.64
877.11	215.60
877.42	215.61
877.73	215.61
878.04	215.55
878.35	215.52
878.66	215.54
878.96	215.52
879.27	215.48
879.58	215.46
879.89	215.47
880.20	215.50
880.51	215.44
880.82	215.47
881.12	215.48
881.43	215.44
881.74	215.40
882.05	215.36
882.36	215.34
882.67	215.37
882.97	215.16
883.28	215.16
883.59	215.14
883.90	215.15
884.21	215.18
884.51	215.20
884.82	215.15
885.13	215.16
885.44	215.15
885.74	215.17
886.05	215.17
886.36	215.17
886.67	215.11
886.98	215.25
887.28	215.27
887.59	215.25
887.90	215.25
888.20	215.26
888.51	215.32
888.82	215.29
889.13	215.29
889.43	215.46
889.74	215.45
890.05	215.49
890.35	215.48
890.66	215.43
890.97	215.42
891.28	215.42
891.58	215.40
891.89	215.43
892.20	215.42
892.50	215.38
892.81	215.40
893.12	215.39
893.42	215.30
893.73	215.28
894.04	215.32
894.34	215.33
894.65	215.32
894.95	215.27
895.26	215.29
895.57	215.36
895.87	215.16
896.18	215.19
896.48	215.20
896.79	215.17
897.10	215.22
897.40	215.23
897.71	215.25
898.01	215.25
898.32	215.28
898.63	215.28
898.93	215.34
899.24	215.34
899.54	215.33
899.85	215.31
900.15	215.34
900.46	215.32
900.76	215.33
901.07	215.34
901.38	215.35
901.68	215.38
901.99	215.31
902.29	215.33
902.60	215.31
902.90	215.29
903.21	215.29
903.51	215.28
903.82	215.33
904.12	215.35
904.43	215.33
904.73	215.29
905.03	215.30
905.34	215.48
905.64	215.44
905.95	215.43
906.25	215.40
906.56	215.37
906.86	215.34
907.17	215.32
907.47	215.32
907.77	215.29
908.08	215.25
908.38	215.23
908.69	215.26
908.99	215.25
909.30	215.24
909.60	215.25
909.90	215.24
910.21	215.19
910.51	215.12
910.81	215.15
911.12	215.17
911.42	215.17
911.73	214.97
912.03	214.98
912.33	215.04
912.64	215.05
912.94	215.05
913.24	215.03
913.55	215.00
913.85	215.00
914.15	215.07
914.46	215.08
914.76	215.06
915.06	215.07
915.37	215.05
915.67	215.03
915.97	215.04
916.27	215.00
916.58	214.98
916.88	215.00
917.18	214.94
917.49	215.09
917.79	215.07
918.09	215.08
918.39	215.16
918.70	215.15
919.00	215.17
919.30	215.27
919.60	215.29
919.91	215.28
920.21	215.27
920.51	215.21
920.81	215.18
921.12	215.23
921.42	215.18
921.72	215.19
922.02	215.21
922.32	215.21
922.63	215.24
922.93	215.37
923.23	215.40
923.53	215.40
923.83	215.24
924.13	215.27
924.44	215.27
924.74	215.28
925.04	215.31
925.34	215.29
925.64	215.19
925.94	215.19
926.24	215.28
926.55	215.23
926.85	215.24
927.15	215.25
927.45	215.23
927.75	215.24
928.05	215.26
928.35	215.28
928.65	215.33
928.95	215.34
929.26	215.23
929.56	215.24
929.86	215.27
930.16	215.29
930.46	215.29
930.76	215.29
931.06	215.17
931.36	215.09
931.66	215.11
931.96	215.09
932.26	215.12
932.56	215.05
932.86	215.10
933.16	215.10
933.46	215.08
933.76	215.05
934.06	215.07
934.36	215.13
934.66	215.09
934.96	215.05
935.26	215.07
935.56	215.10
935.86	215.02
936.16	215.00
936.46	214.94
936.76	214.89
937.06	214.85
937.36	214.90
937.66	214.90
937.96	214.91
938.26	214.89
938.56	214.85
938.86	214.87
939.16	214.90
939.46	214.95
939.76	214.95
940.06	214.93
940.35	214.89
940.65	214.81
940.95	214.82
941.25	214.77
941.55	214.72
941.85	214.69
942.15	214.78
942.45	214.84
942.75	214.86
943.04	214.86
943.34	214.89
943.64	214.88
943.94	214.86
944.24	214.85
944.54	214.87
944.84	214.86
945.13	214.84
945.43	214.78
945.73	214.76
946.03	214.74
946.33	214.74
946.62	214.72
946.92	214.68
947.22	214.70
947.52	214.72
947.82	214.75
948.11	214.74
948.41	214.68
948.71	214.60
949.01	214.60
949.31	214.61
949.60	214.63
949.90	214.65
950.20	214.67
950.50	214.66
950.79	214.64
951.09	214.65
951.39	214.66
951.69	214.68
951.98	214.73
952.28	214.77
952.58	214.76
952.87	214.78
953.17	214.83
953.47	214.80
953.76	214.81
954.06	214.77
954.36	214.74
954.66	214.72
954.95	214.79
955.25	214.81
955.55	214.81
955.84	214.76
956.14	214.77
956.44	214.75
956.73	214.70
957.03	214.73
957.32	214.74
957.62	214.70
957.92	214.74
958.21	214.72
958.51	214.94
958.81	214.99
959.10	215.00
959.40	215.05
959.69	215.03
959.99	215.05
960.29	215.06
960.58	215.05
960.88	215.17
961.17	215.16
961.47	215.17
961.76	215.16
962.06	215.20
962.36	215.19
962.65	215.23
962.95	215.31
963.24	215.26
963.54	215.28
963.83	215.35
964.13	215.32
964.42	215.25
964.72	215.06
965.01	215.07
965.31	215.04
965.60	215.00
965.90	215.18
966.19	215.13
966.49	215.13
966.78	215.14
967.08	215.10
967.37	215.11
967.67	215.10
967.96	215.11
968.26	215.13
968.55	215.14
968.85	215.15
969.14	215.10
969.43	215.12
969.73	215.09
970.02	215.05
970.32	215.04
970.61	215.03
970.91	214.98
971.20	214.94
971.49	214.93
971.79	214.94
972.08	214.78
972.38	214.79
972.67	214.78
972.96	214.82
973.26	214.80
973.55	214.84
973.85	214.83
974.14	214.82
974.43	214.81
974.73	214.78
975.02	214.80
975.31	214.80
975.61	214.77
975.90	214.74
976.19	214.72
976.49	214.76
976.78	214.79
977.07	214.80
977.37	214.84
977.66	214.85
977.95	214.85
978.24	214.88
978.54	214.89
978.83	214.88
979.12	214.85
979.42	214.84
979.71	214.82
980.00	214.80
980.29	214.81
980.59	214.75
980.88	214.79
981.17	214.73
981.46	214.71
981.76	214.75
982.05	214.83
982.34	214.85
982.63	214.83
982.93	214.78
983.22	214.84
983.51	214.82
983.80	214.85
984.09	214.85
984.39	214.82
984.68	214.79
984.97	214.81
985.26	214.82
985.55	214.83
985.85	214.75
986.14	214.77
986.43	214.78
986.72	214.76
987.01	214.70
987.30	214.71
987.59	214.73
987.89	214.72
988.18	214.66
988.47	214.63
988.76	214.62
989.05	214.65
989.34	214.61
989.63	214.65
989.92	214.62
990.22	214.62
990.51	214.60
990.80	214.61
991.09	214.63
991.38	214.62
991.67	214.59
991.96	214.60
992.25	214.61
992.54	214.60
992.83	214.66
993.12	214.66
993.41	214.68
993.70	214.77
993.99	214.78
994.28	214.79
994.58	214.85
994.87	214.84
995.16	214.80
995.45	214.81
995.74	214.75
996.03	214.77
996.32	214.80
996.61	214.86
996.90	214.85
997.19	214.84
997.48	214.87
997.77	214.88
998.06	214.87
998.34	214.85
998.63	214.84
998.92	214.81
999.21	214.83
999.50	214.85
999.79	214.78
1000.08	214.79
1000.37	214.79
1000.66	214.74
1000.95	214.79
1001.24	214.82
1001.53	214.81
1001.82	214.82
1002.11	214.78
1002.40	214.79
1002.68	214.84
1002.97	214.98
1003.26	214.95
1003.55	214.92
1003.84	214.93
1004.13	215.01
1004.42	215.02
1004.71	215.02
1004.99	215.01
1005.28	215.08
1005.57	215.03
1005.86	215.00
1006.15	215.00
1006.44	214.98
1006.72	215.01
1007.01	214.98
1007.30	214.98
1007.59	214.97
1007.88	214.96
1008.17	215.01
1008.45	214.94
1008.74	214.86
1009.03	214.78
1009.32	214.78
1009.60	214.75
1009.89	214.72
1010.18	214.62
1010.47	214.59
1010.76	214.58
1011.04	214.59
1011.33	214.61
1011.62	214.64
1011.91	214.66
1012.19	214.68
1012.48	214.67
1012.77	214.68
1013.05	214.79
1013.34	214.76
1013.63	214.76
1013.92	214.75
1014.20	214.71
1014.49	214.74
1014.78	214.77
1015.06	214.71
1015.35	214.73
1015.64	214.77
1015.92	214.80
1016.21	214.81
1016.50	214.82
1016.78	214.87
1017.07	214.89
1017.36	214.81
1017.64	214.76
1017.93	214.78
1018.22	214.75
1018.50	214.77
1018.79	214.77
1019.08	214.66
1019.36	214.70
1019.65	214.69
1019.93	214.78
1020.22	214.80
1020.51	214.94
1020.79	214.91
1021.08	214.46
1021.36	214.72
1021.65	215.03
1021.94	214.87
1022.22	214.95
1022.51	214.56
1022.79	216.14
1023.08	214.93
1023.36	217.59
1023.65	214.66
>>>>>End Processed Spectral Data<<<<<
