SpectraSuite Data File
++++++++++++++++++++++++++++++++++++
Date: Tue Jan 29 16:23:13 EST 2013
User: group
Dark Spectrum Present: No
Reference Spectrum Present: No
Number of Sampled Component Spectra: 1
Spectrometers: USB2E7196
Integration Time (usec): 65000 (USB2E7196)
Spectra Averaged: 100 (USB2E7196)
Boxcar Smoothing: 10 (USB2E7196)
Correct for Electrical Dark: No (USB2E7196)
Strobe/Lamp Enabled: No (USB2E7196)
Correct for Detector Non-linearity: No (USB2E7196)
Correct for Stray Light: No (USB2E7196)
Number of Pixels in Processed Spectrum: 2048
>>>>>Begin Processed Spectral Data<<<<<
339.09	0.00
339.48	202.44
339.86	203.58
340.24	205.19
340.63	206.57
341.01	211.55
341.39	209.81
341.78	211.09
342.16	212.26
342.54	212.23
342.93	201.60
343.31	211.77
343.69	212.31
344.07	212.78
344.46	213.26
344.84	213.66
345.22	213.82
345.60	214.07
345.99	214.26
346.37	214.40
346.75	214.52
347.13	214.58
347.52	214.62
347.90	214.75
348.28	214.76
348.66	214.85
349.05	214.79
349.43	214.87
349.81	214.90
350.19	214.92
350.57	215.01
350.96	215.13
351.34	215.22
351.72	215.30
352.10	215.40
352.48	215.43
352.87	215.47
353.25	215.50
353.63	215.53
354.01	215.56
354.39	215.59
354.77	215.66
355.15	215.79
355.54	215.82
355.92	215.81
356.30	215.89
356.68	216.08
357.06	216.16
357.44	216.17
357.82	216.24
358.20	216.33
358.58	216.38
358.97	216.42
359.35	216.54
359.73	216.63
360.11	216.68
360.49	216.72
360.87	216.79
361.25	216.85
361.63	216.98
362.01	217.07
362.39	217.13
362.77	217.16
363.15	217.19
363.53	217.25
363.91	217.29
364.29	217.32
364.67	217.15
365.05	217.19
365.43	217.28
365.81	217.34
366.19	217.41
366.57	217.51
366.95	217.48
367.33	217.42
367.71	217.43
368.09	217.46
368.47	217.51
368.85	217.46
369.23	217.54
369.61	217.46
369.99	217.50
370.37	217.49
370.75	217.57
371.13	217.49
371.51	217.43
371.89	217.45
372.27	217.42
372.65	217.40
373.03	217.36
373.41	217.30
373.78	217.19
374.16	217.08
374.54	216.96
374.92	216.92
375.30	216.89
375.68	216.82
376.06	216.77
376.44	216.72
376.82	216.70
377.19	216.61
377.57	216.57
377.95	216.48
378.33	216.45
378.71	216.33
379.09	216.35
379.47	216.36
379.84	216.26
380.22	216.22
380.60	216.17
380.98	216.16
381.36	216.10
381.73	216.10
382.11	216.09
382.49	216.07
382.87	216.03
383.25	215.97
383.62	216.18
384.00	216.12
384.38	216.08
384.76	216.09
385.13	216.16
385.51	216.09
385.89	216.02
386.27	216.01
386.64	215.99
387.02	215.96
387.40	215.93
387.78	215.91
388.15	215.89
388.53	215.84
388.91	215.80
389.29	215.77
389.66	215.80
390.04	215.75
390.42	215.77
390.79	215.75
391.17	215.75
391.55	215.52
391.92	215.55
392.30	215.54
392.68	215.50
393.05	215.51
393.43	215.53
393.81	215.53
394.18	215.50
394.56	215.51
394.94	215.51
395.31	215.49
395.69	215.58
396.06	215.63
396.44	215.69
396.82	215.70
397.19	215.81
397.57	215.78
397.95	215.87
398.32	215.83
398.70	215.90
399.07	216.00
399.45	216.01
399.82	216.04
400.20	216.09
400.58	216.13
400.95	216.10
401.33	216.20
401.70	216.41
402.08	216.52
402.45	216.60
402.83	216.76
403.20	216.88
403.58	216.94
403.95	217.07
404.33	217.25
404.71	217.41
405.08	217.68
405.46	217.87
405.83	218.02
406.21	218.24
406.58	218.48
406.96	218.68
407.33	218.96
407.70	219.23
408.08	219.68
408.45	220.04
408.83	220.39
409.20	220.71
409.58	220.97
409.95	221.38
410.33	221.86
410.70	222.29
411.08	222.83
411.45	223.40
411.82	224.01
412.20	224.65
412.57	225.47
412.95	226.05
413.32	226.83
413.69	227.71
414.07	228.62
414.44	229.58
414.82	230.61
415.19	231.78
415.56	233.00
415.94	234.15
416.31	235.53
416.68	236.93
417.06	238.54
417.43	240.10
417.81	241.84
418.18	243.59
418.55	245.49
418.93	247.48
419.30	249.57
419.67	251.79
420.04	254.06
420.42	256.40
420.79	259.22
421.16	262.02
421.54	264.86
421.91	267.83
422.28	270.92
422.66	274.18
423.03	277.42
423.40	280.72
423.77	284.34
424.15	288.06
424.52	291.91
424.89	296.07
425.26	300.10
425.64	303.97
426.01	308.21
426.38	312.67
426.75	317.20
427.13	321.88
427.50	326.79
427.87	331.95
428.24	337.13
428.61	342.07
428.99	347.58
429.36	353.54
429.73	359.36
430.10	365.20
430.47	371.26
430.85	377.49
431.22	384.17
431.59	391.17
431.96	397.88
432.33	405.29
432.70	412.46
433.08	421.02
433.45	428.99
433.82	436.98
434.19	445.84
434.56	454.51
434.93	462.86
435.30	471.11
435.68	480.19
436.05	489.14
436.42	497.93
436.79	506.00
437.16	514.70
437.53	523.94
437.90	533.01
438.27	541.90
438.64	551.03
439.01	559.51
439.38	567.06
439.75	574.35
440.13	582.76
440.50	590.67
440.87	596.97
441.24	603.61
441.61	610.91
441.98	616.19
442.35	622.45
442.72	628.64
443.09	634.53
443.46	638.18
443.83	640.66
444.20	642.83
444.57	645.95
444.94	647.38
445.31	648.80
445.68	650.16
446.05	650.69
446.42	649.90
446.79	648.92
447.16	647.77
447.53	646.98
447.90	643.64
448.27	640.38
448.64	635.72
449.01	632.39
449.37	626.54
449.74	620.91
450.11	614.02
450.48	606.71
450.85	599.39
451.22	592.95
451.59	586.83
451.96	581.07
452.33	573.21
452.70	566.21
453.07	557.76
453.43	549.16
453.80	540.97
454.17	533.06
454.54	525.55
454.91	517.43
455.28	509.53
455.65	502.16
456.02	494.71
456.38	488.49
456.75	480.72
457.12	474.20
457.49	467.76
457.86	461.65
458.23	456.31
458.59	450.44
458.96	444.51
459.33	439.25
459.70	433.93
460.07	429.82
460.43	424.96
460.80	420.46
461.17	416.53
461.54	412.41
461.91	408.44
462.27	404.40
462.64	401.07
463.01	397.31
463.38	393.68
463.74	389.99
464.11	386.74
464.48	383.90
464.85	380.77
465.21	378.34
465.58	375.69
465.95	372.53
466.32	369.91
466.68	367.34
467.05	364.82
467.42	362.28
467.78	359.55
468.15	356.98
468.52	355.03
468.88	352.57
469.25	350.34
469.62	348.53
469.98	346.61
470.35	344.82
470.72	343.11
471.08	341.27
471.45	339.81
471.82	338.30
472.18	336.65
472.55	335.49
472.92	334.12
473.28	332.91
473.65	331.83
474.02	330.73
474.38	329.82
474.75	329.03
475.11	328.24
475.48	327.71
475.85	327.25
476.21	326.79
476.58	326.47
476.94	326.19
477.31	325.92
477.67	325.67
478.04	325.51
478.41	325.50
478.77	325.69
479.14	325.65
479.50	325.76
479.87	326.08
480.23	326.38
480.60	326.63
480.96	326.95
481.33	327.56
481.69	328.15
482.06	328.70
482.42	329.18
482.79	329.76
483.15	330.55
483.52	331.52
483.88	332.45
484.25	333.37
484.61	334.42
484.98	335.47
485.34	336.79
485.71	338.11
486.07	339.50
486.44	340.84
486.80	342.45
487.17	344.15
487.53	345.98
487.90	347.83
488.26	349.86
488.62	352.01
488.99	354.02
489.35	356.21
489.72	358.64
490.08	361.19
490.44	363.74
490.81	366.42
491.17	369.11
491.54	372.11
491.90	375.14
492.26	378.40
492.63	381.78
492.99	385.29
493.36	389.02
493.72	392.93
494.08	396.96
494.45	401.20
494.81	405.58
495.17	410.04
495.54	414.79
495.90	419.65
496.26	424.57
496.63	429.83
496.99	435.18
497.35	440.74
497.72	446.58
498.08	452.58
498.44	458.69
498.80	465.10
499.17	471.61
499.53	478.40
499.89	485.32
500.26	492.39
500.62	499.50
500.98	506.90
501.34	514.42
501.71	522.22
502.07	530.06
502.43	538.07
502.79	546.21
503.16	554.70
503.52	563.29
503.88	572.14
504.24	581.14
504.60	590.34
504.97	599.64
505.33	609.05
505.69	618.95
506.05	628.95
506.41	638.97
506.78	649.10
507.14	659.42
507.50	669.96
507.86	680.79
508.22	691.71
508.59	702.50
508.95	713.72
509.31	725.07
509.67	736.58
510.03	748.13
510.39	760.07
510.75	771.99
511.12	784.01
511.48	796.11
511.84	808.48
512.20	820.85
512.56	833.60
512.92	846.48
513.28	859.22
513.64	872.14
514.00	885.08
514.37	898.15
514.73	911.38
515.09	924.52
515.45	937.44
515.81	950.58
516.17	964.15
516.53	977.50
516.89	990.67
517.25	1003.96
517.61	1017.61
517.97	1031.05
518.33	1044.29
518.69	1058.00
519.05	1071.83
519.41	1085.64
519.77	1099.78
520.13	1113.14
520.49	1126.34
520.85	1140.04
521.21	1153.33
521.57	1167.14
521.93	1180.40
522.29	1194.26
522.65	1208.01
523.01	1221.88
523.37	1235.15
523.73	1248.41
524.09	1261.71
524.45	1275.35
524.81	1289.06
525.17	1302.53
525.53	1315.84
525.89	1329.23
526.25	1342.43
526.61	1355.43
526.97	1368.63
527.33	1381.52
527.68	1395.08
528.04	1408.67
528.40	1421.70
528.76	1435.24
529.12	1448.13
529.48	1461.40
529.84	1473.63
530.20	1486.43
530.56	1498.90
530.91	1512.29
531.27	1525.36
531.63	1538.10
531.99	1550.86
532.35	1563.01
532.71	1575.43
533.07	1588.33
533.42	1600.73
533.78	1612.96
534.14	1625.07
534.50	1636.36
534.86	1648.10
535.21	1659.05
535.57	1670.67
535.93	1682.03
536.29	1693.12
536.65	1704.70
537.00	1715.80
537.36	1727.42
537.72	1738.53
538.08	1750.22
538.44	1761.12
538.79	1772.20
539.15	1783.17
539.51	1794.06
539.87	1805.49
540.22	1816.34
540.58	1827.39
540.94	1838.30
541.29	1848.65
541.65	1858.55
542.01	1869.13
542.37	1879.26
542.72	1889.53
543.08	1899.39
543.44	1909.96
543.79	1919.38
544.15	1928.90
544.51	1938.98
544.87	1948.80
545.22	1958.07
545.58	1966.84
545.94	1975.84
546.29	1984.45
546.65	1992.82
547.01	2000.91
547.36	2008.69
547.72	2016.55
548.07	2024.18
548.43	2032.02
548.79	2039.94
549.14	2048.07
549.50	2056.64
549.86	2064.46
550.21	2071.83
550.57	2079.52
550.92	2086.27
551.28	2093.82
551.64	2101.02
551.99	2108.45
552.35	2115.73
552.70	2122.70
553.06	2129.46
553.41	2135.77
553.77	2142.28
554.13	2148.74
554.48	2155.98
554.84	2163.02
555.19	2169.55
555.55	2175.99
555.90	2182.29
556.26	2189.08
556.61	2195.16
556.97	2199.92
557.32	2205.80
557.68	2212.44
558.03	2218.20
558.39	2223.79
558.74	2229.74
559.10	2235.36
559.45	2241.01
559.81	2246.55
560.16	2252.18
560.52	2258.18
560.87	2264.65
561.23	2270.72
561.58	2277.48
561.94	2282.71
562.29	2287.58
562.64	2293.77
563.00	2299.51
563.35	2305.13
563.71	2311.03
564.06	2316.84
564.42	2322.99
564.77	2328.05
565.12	2333.25
565.48	2338.42
565.83	2343.86
566.19	2349.27
566.54	2354.79
566.89	2359.48
567.25	2364.18
567.60	2369.84
567.96	2375.03
568.31	2379.56
568.66	2383.95
569.02	2388.01
569.37	2391.96
569.72	2396.49
570.08	2400.19
570.43	2403.44
570.78	2406.65
571.14	2409.20
571.49	2412.47
571.84	2416.00
572.20	2419.15
572.55	2422.38
572.90	2424.82
573.26	2427.69
573.61	2430.47
573.96	2432.71
574.31	2434.72
574.67	2436.60
575.02	2437.31
575.37	2438.74
575.72	2439.57
576.08	2441.06
576.43	2441.09
576.78	2441.41
577.13	2443.02
577.49	2444.17
577.84	2445.36
578.19	2446.70
578.54	2447.29
578.90	2447.90
579.25	2447.93
579.60	2447.93
579.95	2447.08
580.30	2447.27
580.66	2446.54
581.01	2445.02
581.36	2442.68
581.71	2441.43
582.06	2440.41
582.42	2439.75
582.77	2437.70
583.12	2436.18
583.47	2434.78
583.82	2434.47
584.17	2433.45
584.53	2431.42
584.88	2429.46
585.23	2427.69
585.58	2425.48
585.93	2423.59
586.28	2421.72
586.63	2419.22
586.98	2416.96
587.34	2415.11
587.69	2412.68
588.04	2410.78
588.39	2409.36
588.74	2407.02
589.09	2404.44
589.44	2401.28
589.79	2398.69
590.14	2396.71
590.49	2393.97
590.84	2390.13
591.19	2387.00
591.54	2383.75
591.89	2379.76
592.25	2376.44
592.60	2372.21
592.95	2368.13
593.30	2363.99
593.65	2359.54
594.00	2355.05
594.35	2352.12
594.70	2347.41
595.05	2342.95
595.40	2337.44
595.75	2331.66
596.10	2327.98
596.45	2322.97
596.80	2318.39
597.15	2313.40
597.50	2307.49
597.85	2302.61
598.19	2297.56
598.54	2291.72
598.89	2286.35
599.24	2281.65
599.59	2275.47
599.94	2269.55
600.29	2263.59
600.64	2257.55
600.99	2250.66
601.34	2245.26
601.69	2238.22
602.04	2231.89
602.39	2225.14
602.74	2218.94
603.08	2213.28
603.43	2206.77
603.78	2200.04
604.13	2192.95
604.48	2185.52
604.83	2179.42
605.18	2173.08
605.53	2166.06
605.87	2159.02
606.22	2152.33
606.57	2144.47
606.92	2136.49
607.27	2129.51
607.62	2122.81
607.96	2115.90
608.31	2109.42
608.66	2101.63
609.01	2093.96
609.36	2086.78
609.70	2079.05
610.05	2071.38
610.40	2063.08
610.75	2054.72
611.10	2046.84
611.44	2037.95
611.79	2029.23
612.14	2019.04
612.49	2008.26
612.83	1998.77
613.18	1989.41
613.53	1979.98
613.88	1970.29
614.22	1961.55
614.57	1951.64
614.92	1940.96
615.27	1930.49
615.61	1920.36
615.96	1910.57
616.31	1900.95
616.65	1891.43
617.00	1881.68
617.35	1871.86
617.70	1861.99
618.04	1851.77
618.39	1841.59
618.74	1831.71
619.08	1821.90
619.43	1813.19
619.78	1804.81
620.12	1796.08
620.47	1786.38
620.82	1775.88
621.16	1766.04
621.51	1756.00
621.85	1745.93
622.20	1735.39
622.55	1724.84
622.89	1714.80
623.24	1705.03
623.59	1695.12
623.93	1684.81
624.28	1674.83
624.62	1664.66
624.97	1654.34
625.32	1644.51
625.66	1635.49
626.01	1626.77
626.35	1617.44
626.70	1607.25
627.04	1597.07
627.39	1586.77
627.73	1577.37
628.08	1568.34
628.43	1558.62
628.77	1549.26
629.12	1540.35
629.46	1532.53
629.81	1524.13
630.15	1514.50
630.50	1504.60
630.84	1493.88
631.19	1484.00
631.53	1474.74
631.88	1464.36
632.22	1454.22
632.57	1444.83
632.91	1434.58
633.26	1424.60
633.60	1414.84
633.95	1405.58
634.29	1396.02
634.64	1386.76
634.98	1376.60
635.32	1367.17
635.67	1358.61
636.01	1349.25
636.36	1339.39
636.70	1329.74
637.05	1320.12
637.39	1311.04
637.73	1302.29
638.08	1294.62
638.42	1286.27
638.77	1277.29
639.11	1269.08
639.45	1261.14
639.80	1252.47
640.14	1243.66
640.49	1234.65
640.83	1225.73
641.17	1217.30
641.52	1209.04
641.86	1200.27
642.20	1192.31
642.55	1183.67
642.89	1174.62
643.23	1165.96
643.58	1157.68
643.92	1148.45
644.26	1139.76
644.61	1131.15
644.95	1122.23
645.29	1112.96
645.64	1103.54
645.98	1094.79
646.32	1086.75
646.66	1078.16
647.01	1069.58
647.35	1061.23
647.69	1052.77
648.04	1044.33
648.38	1035.29
648.72	1026.42
649.06	1017.85
649.41	1009.56
649.75	1001.49
650.09	993.59
650.43	985.44
650.78	977.03
651.12	969.27
651.46	961.66
651.80	954.42
652.14	946.93
652.49	939.30
652.83	931.93
653.17	924.20
653.51	916.41
653.85	909.03
654.20	901.74
654.54	894.21
654.88	886.91
655.22	879.64
655.56	872.58
655.90	865.72
656.25	858.94
656.59	851.98
656.93	844.83
657.27	837.52
657.61	830.39
657.95	824.19
658.29	818.20
658.64	811.97
658.98	805.43
659.32	798.79
659.66	792.44
660.00	786.04
660.34	779.93
660.68	773.78
661.02	767.34
661.36	761.31
661.70	755.51
662.05	749.69
662.39	744.19
662.73	738.74
663.07	733.22
663.41	727.57
663.75	721.82
664.09	716.08
664.43	710.64
664.77	705.22
665.11	699.33
665.45	693.32
665.79	687.42
666.13	681.56
666.47	676.06
666.81	670.53
667.15	665.08
667.49	659.76
667.83	654.41
668.17	649.11
668.51	643.87
668.85	638.84
669.19	633.94
669.53	628.75
669.87	623.51
670.21	618.67
670.55	613.90
670.89	609.38
671.23	605.05
671.57	600.55
671.91	596.21
672.25	592.02
672.58	587.85
672.92	583.77
673.26	579.84
673.60	575.86
673.94	572.06
674.28	568.42
674.62	564.67
674.96	560.88
675.30	557.31
675.64	553.63
675.97	549.96
676.31	546.28
676.65	542.68
676.99	539.28
677.33	535.46
677.67	531.75
678.01	527.84
678.34	524.17
678.68	520.65
679.02	517.04
679.36	513.30
679.70	509.59
680.04	506.00
680.37	502.49
680.71	499.18
681.05	495.93
681.39	492.64
681.73	489.44
682.06	486.33
682.40	483.23
682.74	479.98
683.08	476.80
683.42	473.58
683.75	470.52
684.09	467.41
684.43	464.52
684.77	461.51
685.10	458.63
685.44	455.64
685.78	452.68
686.12	449.82
686.45	447.08
686.79	444.40
687.13	441.86
687.46	439.23
687.80	436.50
688.14	433.65
688.48	430.94
688.81	428.20
689.15	425.62
689.49	422.94
689.82	420.37
690.16	417.70
690.50	415.20
690.83	412.69
691.17	410.18
691.51	407.68
691.84	405.42
692.18	403.17
692.52	400.95
692.85	398.75
693.19	396.61
693.52	394.41
693.86	392.16
694.20	389.89
694.53	387.66
694.87	385.46
695.21	383.32
695.54	381.15
695.88	378.95
696.21	376.74
696.55	374.67
696.88	372.59
697.22	370.60
697.56	368.72
697.89	366.77
698.23	364.97
698.56	363.17
698.90	361.40
699.23	359.45
699.57	357.54
699.90	355.68
700.24	353.81
700.58	352.04
700.91	350.38
701.25	348.83
701.58	347.24
701.92	345.61
702.25	343.94
702.59	342.32
702.92	340.81
703.26	339.22
703.59	337.69
703.93	336.42
704.26	335.01
704.60	333.44
704.93	332.00
705.26	330.46
705.60	328.94
705.93	327.37
706.27	326.05
706.60	324.81
706.94	323.52
707.27	322.14
707.61	320.75
707.94	319.37
708.27	317.86
708.61	316.39
708.94	315.02
709.28	313.70
709.61	312.40
709.94	311.15
710.28	309.89
710.61	308.69
710.95	307.23
711.28	306.10
711.61	304.93
711.95	303.78
712.28	302.59
712.61	301.38
712.95	300.35
713.28	299.31
713.61	298.14
713.95	296.98
714.28	295.98
714.61	294.95
714.95	293.90
715.28	292.87
715.61	291.82
715.95	290.85
716.28	289.89
716.61	288.95
716.95	287.96
717.28	287.03
717.61	286.08
717.94	285.20
718.28	284.19
718.61	283.31
718.94	282.37
719.27	281.50
719.61	280.71
719.94	279.85
720.27	278.88
720.60	278.00
720.94	277.20
721.27	276.43
721.60	275.76
721.93	275.03
722.27	274.39
722.60	273.75
722.93	273.02
723.26	272.36
723.59	271.66
723.93	271.00
724.26	270.33
724.59	269.66
724.92	269.05
725.25	268.48
725.59	267.90
725.92	267.38
726.25	266.82
726.58	266.27
726.91	265.66
727.24	265.11
727.57	264.59
727.91	263.97
728.24	263.41
728.57	262.78
728.90	262.26
729.23	261.62
729.56	261.12
729.89	260.56
730.22	259.99
730.55	259.42
730.89	258.91
731.22	258.37
731.55	257.85
731.88	257.32
732.21	256.77
732.54	256.20
732.87	255.71
733.20	255.21
733.53	254.69
733.86	254.22
734.19	253.71
734.52	253.25
734.85	252.98
735.18	252.51
735.51	252.13
735.84	251.68
736.17	251.28
736.50	250.78
736.83	250.62
737.16	250.28
737.49	249.94
737.82	249.54
738.15	249.21
738.48	248.83
738.81	248.42
739.14	247.98
739.47	247.61
739.80	247.23
740.13	246.87
740.46	246.49
740.79	246.09
741.12	245.73
741.45	245.39
741.78	244.96
742.11	244.69
742.44	244.29
742.77	243.98
743.10	243.61
743.43	243.28
743.75	242.73
744.08	242.62
744.41	242.21
744.74	241.87
745.07	241.49
745.40	241.19
745.73	240.93
746.06	240.65
746.39	240.37
746.71	240.00
747.04	239.64
747.37	239.29
747.70	239.01
748.03	238.71
748.36	238.39
748.68	238.05
749.01	237.72
749.34	237.45
749.67	237.14
750.00	236.88
750.33	236.74
750.65	236.47
750.98	235.95
751.31	235.72
751.64	235.46
751.97	235.33
752.29	235.08
752.62	234.74
752.95	234.47
753.28	234.19
753.60	233.99
753.93	233.80
754.26	233.62
754.59	233.37
754.91	233.13
755.24	232.88
755.57	232.65
755.90	232.40
756.22	232.14
756.55	231.91
756.88	231.69
757.20	231.33
757.53	231.07
757.86	230.85
758.19	230.66
758.51	230.45
758.84	230.12
759.17	229.92
759.49	229.72
759.82	229.65
760.15	229.47
760.47	229.25
760.80	229.03
761.13	228.87
761.45	228.69
761.78	228.54
762.11	228.39
762.43	228.21
762.76	228.02
763.08	227.85
763.41	227.67
763.74	227.51
764.06	227.38
764.39	227.27
764.71	227.10
765.04	226.93
765.37	226.77
765.69	226.66
766.02	226.51
766.34	226.40
766.67	226.19
767.00	226.09
767.32	226.09
767.65	226.06
767.97	225.91
768.30	225.79
768.62	225.64
768.95	225.49
769.27	225.37
769.60	225.29
769.92	225.20
770.25	225.07
770.57	224.93
770.90	224.79
771.22	224.64
771.55	224.52
771.87	224.44
772.20	224.34
772.52	224.37
772.85	224.50
773.17	224.39
773.50	224.28
773.82	224.13
774.15	223.92
774.47	223.68
774.80	223.54
775.12	223.42
775.45	223.33
775.77	223.21
776.09	223.12
776.42	223.05
776.74	222.98
777.07	222.89
777.39	222.77
777.72	222.67
778.04	222.62
778.36	222.55
778.69	222.44
779.01	222.36
779.33	222.08
779.66	221.76
779.98	221.67
780.31	221.58
780.63	221.62
780.95	221.57
781.28	221.52
781.60	221.43
781.92	221.38
782.25	221.33
782.57	221.29
782.89	221.20
783.22	221.10
783.54	220.98
783.86	220.92
784.19	220.90
784.51	220.90
784.83	220.82
785.16	220.74
785.48	220.71
785.80	220.62
786.12	220.60
786.45	220.54
786.77	220.49
787.09	220.44
787.42	220.30
787.74	220.25
788.06	220.19
788.38	220.16
788.71	220.08
789.03	220.01
789.35	219.99
789.67	219.93
789.99	219.88
790.32	219.81
790.64	219.77
790.96	219.85
791.28	219.75
791.61	219.69
791.93	219.67
792.25	219.59
792.57	219.70
792.89	219.63
793.21	219.60
793.54	219.51
793.86	219.46
794.18	219.40
794.50	219.32
794.82	219.28
795.14	219.24
795.47	219.25
795.79	219.19
796.11	219.09
796.43	219.00
796.75	218.92
797.07	218.89
797.39	218.86
797.71	218.68
798.04	218.62
798.36	218.59
798.68	218.54
799.00	218.52
799.32	218.35
799.64	218.33
799.96	218.26
800.28	218.28
800.60	218.22
800.92	218.21
801.24	218.14
801.56	218.15
801.89	218.09
802.21	218.06
802.53	217.98
802.85	218.01
803.17	218.10
803.49	218.04
803.81	217.98
804.13	217.91
804.45	217.84
804.77	217.83
805.09	217.77
805.41	217.70
805.73	217.63
806.05	217.57
806.37	217.52
806.69	217.48
807.01	217.44
807.33	217.43
807.65	217.33
807.97	217.42
808.28	217.37
808.60	217.34
808.92	217.26
809.24	217.38
809.56	217.31
809.88	217.22
810.20	217.19
810.52	217.22
810.84	217.16
811.16	217.12
811.48	217.06
811.80	217.11
812.12	217.07
812.43	217.08
812.75	217.08
813.07	217.02
813.39	216.99
813.71	216.92
814.03	216.88
814.35	216.86
814.67	216.72
814.98	216.66
815.30	216.61
815.62	216.58
815.94	216.43
816.26	216.44
816.58	216.36
816.89	216.38
817.21	216.32
817.53	216.32
817.85	216.31
818.17	216.32
818.48	216.25
818.80	216.31
819.12	216.25
819.44	216.19
819.76	216.18
820.07	216.15
820.39	216.16
820.71	216.16
821.03	216.16
821.34	216.17
821.66	216.18
821.98	216.22
822.30	216.20
822.61	216.32
822.93	216.27
823.25	216.27
823.57	216.24
823.88	216.29
824.20	216.26
824.52	216.28
824.83	216.23
825.15	216.17
825.47	216.11
825.79	216.11
826.10	216.08
826.42	216.06
826.74	216.09
827.05	216.05
827.37	216.05
827.69	216.03
828.00	216.01
828.32	216.02
828.64	215.94
828.95	216.05
829.27	215.96
829.58	215.93
829.90	215.96
830.22	215.96
830.53	215.92
830.85	215.91
831.17	215.88
831.48	215.88
831.80	215.90
832.11	215.88
832.43	215.85
832.75	215.84
833.06	215.97
833.38	215.88
833.69	215.90
834.01	215.92
834.32	215.90
834.64	215.89
834.96	215.88
835.27	215.89
835.59	215.81
835.90	215.76
836.22	215.78
836.53	215.73
836.85	215.71
837.16	215.89
837.48	215.87
837.79	215.90
838.11	215.93
838.42	215.90
838.74	215.93
839.05	215.92
839.37	215.90
839.68	215.75
840.00	215.77
840.31	215.78
840.63	215.70
840.94	215.67
841.26	215.64
841.57	215.63
841.88	215.66
842.20	215.62
842.51	215.60
842.83	215.57
843.14	215.74
843.46	215.74
843.77	215.61
844.08	215.60
844.40	215.49
844.71	215.45
845.03	215.48
845.34	215.47
845.65	215.45
845.97	215.50
846.28	215.51
846.60	215.52
846.91	215.49
847.22	215.52
847.54	215.54
847.85	215.54
848.16	215.47
848.48	215.41
848.79	215.48
849.10	215.49
849.42	215.49
849.73	215.30
850.04	215.27
850.36	215.17
850.67	215.24
850.98	215.24
851.30	215.27
851.61	215.22
851.92	215.21
852.23	215.27
852.55	215.26
852.86	215.24
853.17	215.26
853.49	215.28
853.80	215.29
854.11	215.32
854.42	215.36
854.74	215.37
855.05	215.39
855.36	215.28
855.67	215.28
855.99	215.27
856.30	215.50
856.61	215.46
856.92	215.45
857.23	215.42
857.55	215.43
857.86	215.39
858.17	215.41
858.48	215.36
858.79	215.34
859.11	215.36
859.42	215.35
859.73	215.32
860.04	215.31
860.35	215.24
860.66	215.20
860.98	215.19
861.29	215.21
861.60	215.18
861.91	215.25
862.22	215.20
862.53	215.21
862.84	214.97
863.16	215.06
863.47	215.03
863.78	215.03
864.09	215.02
864.40	215.04
864.71	215.04
865.02	215.07
865.33	215.03
865.64	214.95
865.95	214.97
866.27	215.11
866.58	215.10
866.89	215.14
867.20	215.11
867.51	215.06
867.82	215.04
868.13	215.08
868.44	215.06
868.75	215.10
869.06	215.07
869.37	215.06
869.68	214.98
869.99	215.01
870.30	215.00
870.61	215.03
870.92	215.00
871.23	214.99
871.54	215.02
871.85	215.05
872.16	215.09
872.47	215.08
872.78	214.94
873.09	214.94
873.40	214.91
873.71	214.96
874.02	214.96
874.33	214.93
874.64	214.91
874.95	214.90
875.26	214.89
875.56	214.92
875.87	214.93
876.18	214.94
876.49	215.14
876.80	215.10
877.11	215.06
877.42	215.08
877.73	215.12
878.04	215.09
878.35	215.08
878.66	215.06
878.96	215.02
879.27	215.00
879.58	214.99
879.89	214.99
880.20	215.00
880.51	215.02
880.82	215.04
881.12	215.05
881.43	215.00
881.74	214.98
882.05	214.93
882.36	214.92
882.67	214.94
882.97	214.74
883.28	214.77
883.59	214.74
883.90	214.79
884.21	214.77
884.51	214.74
884.82	214.74
885.13	214.73
885.44	214.73
885.74	214.77
886.05	214.75
886.36	214.74
886.67	214.68
886.98	214.75
887.28	214.77
887.59	214.77
887.90	214.77
888.20	214.77
888.51	214.82
888.82	214.78
889.13	214.78
889.43	214.93
889.74	214.90
890.05	214.90
890.35	214.86
890.66	214.81
890.97	214.77
891.28	214.75
891.58	214.77
891.89	214.76
892.20	214.70
892.50	214.70
892.81	214.69
893.12	214.72
893.42	214.63
893.73	214.61
894.04	214.62
894.34	214.64
894.65	214.59
894.95	214.58
895.26	214.62
895.57	214.71
895.87	214.52
896.18	214.59
896.48	214.62
896.79	214.61
897.10	214.65
897.40	214.70
897.71	214.69
898.01	214.68
898.32	214.72
898.63	214.71
898.93	214.74
899.24	214.75
899.54	214.69
899.85	214.69
900.15	214.67
900.46	214.65
900.76	214.67
901.07	214.71
901.38	214.69
901.68	214.68
901.99	214.57
902.29	214.57
902.60	214.55
902.90	214.53
903.21	214.55
903.51	214.55
903.82	214.57
904.12	214.59
904.43	214.57
904.73	214.57
905.03	214.61
905.34	214.81
905.64	214.78
905.95	214.77
906.25	214.80
906.56	214.81
906.86	214.81
907.17	214.79
907.47	214.81
907.77	214.81
908.08	214.79
908.38	214.82
908.69	214.84
908.99	214.88
909.30	214.89
909.60	214.90
909.90	214.91
910.21	214.86
910.51	214.84
910.81	214.89
911.12	214.91
911.42	214.88
911.73	214.66
912.03	214.69
912.33	214.76
912.64	214.71
912.94	214.68
913.24	214.66
913.55	214.65
913.85	214.61
914.15	214.66
914.46	214.69
914.76	214.65
915.06	214.67
915.37	214.58
915.67	214.57
915.97	214.54
916.27	214.50
916.58	214.50
916.88	214.47
917.18	214.41
917.49	214.52
917.79	214.54
918.09	214.58
918.39	214.63
918.70	214.61
919.00	214.64
919.30	214.76
919.60	214.76
919.91	214.74
920.21	214.77
920.51	214.69
920.81	214.69
921.12	214.74
921.42	214.71
921.72	214.75
922.02	214.76
922.32	214.81
922.63	214.79
922.93	214.88
923.23	214.90
923.53	214.91
923.83	214.75
924.13	214.76
924.44	214.73
924.74	214.74
925.04	214.81
925.34	214.79
925.64	214.68
925.94	214.67
926.24	214.77
926.55	214.76
926.85	214.81
927.15	214.78
927.45	214.73
927.75	214.73
928.05	214.72
928.35	214.72
928.65	214.71
928.95	214.75
929.26	214.71
929.56	214.72
929.86	214.75
930.16	214.77
930.46	214.73
930.76	214.78
931.06	214.67
931.36	214.59
931.66	214.61
931.96	214.67
932.26	214.68
932.56	214.59
932.86	214.61
933.16	214.60
933.46	214.60
933.76	214.58
934.06	214.63
934.36	214.70
934.66	214.71
934.96	214.69
935.26	214.68
935.56	214.69
935.86	214.66
936.16	214.64
936.46	214.61
936.76	214.62
937.06	214.56
937.36	214.59
937.66	214.63
937.96	214.65
938.26	214.58
938.56	214.59
938.86	214.60
939.16	214.62
939.46	214.66
939.76	214.68
940.06	214.69
940.35	214.64
940.65	214.54
940.95	214.56
941.25	214.51
941.55	214.51
941.85	214.51
942.15	214.57
942.45	214.59
942.75	214.61
943.04	214.61
943.34	214.66
943.64	214.64
943.94	214.58
944.24	214.58
944.54	214.59
944.84	214.54
945.13	214.51
945.43	214.47
945.73	214.45
946.03	214.42
946.33	214.41
946.62	214.40
946.92	214.39
947.22	214.37
947.52	214.39
947.82	214.42
948.11	214.40
948.41	214.35
948.71	214.30
949.01	214.29
949.31	214.27
949.60	214.24
949.90	214.27
950.20	214.25
950.50	214.22
950.79	214.18
951.09	214.26
951.39	214.29
951.69	214.28
951.98	214.33
952.28	214.33
952.58	214.31
952.87	214.32
953.17	214.37
953.47	214.35
953.76	214.32
954.06	214.28
954.36	214.23
954.66	214.22
954.95	214.28
955.25	214.28
955.55	214.33
955.84	214.30
956.14	214.31
956.44	214.31
956.73	214.30
957.03	214.34
957.32	214.30
957.62	214.26
957.92	214.28
958.21	214.23
958.51	214.48
958.81	214.48
959.10	214.49
959.40	214.50
959.69	214.53
959.99	214.61
960.29	214.58
960.58	214.57
960.88	214.63
961.17	214.61
961.47	214.65
961.76	214.60
962.06	214.65
962.36	214.62
962.65	214.66
962.95	214.67
963.24	214.65
963.54	214.68
963.83	214.70
964.13	214.68
964.42	214.66
964.72	214.50
965.01	214.52
965.31	214.53
965.60	214.49
965.90	214.62
966.19	214.54
966.49	214.54
966.78	214.54
967.08	214.53
967.37	214.57
967.67	214.51
967.96	214.55
968.26	214.52
968.55	214.56
968.85	214.56
969.14	214.57
969.43	214.57
969.73	214.55
970.02	214.53
970.32	214.52
970.61	214.49
970.91	214.41
971.20	214.39
971.49	214.37
971.79	214.42
972.08	214.26
972.38	214.28
972.67	214.30
972.96	214.35
973.26	214.33
973.55	214.36
973.85	214.38
974.14	214.37
974.43	214.41
974.73	214.36
975.02	214.37
975.31	214.36
975.61	214.35
975.90	214.33
976.19	214.32
976.49	214.34
976.78	214.37
977.07	214.36
977.37	214.37
977.66	214.38
977.95	214.35
978.24	214.37
978.54	214.41
978.83	214.38
979.12	214.38
979.42	214.36
979.71	214.32
980.00	214.33
980.29	214.34
980.59	214.31
980.88	214.39
981.17	214.32
981.46	214.30
981.76	214.29
982.05	214.38
982.34	214.38
982.63	214.36
982.93	214.36
983.22	214.41
983.51	214.43
983.80	214.46
984.09	214.46
984.39	214.44
984.68	214.40
984.97	214.43
985.26	214.38
985.55	214.41
985.85	214.37
986.14	214.38
986.43	214.40
986.72	214.39
987.01	214.31
987.30	214.35
987.59	214.32
987.89	214.36
988.18	214.29
988.47	214.29
988.76	214.30
989.05	214.31
989.34	214.29
989.63	214.33
989.92	214.28
990.22	214.23
990.51	214.23
990.80	214.24
991.09	214.25
991.38	214.29
991.67	214.23
991.96	214.23
992.25	214.23
992.54	214.19
992.83	214.18
993.12	214.17
993.41	214.16
993.70	214.27
993.99	214.28
994.28	214.30
994.58	214.35
994.87	214.31
995.16	214.28
995.45	214.25
995.74	214.20
996.03	214.27
996.32	214.34
996.61	214.37
996.90	214.38
997.19	214.35
997.48	214.35
997.77	214.37
998.06	214.36
998.34	214.34
998.63	214.35
998.92	214.37
999.21	214.41
999.50	214.42
999.79	214.34
1000.08	214.35
1000.37	214.34
1000.66	214.29
1000.95	214.37
1001.24	214.38
1001.53	214.41
1001.82	214.39
1002.11	214.29
1002.40	214.30
1002.68	214.34
1002.97	214.49
1003.26	214.47
1003.55	214.45
1003.84	214.49
1004.13	214.60
1004.42	214.59
1004.71	214.59
1004.99	214.58
1005.28	214.63
1005.57	214.65
1005.86	214.64
1006.15	214.62
1006.44	214.60
1006.72	214.63
1007.01	214.59
1007.30	214.60
1007.59	214.57
1007.88	214.58
1008.17	214.61
1008.45	214.58
1008.74	214.55
1009.03	214.44
1009.32	214.47
1009.60	214.45
1009.89	214.41
1010.18	214.30
1010.47	214.30
1010.76	214.29
1011.04	214.25
1011.33	214.27
1011.62	214.26
1011.91	214.26
1012.19	214.26
1012.48	214.29
1012.77	214.28
1013.05	214.40
1013.34	214.39
1013.63	214.40
1013.92	214.41
1014.20	214.42
1014.49	214.44
1014.78	214.43
1015.06	214.37
1015.35	214.36
1015.64	214.42
1015.92	214.47
1016.21	214.48
1016.50	214.46
1016.78	214.51
1017.07	214.54
1017.36	214.47
1017.64	214.48
1017.93	214.52
1018.22	214.49
1018.50	214.48
1018.79	214.49
1019.08	214.37
1019.36	214.39
1019.65	214.39
1019.93	214.45
1020.22	214.47
1020.51	214.55
1020.79	214.51
1021.08	213.78
1021.36	214.16
1021.65	214.42
1021.94	214.28
1022.22	214.66
1022.51	214.31
1022.79	215.43
1023.08	214.63
1023.36	216.63
1023.65	213.71
>>>>>End Processed Spectral Data<<<<<
