SpectraSuite Data File
++++++++++++++++++++++++++++++++++++
Date: Tue Jan 29 16:06:22 EST 2013
User: group
Dark Spectrum Present: No
Reference Spectrum Present: No
Number of Sampled Component Spectra: 1
Spectrometers: USB2E7196
Integration Time (usec): 65000 (USB2E7196)
Spectra Averaged: 100 (USB2E7196)
Boxcar Smoothing: 10 (USB2E7196)
Correct for Electrical Dark: No (USB2E7196)
Strobe/Lamp Enabled: No (USB2E7196)
Correct for Detector Non-linearity: No (USB2E7196)
Correct for Stray Light: No (USB2E7196)
Number of Pixels in Processed Spectrum: 2048
>>>>>Begin Processed Spectral Data<<<<<
339.09	0.00
339.48	202.35
339.86	204.10
340.24	205.78
340.63	207.32
341.01	211.53
341.39	209.68
341.78	210.88
342.16	212.82
342.54	212.35
342.93	201.83
343.31	212.05
343.69	212.59
344.07	213.05
344.46	213.47
344.84	213.87
345.22	214.02
345.60	214.28
345.99	214.49
346.37	214.58
346.75	214.71
347.13	214.77
347.52	214.83
347.90	214.97
348.28	215.01
348.66	215.09
349.05	215.06
349.43	215.17
349.81	215.21
350.19	215.28
350.57	215.33
350.96	215.42
351.34	215.48
351.72	215.62
352.10	215.74
352.48	215.81
352.87	215.83
353.25	215.91
353.63	215.95
354.01	216.04
354.39	216.17
354.77	216.25
355.15	216.38
355.54	216.42
355.92	216.41
356.30	216.45
356.68	216.66
357.06	216.76
357.44	216.77
357.82	216.83
358.20	216.91
358.58	216.99
358.97	217.06
359.35	217.17
359.73	217.24
360.11	217.29
360.49	217.33
360.87	217.39
361.25	217.46
361.63	217.60
362.01	217.60
362.39	217.62
362.77	217.66
363.15	217.67
363.53	217.72
363.91	217.76
364.29	217.77
364.67	217.60
365.05	217.61
365.43	217.65
365.81	217.68
366.19	217.76
366.57	217.83
366.95	217.82
367.33	217.77
367.71	217.77
368.09	217.80
368.47	217.79
368.85	217.80
369.23	217.83
369.61	217.72
369.99	217.81
370.37	217.78
370.75	217.88
371.13	217.83
371.51	217.75
371.89	217.78
372.27	217.80
372.65	217.77
373.03	217.76
373.41	217.68
373.78	217.62
374.16	217.47
374.54	217.38
374.92	217.31
375.30	217.27
375.68	217.15
376.06	217.10
376.44	217.09
376.82	217.05
377.19	216.98
377.57	216.92
377.95	216.80
378.33	216.78
378.71	216.58
379.09	216.58
379.47	216.57
379.84	216.50
380.22	216.42
380.60	216.36
380.98	216.29
381.36	216.24
381.73	216.19
382.11	216.23
382.49	216.17
382.87	216.12
383.25	216.08
383.62	216.33
384.00	216.27
384.38	216.22
384.76	216.23
385.13	216.28
385.51	216.26
385.89	216.19
386.27	216.13
386.64	216.17
387.02	216.10
387.40	216.07
387.78	216.02
388.15	216.02
388.53	215.99
388.91	215.96
389.29	215.96
389.66	216.01
390.04	215.96
390.42	216.00
390.79	216.02
391.17	216.03
391.55	215.80
391.92	215.79
392.30	215.81
392.68	215.73
393.05	215.69
393.43	215.68
393.81	215.71
394.18	215.72
394.56	215.72
394.94	215.76
395.31	215.74
395.69	215.87
396.06	215.90
396.44	215.95
396.82	215.96
397.19	216.10
397.57	216.05
397.95	216.12
398.32	216.07
398.70	216.13
399.07	216.24
399.45	216.26
399.82	216.28
400.20	216.31
400.58	216.39
400.95	216.38
401.33	216.50
401.70	216.70
402.08	216.79
402.45	216.88
402.83	217.02
403.20	217.14
403.58	217.19
403.95	217.33
404.33	217.47
404.71	217.63
405.08	217.86
405.46	218.04
405.83	218.21
406.21	218.41
406.58	218.63
406.96	218.81
407.33	219.07
407.70	219.39
408.08	219.83
408.45	220.17
408.83	220.57
409.20	220.91
409.58	221.15
409.95	221.60
410.33	222.06
410.70	222.46
411.08	223.03
411.45	223.61
411.82	224.17
412.20	224.85
412.57	225.64
412.95	226.20
413.32	226.99
413.69	227.79
414.07	228.68
414.44	229.58
414.82	230.58
415.19	231.70
415.56	232.81
415.94	233.95
416.31	235.27
416.68	236.60
417.06	238.16
417.43	239.69
417.81	241.37
418.18	243.11
418.55	245.00
418.93	246.90
419.30	248.89
419.67	251.04
420.04	253.21
420.42	255.52
420.79	258.25
421.16	260.96
421.54	263.76
421.91	266.66
422.28	269.67
422.66	272.83
423.03	275.97
423.40	279.25
423.77	282.72
424.15	286.28
424.52	289.98
424.89	294.00
425.26	297.95
425.64	301.66
426.01	305.76
426.38	310.05
426.75	314.47
427.13	319.07
427.50	323.88
427.87	328.95
428.24	333.94
428.61	338.73
428.99	344.11
429.36	349.92
429.73	355.59
430.10	361.24
430.47	367.14
430.85	373.25
431.22	379.72
431.59	386.60
431.96	393.23
432.33	400.55
432.70	407.56
433.08	415.77
433.45	423.56
433.82	431.33
434.19	439.92
434.56	448.32
434.93	456.41
435.30	464.40
435.68	473.19
436.05	481.85
436.42	490.43
436.79	498.23
437.16	506.69
437.53	515.66
437.90	524.45
438.27	533.07
438.64	541.94
439.01	550.15
439.38	557.46
439.75	564.47
440.13	572.58
440.50	580.21
440.87	586.42
441.24	592.88
441.61	599.96
441.98	605.10
442.35	611.19
442.72	617.19
443.09	623.02
443.46	626.62
443.83	629.01
444.20	631.10
444.57	634.10
444.94	635.45
445.31	636.77
445.68	638.15
446.05	638.73
446.42	637.99
446.79	637.08
447.16	635.99
447.53	635.28
447.90	632.01
448.27	628.85
448.64	624.31
449.01	621.01
449.37	615.30
449.74	609.88
450.11	603.19
450.48	596.01
450.85	588.77
451.22	582.49
451.59	576.59
451.96	570.98
452.33	563.40
452.70	556.56
453.07	548.43
453.43	540.14
453.80	532.16
454.17	524.44
454.54	517.20
454.91	509.34
455.28	501.64
455.65	494.48
456.02	487.24
456.38	481.14
456.75	473.61
457.12	467.27
457.49	461.01
457.86	455.09
458.23	450.03
458.59	444.40
458.96	438.65
459.33	433.55
459.70	428.44
460.07	424.41
460.43	419.73
460.80	415.34
461.17	411.51
461.54	407.49
461.91	403.60
462.27	399.60
462.64	396.27
463.01	392.60
463.38	389.05
463.74	385.47
464.11	382.35
464.48	379.62
464.85	376.68
465.21	374.33
465.58	371.85
465.95	368.79
466.32	366.27
466.68	363.77
467.05	361.33
467.42	358.85
467.78	356.23
468.15	353.78
468.52	351.97
468.88	349.58
469.25	347.42
469.62	345.73
469.98	343.88
470.35	342.17
470.72	340.57
471.08	338.88
471.45	337.45
471.82	336.01
472.18	334.41
472.55	333.22
472.92	331.93
473.28	330.73
473.65	329.64
474.02	328.61
474.38	327.76
474.75	327.03
475.11	326.29
475.48	325.76
475.85	325.33
476.21	324.83
476.58	324.50
476.94	324.31
477.31	324.04
477.67	323.83
478.04	323.71
478.41	323.72
478.77	323.90
479.14	323.93
479.50	324.14
479.87	324.46
480.23	324.85
480.60	325.09
480.96	325.40
481.33	326.02
481.69	326.60
482.06	327.11
482.42	327.62
482.79	328.18
483.15	328.98
483.52	329.93
483.88	330.86
484.25	331.83
484.61	332.88
484.98	333.94
485.34	335.25
485.71	336.60
486.07	337.99
486.44	339.29
486.80	340.89
487.17	342.57
487.53	344.39
487.90	346.24
488.26	348.23
488.62	350.34
488.99	352.37
489.35	354.48
489.72	356.87
490.08	359.41
490.44	362.00
490.81	364.70
491.17	367.38
491.54	370.36
491.90	373.43
492.26	376.63
492.63	380.05
492.99	383.53
493.36	387.24
493.72	391.17
494.08	395.22
494.45	399.38
494.81	403.67
495.17	408.14
495.54	412.83
495.90	417.65
496.26	422.62
496.63	427.83
496.99	433.21
497.35	438.80
497.72	444.57
498.08	450.49
498.44	456.57
498.80	463.05
499.17	469.50
499.53	476.13
499.89	482.97
500.26	489.85
500.62	496.87
500.98	504.23
501.34	511.60
501.71	519.27
502.07	527.07
502.43	535.04
502.79	543.05
503.16	551.37
503.52	559.95
503.88	568.68
504.24	577.60
504.60	586.62
504.97	595.77
505.33	605.03
505.69	614.86
506.05	624.70
506.41	634.49
506.78	644.52
507.14	654.76
507.50	665.16
507.86	675.85
508.22	686.70
508.59	697.36
508.95	708.35
509.31	719.63
509.67	731.01
510.03	742.46
510.39	754.26
510.75	766.06
511.12	777.89
511.48	789.86
511.84	802.03
512.20	814.26
512.56	826.90
512.92	839.65
513.28	852.14
513.64	864.81
514.00	877.53
514.37	890.41
514.73	903.38
515.09	916.30
515.45	929.05
515.81	941.90
516.17	955.03
516.53	968.19
516.89	981.07
517.25	994.13
517.61	1007.47
517.97	1020.60
518.33	1033.57
518.69	1046.98
519.05	1060.52
519.41	1073.90
519.77	1087.61
520.13	1100.60
520.49	1113.48
520.85	1126.71
521.21	1139.82
521.57	1153.27
521.93	1166.18
522.29	1179.77
522.65	1193.14
523.01	1206.49
523.37	1219.48
523.73	1232.51
524.09	1245.37
524.45	1258.63
524.81	1271.79
525.17	1284.87
525.53	1297.77
525.89	1310.81
526.25	1323.64
526.61	1336.30
526.97	1349.18
527.33	1361.86
527.68	1375.15
528.04	1388.46
528.40	1401.38
528.76	1414.48
529.12	1427.21
529.48	1440.18
529.84	1452.11
530.20	1464.68
530.56	1477.01
530.91	1489.98
531.27	1502.71
531.63	1515.27
531.99	1527.70
532.35	1539.71
532.71	1551.90
533.07	1564.46
533.42	1576.41
533.78	1588.23
534.14	1599.98
534.50	1610.95
534.86	1622.33
535.21	1632.91
535.57	1643.94
535.93	1654.84
536.29	1665.68
536.65	1676.69
537.00	1687.34
537.36	1698.32
537.72	1708.95
538.08	1720.03
538.44	1730.68
538.79	1741.31
539.15	1751.85
539.51	1762.16
539.87	1773.19
540.22	1783.58
540.58	1794.29
540.94	1804.85
541.29	1814.73
541.65	1824.19
542.01	1834.38
542.37	1844.12
542.72	1853.95
543.08	1863.54
543.44	1873.62
543.79	1882.63
544.15	1891.89
544.51	1901.72
544.87	1911.54
545.22	1920.49
545.58	1929.18
545.94	1937.82
546.29	1946.07
546.65	1954.17
547.01	1962.33
547.36	1969.75
547.72	1977.27
548.07	1984.53
548.43	1992.02
548.79	1999.89
549.14	2007.83
549.50	2016.02
549.86	2023.53
550.21	2030.71
550.57	2038.02
550.92	2044.61
551.28	2051.86
551.64	2058.89
551.99	2066.01
552.35	2072.78
552.70	2079.23
553.06	2085.67
553.41	2091.70
553.77	2098.23
554.13	2104.38
554.48	2111.14
554.84	2118.10
555.19	2124.39
555.55	2130.98
555.90	2137.10
556.26	2143.62
556.61	2149.27
556.97	2154.17
557.32	2160.01
557.68	2166.35
558.03	2172.19
558.39	2177.40
558.74	2183.20
559.10	2188.72
559.45	2194.30
559.81	2199.83
560.16	2205.44
560.52	2211.27
560.87	2217.59
561.23	2223.43
561.58	2230.22
561.94	2235.41
562.29	2240.15
562.64	2246.41
563.00	2251.85
563.35	2257.58
563.71	2263.35
564.06	2269.18
564.42	2274.96
564.77	2280.04
565.12	2285.19
565.48	2290.33
565.83	2295.99
566.19	2301.61
566.54	2306.91
566.89	2311.58
567.25	2316.23
567.60	2322.16
567.96	2327.51
568.31	2332.08
568.66	2336.35
569.02	2340.26
569.37	2344.02
569.72	2348.47
570.08	2351.91
570.43	2355.02
570.78	2358.07
571.14	2360.82
571.49	2363.98
571.84	2367.74
572.20	2370.72
572.55	2373.93
572.90	2376.12
573.26	2379.16
573.61	2381.67
573.96	2383.99
574.31	2386.02
574.67	2387.99
575.02	2389.03
575.37	2390.50
575.72	2391.61
576.08	2393.18
576.43	2393.50
576.78	2394.24
577.13	2396.15
577.49	2397.39
577.84	2398.95
578.19	2400.65
578.54	2401.41
578.90	2402.67
579.25	2402.67
579.60	2402.92
579.95	2402.39
580.30	2403.14
580.66	2402.60
581.01	2401.10
581.36	2399.03
581.71	2397.99
582.06	2397.25
582.42	2396.50
582.77	2394.48
583.12	2393.02
583.47	2392.02
583.82	2391.79
584.17	2390.83
584.53	2388.61
584.88	2386.92
585.23	2385.04
585.58	2382.90
585.93	2380.82
586.28	2378.66
586.63	2376.56
586.98	2374.54
587.34	2372.90
587.69	2370.61
588.04	2368.80
588.39	2367.54
588.74	2365.24
589.09	2362.64
589.44	2359.73
589.79	2357.38
590.14	2355.78
590.49	2353.09
590.84	2349.49
591.19	2346.57
591.54	2343.34
591.89	2339.60
592.25	2336.43
592.60	2332.42
592.95	2328.43
593.30	2324.59
593.65	2320.32
594.00	2316.05
594.35	2313.11
594.70	2308.55
595.05	2304.07
595.40	2298.65
595.75	2293.14
596.10	2289.63
596.45	2285.00
596.80	2280.49
597.15	2275.29
597.50	2269.48
597.85	2264.74
598.19	2259.64
598.54	2253.97
598.89	2249.27
599.24	2244.78
599.59	2238.81
599.94	2233.27
600.29	2227.53
600.64	2221.73
600.99	2215.16
601.34	2209.75
601.69	2202.66
602.04	2196.33
602.39	2189.80
602.74	2183.90
603.08	2178.57
603.43	2172.16
603.78	2165.48
604.13	2158.50
604.48	2151.51
604.83	2145.42
605.18	2138.96
605.53	2132.00
605.87	2124.86
606.22	2117.88
606.57	2110.06
606.92	2102.32
607.27	2095.34
607.62	2088.65
607.96	2081.73
608.31	2075.11
608.66	2067.47
609.01	2060.13
609.36	2053.11
609.70	2045.37
610.05	2037.80
610.40	2029.48
610.75	2021.29
611.10	2013.78
611.44	2004.95
611.79	1996.15
612.14	1986.15
612.49	1975.87
612.83	1966.71
613.18	1957.64
613.53	1948.41
613.88	1938.95
614.22	1930.32
614.57	1920.33
614.92	1909.94
615.27	1899.88
615.61	1890.00
615.96	1880.29
616.31	1870.65
616.65	1861.24
617.00	1851.47
617.35	1841.75
617.70	1832.07
618.04	1822.03
618.39	1811.51
618.74	1801.94
619.08	1792.54
619.43	1783.88
619.78	1775.69
620.12	1767.03
620.47	1757.16
620.82	1746.89
621.16	1737.09
621.51	1727.15
621.85	1717.47
622.20	1706.92
622.55	1696.30
622.89	1686.58
623.24	1676.93
623.59	1667.26
623.93	1657.06
624.28	1647.40
624.62	1637.11
624.97	1626.83
625.32	1617.18
625.66	1608.40
626.01	1599.60
626.35	1590.05
626.70	1579.97
627.04	1569.70
627.39	1559.60
627.73	1550.46
628.08	1541.34
628.43	1531.83
628.77	1522.54
629.12	1513.63
629.46	1505.65
629.81	1497.19
630.15	1487.51
630.50	1477.57
630.84	1467.09
631.19	1457.33
631.53	1447.81
631.88	1437.76
632.22	1427.70
632.57	1418.35
632.91	1408.12
633.26	1398.21
633.60	1388.64
633.95	1379.26
634.29	1369.94
634.64	1360.46
634.98	1350.66
635.32	1341.40
635.67	1332.79
636.01	1323.67
636.36	1313.80
636.70	1304.51
637.05	1295.06
637.39	1286.05
637.73	1277.41
638.08	1269.78
638.42	1261.49
638.77	1252.80
639.11	1244.56
639.45	1236.68
639.80	1227.85
640.14	1219.21
640.49	1210.32
640.83	1201.56
641.17	1193.50
641.52	1185.19
641.86	1176.66
642.20	1168.66
642.55	1160.16
642.89	1151.35
643.23	1142.56
643.58	1134.48
643.92	1125.40
644.26	1116.81
644.61	1108.37
644.95	1099.68
645.29	1090.46
645.64	1081.22
645.98	1072.81
646.32	1064.86
646.66	1056.26
647.01	1047.90
647.35	1039.81
647.69	1031.42
648.04	1023.02
648.38	1014.12
648.72	1005.41
649.06	996.94
649.41	988.78
649.75	980.78
650.09	972.93
650.43	964.88
650.78	956.65
651.12	948.90
651.46	941.53
651.80	934.31
652.14	926.93
652.49	919.50
652.83	912.21
653.17	904.52
653.51	896.94
653.85	889.80
654.20	882.57
654.54	875.02
654.88	867.85
655.22	860.71
655.56	853.72
655.90	846.95
656.25	840.35
656.59	833.37
656.93	826.34
657.27	819.21
657.61	812.32
657.95	806.32
658.29	800.58
658.64	794.50
658.98	788.04
659.32	781.55
659.66	775.29
660.00	769.00
660.34	763.00
660.68	756.90
661.02	750.69
661.36	744.94
661.70	739.21
662.05	733.62
662.39	728.15
662.73	722.94
663.07	717.64
663.41	712.11
663.75	706.55
664.09	701.01
664.43	695.64
664.77	690.40
665.11	684.66
665.45	678.75
665.79	672.97
666.13	667.32
666.47	661.91
666.81	656.58
667.15	651.34
667.49	646.14
667.83	641.00
668.17	635.78
668.51	630.62
668.85	625.73
669.19	620.87
669.53	615.98
669.87	610.86
670.21	606.10
670.55	601.39
670.89	597.06
671.23	592.82
671.57	588.49
671.91	584.19
672.25	580.08
672.58	576.04
672.92	572.07
673.26	568.24
673.60	564.43
673.94	560.68
674.28	557.06
674.62	553.36
674.96	549.70
675.30	546.30
675.64	542.78
675.97	539.30
676.31	535.75
676.65	532.20
676.99	528.78
677.33	525.01
677.67	521.46
678.01	517.63
678.34	514.02
678.68	510.55
679.02	507.00
679.36	503.31
679.70	499.69
680.04	496.20
680.37	492.81
680.71	489.56
681.05	486.40
681.39	483.29
681.73	480.15
682.06	477.11
682.40	474.00
682.74	470.77
683.08	467.59
683.42	464.51
683.75	461.53
684.09	458.59
684.43	455.80
684.77	452.89
685.10	450.13
685.44	447.30
685.78	444.43
686.12	441.76
686.45	439.07
686.79	436.46
687.13	433.96
687.46	431.39
687.80	428.76
688.14	425.94
688.48	423.34
688.81	420.78
689.15	418.28
689.49	415.77
689.82	413.28
690.16	410.76
690.50	408.34
690.83	405.90
691.17	403.42
691.51	401.07
691.84	398.94
692.18	396.74
692.52	394.51
692.85	392.45
693.19	390.33
693.52	388.27
693.86	386.12
694.20	384.03
694.53	381.94
694.87	379.77
695.21	377.71
695.54	375.57
695.88	373.42
696.21	371.22
696.55	369.10
696.88	367.11
697.22	365.22
697.56	363.36
697.89	361.54
698.23	359.85
698.56	358.13
698.90	356.34
699.23	354.44
699.57	352.66
699.90	350.83
700.24	349.05
700.58	347.29
700.91	345.65
701.25	344.09
701.58	342.52
701.92	340.97
702.25	339.40
702.59	337.81
702.92	336.32
703.26	334.86
703.59	333.45
703.93	332.22
704.26	330.80
704.60	329.31
704.93	327.85
705.26	326.35
705.60	324.88
705.93	323.42
706.27	322.14
706.60	320.90
706.94	319.68
707.27	318.35
707.61	317.04
707.94	315.72
708.27	314.24
708.61	312.80
708.94	311.49
709.28	310.25
709.61	309.05
709.94	307.92
710.28	306.72
710.61	305.57
710.95	304.23
711.28	303.16
711.61	302.01
711.95	300.91
712.28	299.73
712.61	298.59
712.95	297.53
713.28	296.51
713.61	295.35
713.95	294.23
714.28	293.22
714.61	292.27
714.95	291.25
715.28	290.23
715.61	289.26
715.95	288.34
716.28	287.38
716.61	286.48
716.95	285.48
717.28	284.59
717.61	283.65
717.94	282.76
718.28	281.77
718.61	280.91
718.94	280.03
719.27	279.24
719.61	278.47
719.94	277.65
720.27	276.73
720.60	275.96
720.94	275.19
721.27	274.46
721.60	273.76
721.93	273.11
722.27	272.52
722.60	271.91
722.93	271.21
723.26	270.59
723.59	269.91
723.93	269.28
724.26	268.65
724.59	268.04
724.92	267.47
725.25	266.97
725.59	266.45
725.92	265.96
726.25	265.41
726.58	264.87
726.91	264.28
727.24	263.77
727.57	263.22
727.91	262.64
728.24	262.10
728.57	261.49
728.90	260.98
729.23	260.39
729.56	259.93
729.89	259.39
730.22	258.80
730.55	258.25
730.89	257.72
731.22	257.19
731.55	256.69
731.88	256.19
732.21	255.65
732.54	255.10
732.87	254.55
733.20	254.05
733.53	253.55
733.86	253.13
734.19	252.65
734.52	252.25
734.85	251.96
735.18	251.51
735.51	251.15
735.84	250.72
736.17	250.32
736.50	249.80
736.83	249.71
737.16	249.37
737.49	249.03
737.82	248.67
738.15	248.34
738.48	247.96
738.81	247.60
739.14	247.17
739.47	246.85
739.80	246.52
740.13	246.20
740.46	245.79
740.79	245.41
741.12	245.06
741.45	244.70
741.78	244.27
742.11	243.99
742.44	243.62
742.77	243.32
743.10	242.99
743.43	242.62
743.75	242.02
744.08	241.94
744.41	241.57
744.74	241.18
745.07	240.81
745.40	240.54
745.73	240.26
746.06	239.97
746.39	239.65
746.71	239.29
747.04	238.94
747.37	238.63
747.70	238.34
748.03	238.04
748.36	237.75
748.68	237.44
749.01	237.10
749.34	236.78
749.67	236.50
750.00	236.22
750.33	236.15
750.65	235.91
750.98	235.42
751.31	235.22
751.64	235.04
751.97	234.93
752.29	234.65
752.62	234.32
752.95	234.05
753.28	233.81
753.60	233.59
753.93	233.45
754.26	233.25
754.59	232.97
754.91	232.76
755.24	232.52
755.57	232.30
755.90	232.07
756.22	231.87
756.55	231.63
756.88	231.40
757.20	231.07
757.53	230.80
757.86	230.57
758.19	230.39
758.51	230.14
758.84	229.84
759.17	229.62
759.49	229.48
759.82	229.44
760.15	229.30
760.47	229.11
760.80	228.86
761.13	228.74
761.45	228.59
761.78	228.40
762.11	228.24
762.43	228.06
762.76	227.91
763.08	227.79
763.41	227.65
763.74	227.49
764.06	227.32
764.39	227.16
764.71	227.06
765.04	226.85
765.37	226.73
765.69	226.60
766.02	226.48
766.34	226.31
766.67	226.09
767.00	225.95
767.32	225.95
767.65	225.93
767.97	225.79
768.30	225.69
768.62	225.58
768.95	225.43
769.27	225.31
769.60	225.22
769.92	225.05
770.25	224.90
770.57	224.76
770.90	224.61
771.22	224.51
771.55	224.39
771.87	224.34
772.20	224.20
772.52	224.23
772.85	224.36
773.17	224.27
773.50	224.16
773.82	224.01
774.15	223.81
774.47	223.58
774.80	223.43
775.12	223.31
775.45	223.22
775.77	223.12
776.09	223.04
776.42	222.95
776.74	222.93
777.07	222.83
777.39	222.77
777.72	222.69
778.04	222.60
778.36	222.49
778.69	222.40
779.01	222.37
779.33	222.11
779.66	221.82
779.98	221.68
780.31	221.61
780.63	221.66
780.95	221.62
781.28	221.56
781.60	221.48
781.92	221.42
782.25	221.36
782.57	221.33
782.89	221.26
783.22	221.19
783.54	221.07
783.86	221.03
784.19	220.94
784.51	220.95
784.83	220.92
785.16	220.87
785.48	220.78
785.80	220.71
786.12	220.68
786.45	220.62
786.77	220.62
787.09	220.57
787.42	220.41
787.74	220.37
788.06	220.34
788.38	220.29
788.71	220.22
789.03	220.15
789.35	220.13
789.67	220.08
789.99	220.05
790.32	219.96
790.64	219.96
790.96	220.09
791.28	219.98
791.61	219.89
791.93	219.86
792.25	219.79
792.57	219.83
792.89	219.75
793.21	219.71
793.54	219.64
793.86	219.56
794.18	219.53
794.50	219.45
794.82	219.40
795.14	219.38
795.47	219.37
795.79	219.36
796.11	219.25
796.43	219.22
796.75	219.16
797.07	219.14
797.39	219.05
797.71	218.86
798.04	218.80
798.36	218.77
798.68	218.74
799.00	218.72
799.32	218.61
799.64	218.57
799.96	218.51
800.28	218.50
800.60	218.45
800.92	218.45
801.24	218.41
801.56	218.39
801.89	218.36
802.21	218.33
802.53	218.25
802.85	218.26
803.17	218.30
803.49	218.22
803.81	218.21
804.13	218.16
804.45	218.09
804.77	218.10
805.09	218.03
805.41	217.98
805.73	217.94
806.05	217.87
806.37	217.85
806.69	217.83
807.01	217.80
807.33	217.77
807.65	217.66
807.97	217.69
808.28	217.63
808.60	217.57
808.92	217.52
809.24	217.62
809.56	217.56
809.88	217.43
810.20	217.41
810.52	217.40
810.84	217.37
811.16	217.36
811.48	217.34
811.80	217.40
812.12	217.38
812.43	217.41
812.75	217.40
813.07	217.37
813.39	217.35
813.71	217.31
814.03	217.28
814.35	217.28
814.67	217.21
814.98	217.17
815.30	217.16
815.62	217.14
815.94	216.99
816.26	216.98
816.58	216.96
816.89	216.99
817.21	216.91
817.53	216.93
817.85	216.92
818.17	216.87
818.48	216.81
818.80	216.84
819.12	216.75
819.44	216.73
819.76	216.71
820.07	216.70
820.39	216.66
820.71	216.69
821.03	216.67
821.34	216.63
821.66	216.63
821.98	216.63
822.30	216.60
822.61	216.72
822.93	216.71
823.25	216.69
823.57	216.64
823.88	216.68
824.20	216.61
824.52	216.62
824.83	216.60
825.15	216.58
825.47	216.54
825.79	216.58
826.10	216.50
826.42	216.47
826.74	216.44
827.05	216.45
827.37	216.45
827.69	216.45
828.00	216.46
828.32	216.47
828.64	216.44
828.95	216.55
829.27	216.45
829.58	216.41
829.90	216.46
830.22	216.44
830.53	216.41
830.85	216.39
831.17	216.36
831.48	216.35
831.80	216.30
832.11	216.25
832.43	216.19
832.75	216.24
833.06	216.35
833.38	216.33
833.69	216.27
834.01	216.28
834.32	216.24
834.64	216.20
834.96	216.19
835.27	216.18
835.59	216.10
835.90	216.04
836.22	216.02
836.53	215.93
836.85	215.92
837.16	216.09
837.48	216.11
837.79	216.16
838.11	216.17
838.42	216.18
838.74	216.23
839.05	216.24
839.37	216.20
839.68	216.06
840.00	216.03
840.31	216.08
840.63	216.04
840.94	215.99
841.26	215.96
841.57	215.94
841.88	215.95
842.20	215.89
842.51	215.89
842.83	215.88
843.14	216.06
843.46	216.05
843.77	215.94
844.08	215.92
844.40	215.86
844.71	215.83
845.03	215.78
845.34	215.76
845.65	215.74
845.97	215.76
846.28	215.79
846.60	215.78
846.91	215.73
847.22	215.71
847.54	215.80
847.85	215.83
848.16	215.81
848.48	215.74
848.79	215.82
849.10	215.84
849.42	215.88
849.73	215.69
850.04	215.66
850.36	215.62
850.67	215.64
850.98	215.64
851.30	215.63
851.61	215.66
851.92	215.64
852.23	215.67
852.55	215.67
852.86	215.67
853.17	215.72
853.49	215.78
853.80	215.82
854.11	215.81
854.42	215.84
854.74	215.81
855.05	215.87
855.36	215.74
855.67	215.77
855.99	215.74
856.30	216.00
856.61	216.00
856.92	215.97
857.23	215.93
857.55	215.90
857.86	215.90
858.17	215.91
858.48	215.87
858.79	215.84
859.11	215.85
859.42	215.83
859.73	215.78
860.04	215.75
860.35	215.68
860.66	215.61
860.98	215.58
861.29	215.60
861.60	215.54
861.91	215.64
862.22	215.59
862.53	215.55
862.84	215.29
863.16	215.35
863.47	215.33
863.78	215.36
864.09	215.37
864.40	215.39
864.71	215.39
865.02	215.43
865.33	215.41
865.64	215.39
865.95	215.39
866.27	215.55
866.58	215.50
866.89	215.50
867.20	215.52
867.51	215.48
867.82	215.46
868.13	215.52
868.44	215.48
868.75	215.51
869.06	215.51
869.37	215.53
869.68	215.45
869.99	215.47
870.30	215.47
870.61	215.48
870.92	215.46
871.23	215.44
871.54	215.44
871.85	215.47
872.16	215.49
872.47	215.48
872.78	215.31
873.09	215.36
873.40	215.38
873.71	215.38
874.02	215.38
874.33	215.37
874.64	215.30
874.95	215.34
875.26	215.28
875.56	215.29
875.87	215.29
876.18	215.28
876.49	215.48
876.80	215.47
877.11	215.44
877.42	215.44
877.73	215.45
878.04	215.46
878.35	215.44
878.66	215.43
878.96	215.43
879.27	215.42
879.58	215.39
879.89	215.35
880.20	215.44
880.51	215.48
880.82	215.51
881.12	215.54
881.43	215.48
881.74	215.47
882.05	215.45
882.36	215.44
882.67	215.46
882.97	215.23
883.28	215.20
883.59	215.20
883.90	215.22
884.21	215.24
884.51	215.20
884.82	215.21
885.13	215.18
885.44	215.16
885.74	215.18
886.05	215.18
886.36	215.19
886.67	215.07
886.98	215.15
887.28	215.13
887.59	215.10
887.90	215.10
888.20	215.07
888.51	215.13
888.82	215.09
889.13	215.10
889.43	215.23
889.74	215.19
890.05	215.16
890.35	215.14
890.66	215.12
890.97	215.08
891.28	215.05
891.58	215.10
891.89	215.12
892.20	215.07
892.50	215.05
892.81	215.06
893.12	215.06
893.42	214.97
893.73	214.99
894.04	215.00
894.34	215.01
894.65	215.04
894.95	215.00
895.26	215.05
895.57	215.14
895.87	215.00
896.18	215.05
896.48	215.07
896.79	215.05
897.10	215.07
897.40	215.12
897.71	215.16
898.01	215.13
898.32	215.13
898.63	215.13
898.93	215.15
899.24	215.13
899.54	215.15
899.85	215.14
900.15	215.14
900.46	215.14
900.76	215.18
901.07	215.16
901.38	215.16
901.68	215.18
901.99	215.08
902.29	215.14
902.60	215.13
902.90	215.14
903.21	215.13
903.51	215.11
903.82	215.14
904.12	215.12
904.43	215.10
904.73	215.11
905.03	215.14
905.34	215.34
905.64	215.35
905.95	215.34
906.25	215.35
906.56	215.34
906.86	215.32
907.17	215.33
907.47	215.36
907.77	215.32
908.08	215.27
908.38	215.28
908.69	215.26
908.99	215.31
909.30	215.32
909.60	215.33
909.90	215.33
910.21	215.25
910.51	215.22
910.81	215.22
911.12	215.23
911.42	215.24
911.73	214.98
912.03	214.98
912.33	215.05
912.64	215.03
912.94	215.02
913.24	214.98
913.55	214.91
913.85	214.90
914.15	214.96
914.46	214.98
914.76	214.95
915.06	214.95
915.37	214.89
915.67	214.87
915.97	214.87
916.27	214.85
916.58	214.87
916.88	214.85
917.18	214.85
917.49	214.98
917.79	214.94
918.09	214.99
918.39	215.05
918.70	214.99
919.00	214.99
919.30	215.08
919.60	215.09
919.91	215.09
920.21	215.09
920.51	215.06
920.81	215.04
921.12	215.08
921.42	215.06
921.72	215.08
922.02	215.07
922.32	215.12
922.63	215.12
922.93	215.21
923.23	215.27
923.53	215.26
923.83	215.12
924.13	215.14
924.44	215.14
924.74	215.17
925.04	215.24
925.34	215.23
925.64	215.15
925.94	215.15
926.24	215.24
926.55	215.24
926.85	215.25
927.15	215.25
927.45	215.23
927.75	215.22
928.05	215.21
928.35	215.19
928.65	215.23
928.95	215.22
929.26	215.13
929.56	215.15
929.86	215.16
930.16	215.14
930.46	215.12
930.76	215.14
931.06	215.04
931.36	214.97
931.66	214.98
931.96	215.03
932.26	215.03
932.56	214.96
932.86	214.97
933.16	214.98
933.46	214.99
933.76	214.95
934.06	215.01
934.36	215.09
934.66	215.12
934.96	215.06
935.26	215.08
935.56	215.10
935.86	215.05
936.16	215.01
936.46	214.99
936.76	214.98
937.06	214.93
937.36	214.95
937.66	214.97
937.96	214.98
938.26	214.94
938.56	214.93
938.86	214.94
939.16	214.97
939.46	214.99
939.76	214.97
940.06	214.98
940.35	214.94
940.65	214.84
940.95	214.87
941.25	214.84
941.55	214.80
941.85	214.80
942.15	214.80
942.45	214.88
942.75	214.90
943.04	214.93
943.34	214.97
943.64	214.95
943.94	214.90
944.24	214.88
944.54	214.89
944.84	214.88
945.13	214.85
945.43	214.80
945.73	214.80
946.03	214.77
946.33	214.75
946.62	214.75
946.92	214.73
947.22	214.69
947.52	214.69
947.82	214.73
948.11	214.69
948.41	214.69
948.71	214.62
949.01	214.58
949.31	214.56
949.60	214.55
949.90	214.62
950.20	214.64
950.50	214.64
950.79	214.60
951.09	214.63
951.39	214.61
951.69	214.59
951.98	214.58
952.28	214.61
952.58	214.60
952.87	214.58
953.17	214.63
953.47	214.61
953.76	214.59
954.06	214.57
954.36	214.57
954.66	214.56
954.95	214.64
955.25	214.70
955.55	214.70
955.84	214.67
956.14	214.65
956.44	214.68
956.73	214.64
957.03	214.66
957.32	214.63
957.62	214.64
957.92	214.70
958.21	214.69
958.51	214.95
958.81	214.96
959.10	214.97
959.40	215.01
959.69	215.04
959.99	215.11
960.29	215.13
960.58	215.13
960.88	215.21
961.17	215.15
961.47	215.17
961.76	215.16
962.06	215.17
962.36	215.15
962.65	215.16
962.95	215.20
963.24	215.20
963.54	215.24
963.83	215.25
964.13	215.23
964.42	215.20
964.72	214.98
965.01	215.00
965.31	214.99
965.60	214.91
965.90	215.04
966.19	214.95
966.49	214.96
966.78	214.93
967.08	214.89
967.37	214.87
967.67	214.82
967.96	214.85
968.26	214.86
968.55	214.88
968.85	214.86
969.14	214.84
969.43	214.81
969.73	214.79
970.02	214.78
970.32	214.74
970.61	214.75
970.91	214.72
971.20	214.69
971.49	214.67
971.79	214.72
972.08	214.56
972.38	214.60
972.67	214.56
972.96	214.64
973.26	214.61
973.55	214.71
973.85	214.73
974.14	214.70
974.43	214.71
974.73	214.65
975.02	214.64
975.31	214.65
975.61	214.70
975.90	214.71
976.19	214.71
976.49	214.73
976.78	214.72
977.07	214.69
977.37	214.71
977.66	214.72
977.95	214.68
978.24	214.67
978.54	214.71
978.83	214.69
979.12	214.65
979.42	214.65
979.71	214.61
980.00	214.58
980.29	214.58
980.59	214.53
980.88	214.59
981.17	214.58
981.46	214.58
981.76	214.54
982.05	214.58
982.34	214.59
982.63	214.58
982.93	214.58
983.22	214.65
983.51	214.66
983.80	214.69
984.09	214.69
984.39	214.72
984.68	214.70
984.97	214.72
985.26	214.69
985.55	214.71
985.85	214.66
986.14	214.70
986.43	214.74
986.72	214.71
987.01	214.66
987.30	214.67
987.59	214.63
987.89	214.64
988.18	214.54
988.47	214.51
988.76	214.50
989.05	214.48
989.34	214.45
989.63	214.47
989.92	214.45
990.22	214.45
990.51	214.43
990.80	214.41
991.09	214.43
991.38	214.45
991.67	214.43
991.96	214.42
992.25	214.39
992.54	214.33
992.83	214.34
993.12	214.36
993.41	214.38
993.70	214.49
993.99	214.50
994.28	214.55
994.58	214.61
994.87	214.60
995.16	214.63
995.45	214.61
995.74	214.55
996.03	214.58
996.32	214.60
996.61	214.66
996.90	214.64
997.19	214.63
997.48	214.66
997.77	214.63
998.06	214.66
998.34	214.70
998.63	214.75
998.92	214.81
999.21	214.84
999.50	214.83
999.79	214.76
1000.08	214.77
1000.37	214.81
1000.66	214.75
1000.95	214.78
1001.24	214.79
1001.53	214.82
1001.82	214.81
1002.11	214.79
1002.40	214.83
1002.68	214.87
1002.97	215.00
1003.26	214.99
1003.55	214.93
1003.84	214.98
1004.13	215.05
1004.42	215.02
1004.71	214.99
1004.99	214.95
1005.28	214.99
1005.57	214.97
1005.86	214.94
1006.15	214.94
1006.44	214.90
1006.72	214.94
1007.01	214.93
1007.30	214.94
1007.59	214.91
1007.88	214.92
1008.17	214.92
1008.45	214.86
1008.74	214.76
1009.03	214.69
1009.32	214.67
1009.60	214.67
1009.89	214.61
1010.18	214.54
1010.47	214.48
1010.76	214.48
1011.04	214.46
1011.33	214.48
1011.62	214.50
1011.91	214.55
1012.19	214.55
1012.48	214.54
1012.77	214.51
1013.05	214.62
1013.34	214.61
1013.63	214.62
1013.92	214.62
1014.20	214.59
1014.49	214.60
1014.78	214.64
1015.06	214.58
1015.35	214.62
1015.64	214.66
1015.92	214.70
1016.21	214.69
1016.50	214.71
1016.78	214.78
1017.07	214.83
1017.36	214.76
1017.64	214.74
1017.93	214.72
1018.22	214.69
1018.50	214.69
1018.79	214.68
1019.08	214.57
1019.36	214.58
1019.65	214.56
1019.93	214.63
1020.22	214.67
1020.51	214.79
1020.79	214.75
1021.08	214.25
1021.36	214.23
1021.65	214.18
1021.94	214.68
1022.22	214.53
1022.51	214.32
1022.79	215.58
1023.08	215.07
1023.36	217.17
1023.65	214.09
>>>>>End Processed Spectral Data<<<<<
