SpectraSuite Data File
++++++++++++++++++++++++++++++++++++
Date: Tue Jan 29 16:26:27 EST 2013
User: group
Dark Spectrum Present: No
Reference Spectrum Present: No
Number of Sampled Component Spectra: 1
Spectrometers: USB2E7196
Integration Time (usec): 65000 (USB2E7196)
Spectra Averaged: 100 (USB2E7196)
Boxcar Smoothing: 10 (USB2E7196)
Correct for Electrical Dark: No (USB2E7196)
Strobe/Lamp Enabled: No (USB2E7196)
Correct for Detector Non-linearity: No (USB2E7196)
Correct for Stray Light: No (USB2E7196)
Number of Pixels in Processed Spectrum: 2048
>>>>>Begin Processed Spectral Data<<<<<
339.09	0.00
339.48	202.49
339.86	203.75
340.24	205.29
340.63	205.67
341.01	211.42
341.39	208.84
341.78	210.59
342.16	212.32
342.54	212.45
342.93	201.43
343.31	211.61
343.69	212.11
344.07	212.56
344.46	213.00
344.84	213.43
345.22	213.57
345.60	213.90
345.99	214.09
346.37	214.20
346.75	214.33
347.13	214.41
347.52	214.46
347.90	214.60
348.28	214.64
348.66	214.68
349.05	214.66
349.43	214.75
349.81	214.82
350.19	214.85
350.57	214.91
350.96	214.99
351.34	215.09
351.72	215.19
352.10	215.31
352.48	215.37
352.87	215.41
353.25	215.47
353.63	215.48
354.01	215.52
354.39	215.59
354.77	215.61
355.15	215.74
355.54	215.82
355.92	215.80
356.30	215.85
356.68	216.06
357.06	216.11
357.44	216.11
357.82	216.16
358.20	216.27
358.58	216.35
358.97	216.43
359.35	216.54
359.73	216.63
360.11	216.65
360.49	216.73
360.87	216.79
361.25	216.85
361.63	216.97
362.01	217.05
362.39	217.08
362.77	217.15
363.15	217.15
363.53	217.19
363.91	217.23
364.29	217.27
364.67	217.09
365.05	217.14
365.43	217.21
365.81	217.26
366.19	217.32
366.57	217.40
366.95	217.40
367.33	217.32
367.71	217.34
368.09	217.39
368.47	217.36
368.85	217.36
369.23	217.39
369.61	217.29
369.99	217.34
370.37	217.36
370.75	217.46
371.13	217.40
371.51	217.34
371.89	217.35
372.27	217.34
372.65	217.34
373.03	217.34
373.41	217.28
373.78	217.23
374.16	217.14
374.54	217.03
374.92	216.99
375.30	217.00
375.68	216.92
376.06	216.92
376.44	216.86
376.82	216.82
377.19	216.79
377.57	216.78
377.95	216.69
378.33	216.63
378.71	216.44
379.09	216.45
379.47	216.44
379.84	216.35
380.22	216.29
380.60	216.21
380.98	216.15
381.36	216.08
381.73	215.99
382.11	215.98
382.49	215.95
382.87	215.87
383.25	215.83
383.62	216.04
384.00	215.95
384.38	215.94
384.76	215.97
385.13	215.99
385.51	215.95
385.89	215.88
386.27	215.87
386.64	215.86
387.02	215.81
387.40	215.76
387.78	215.75
388.15	215.77
388.53	215.74
388.91	215.71
389.29	215.67
389.66	215.73
390.04	215.67
390.42	215.68
390.79	215.70
391.17	215.64
391.55	215.37
391.92	215.37
392.30	215.37
392.68	215.31
393.05	215.30
393.43	215.30
393.81	215.33
394.18	215.30
394.56	215.34
394.94	215.39
395.31	215.37
395.69	215.43
396.06	215.43
396.44	215.46
396.82	215.48
397.19	215.61
397.57	215.57
397.95	215.65
398.32	215.63
398.70	215.70
399.07	215.78
399.45	215.84
399.82	215.85
400.20	215.90
400.58	215.96
400.95	215.94
401.33	216.07
401.70	216.28
402.08	216.39
402.45	216.47
402.83	216.60
403.20	216.72
403.58	216.82
403.95	217.01
404.33	217.14
404.71	217.26
405.08	217.55
405.46	217.75
405.83	217.93
406.21	218.15
406.58	218.35
406.96	218.60
407.33	218.86
407.70	219.18
408.08	219.63
408.45	219.98
408.83	220.35
409.20	220.67
409.58	220.92
409.95	221.38
410.33	221.84
410.70	222.27
411.08	222.82
411.45	223.39
411.82	223.95
412.20	224.67
412.57	225.52
412.95	226.04
413.32	226.86
413.69	227.69
414.07	228.58
414.44	229.58
414.82	230.58
415.19	231.80
415.56	232.98
415.94	234.16
416.31	235.55
416.68	236.94
417.06	238.55
417.43	240.08
417.81	241.82
418.18	243.64
418.55	245.57
418.93	247.55
419.30	249.63
419.67	251.82
420.04	254.08
420.42	256.47
420.79	259.35
421.16	262.09
421.54	264.97
421.91	268.00
422.28	271.03
422.66	274.33
423.03	277.56
423.40	280.92
423.77	284.48
424.15	288.17
424.52	291.96
424.89	296.09
425.26	300.16
425.64	304.04
426.01	308.29
426.38	312.75
426.75	317.32
427.13	322.03
427.50	327.00
427.87	332.17
428.24	337.27
428.61	342.18
428.99	347.70
429.36	353.69
429.73	359.54
430.10	365.43
430.47	371.44
430.85	377.74
431.22	384.45
431.59	391.53
431.96	398.33
432.33	405.82
432.70	413.03
433.08	421.53
433.45	429.54
433.82	437.56
434.19	446.45
434.56	455.10
434.93	463.46
435.30	471.71
435.68	480.81
436.05	489.84
436.42	498.68
436.79	506.79
437.16	515.58
437.53	524.83
437.90	533.89
438.27	542.83
438.64	552.00
439.01	560.47
439.38	568.05
439.75	575.34
440.13	583.70
440.50	591.68
440.87	598.12
441.24	604.70
441.61	611.96
441.98	617.26
442.35	623.65
442.72	629.92
443.09	635.96
443.46	639.68
443.83	642.21
444.20	644.45
444.57	647.59
444.94	649.03
445.31	650.43
445.68	651.80
446.05	652.43
446.42	651.56
446.79	650.62
447.16	649.52
447.53	648.68
447.90	645.40
448.27	642.04
448.64	637.41
449.01	634.12
449.37	628.22
449.74	622.56
450.11	615.68
450.48	608.28
450.85	600.86
451.22	594.42
451.59	588.28
451.96	582.42
452.33	574.57
452.70	567.45
453.07	559.02
453.43	550.52
453.80	542.27
454.17	534.34
454.54	526.83
454.91	518.67
455.28	510.80
455.65	503.41
456.02	495.96
456.38	489.61
456.75	481.77
457.12	475.27
457.49	468.84
457.86	462.56
458.23	457.23
458.59	451.33
458.96	445.37
459.33	440.10
459.70	434.79
460.07	430.54
460.43	425.71
460.80	421.13
461.17	417.11
461.54	412.94
461.91	408.98
462.27	404.89
462.64	401.46
463.01	397.69
463.38	394.06
463.74	390.38
464.11	387.16
464.48	384.37
464.85	381.24
465.21	378.76
465.58	376.18
465.95	373.05
466.32	370.42
466.68	367.81
467.05	365.20
467.42	362.66
467.78	360.00
468.15	357.43
468.52	355.53
468.88	353.09
469.25	350.86
469.62	349.05
469.98	347.10
470.35	345.35
470.72	343.63
471.08	341.82
471.45	340.37
471.82	338.84
472.18	337.19
472.55	336.03
472.92	334.66
473.28	333.46
473.65	332.30
474.02	331.14
474.38	330.26
474.75	329.52
475.11	328.73
475.48	328.20
475.85	327.70
476.21	327.21
476.58	326.84
476.94	326.62
477.31	326.31
477.67	326.07
478.04	325.89
478.41	325.87
478.77	326.02
479.14	325.91
479.50	326.06
479.87	326.34
480.23	326.64
480.60	326.88
480.96	327.15
481.33	327.76
481.69	328.37
482.06	328.85
482.42	329.32
482.79	329.93
483.15	330.69
483.52	331.66
483.88	332.55
484.25	333.45
484.61	334.47
484.98	335.53
485.34	336.89
485.71	338.31
486.07	339.82
486.44	341.14
486.80	342.81
487.17	344.46
487.53	346.30
487.90	348.17
488.26	350.21
488.62	352.38
488.99	354.42
489.35	356.61
489.72	358.99
490.08	361.53
490.44	364.07
490.81	366.77
491.17	369.47
491.54	372.45
491.90	375.52
492.26	378.79
492.63	382.19
492.99	385.63
493.36	389.27
493.72	393.10
494.08	397.14
494.45	401.35
494.81	405.71
495.17	410.20
495.54	414.94
495.90	419.74
496.26	424.74
496.63	429.98
496.99	435.38
497.35	441.02
497.72	446.89
498.08	452.87
498.44	459.05
498.80	465.51
499.17	472.00
499.53	478.73
499.89	485.67
500.26	492.71
500.62	499.80
500.98	507.25
501.34	514.76
501.71	522.52
502.07	530.43
502.43	538.47
502.79	546.59
503.16	555.04
503.52	563.69
503.88	572.38
504.24	581.39
504.60	590.50
504.97	599.78
505.33	609.06
505.69	618.94
506.05	628.89
506.41	638.88
506.78	649.05
507.14	659.38
507.50	669.79
507.86	680.53
508.22	691.39
508.59	702.11
508.95	713.21
509.31	724.64
509.67	736.18
510.03	747.73
510.39	759.65
510.75	771.58
511.12	783.64
511.48	795.89
511.84	808.21
512.20	820.61
512.56	833.36
512.92	846.25
513.28	859.04
513.64	871.85
514.00	884.71
514.37	897.90
514.73	911.14
515.09	924.27
515.45	937.33
515.81	950.48
516.17	963.99
516.53	977.43
516.89	990.63
517.25	1003.96
517.61	1017.50
517.97	1030.96
518.33	1044.16
518.69	1057.80
519.05	1071.71
519.41	1085.58
519.77	1099.69
520.13	1113.07
520.49	1126.39
520.85	1139.88
521.21	1153.34
521.57	1167.24
521.93	1180.30
522.29	1194.22
522.65	1207.97
523.01	1221.67
523.37	1235.16
523.73	1248.59
524.09	1261.78
524.45	1275.36
524.81	1288.87
525.17	1302.42
525.53	1315.72
525.89	1329.28
526.25	1342.57
526.61	1355.47
526.97	1368.67
527.33	1381.64
527.68	1395.29
528.04	1408.90
528.40	1422.09
528.76	1435.59
529.12	1448.57
529.48	1462.09
529.84	1474.42
530.20	1487.34
530.56	1500.08
530.91	1513.34
531.27	1526.25
531.63	1539.15
531.99	1551.89
532.35	1564.28
532.71	1576.79
533.07	1589.78
533.42	1602.07
533.78	1614.32
534.14	1626.53
534.50	1637.85
534.86	1649.59
535.21	1660.58
535.57	1672.20
535.93	1683.68
536.29	1694.78
536.65	1706.31
537.00	1717.21
537.36	1728.66
537.72	1739.76
538.08	1751.23
538.44	1762.30
538.79	1773.49
539.15	1784.61
539.51	1795.52
539.87	1806.86
540.22	1817.76
540.58	1828.86
540.94	1839.93
541.29	1850.21
541.65	1860.05
542.01	1870.77
542.37	1880.94
542.72	1891.17
543.08	1901.08
543.44	1911.53
543.79	1920.97
544.15	1930.48
544.51	1940.55
544.87	1950.55
545.22	1960.01
545.58	1968.93
545.94	1977.94
546.29	1986.40
546.65	1994.61
547.01	2002.92
547.36	2010.67
547.72	2018.56
548.07	2026.06
548.43	2033.79
548.79	2041.84
549.14	2050.01
549.50	2058.40
549.86	2066.28
550.21	2073.77
550.57	2081.56
550.92	2088.49
551.28	2096.03
551.64	2103.36
551.99	2111.08
552.35	2118.33
552.70	2125.12
553.06	2131.87
553.41	2138.17
553.77	2144.92
554.13	2151.52
554.48	2158.59
554.84	2165.71
555.19	2172.36
555.55	2178.91
555.90	2185.25
556.26	2192.01
556.61	2198.13
556.97	2202.95
557.32	2208.81
557.68	2215.21
558.03	2221.04
558.39	2226.45
558.74	2232.49
559.10	2238.07
559.45	2243.66
559.81	2249.23
560.16	2254.90
560.52	2260.90
560.87	2267.27
561.23	2273.27
561.58	2279.93
561.94	2285.20
562.29	2290.04
562.64	2296.08
563.00	2301.74
563.35	2307.32
563.71	2313.13
564.06	2318.85
564.42	2325.01
564.77	2330.06
565.12	2335.49
565.48	2340.65
565.83	2346.16
566.19	2351.68
566.54	2357.19
566.89	2361.88
567.25	2366.47
567.60	2372.12
567.96	2377.36
568.31	2382.10
568.66	2386.45
569.02	2390.42
569.37	2394.24
569.72	2398.84
570.08	2402.51
570.43	2405.76
570.78	2409.00
571.14	2411.61
571.49	2414.88
571.84	2418.47
572.20	2421.47
572.55	2424.45
572.90	2426.72
573.26	2429.57
573.61	2432.31
573.96	2434.44
574.31	2436.42
574.67	2438.29
575.02	2439.15
575.37	2440.50
575.72	2441.07
576.08	2442.35
576.43	2442.48
576.78	2443.06
577.13	2444.40
577.49	2445.54
577.84	2446.67
578.19	2447.95
578.54	2448.60
578.90	2449.37
579.25	2449.36
579.60	2449.37
579.95	2448.60
580.30	2448.76
580.66	2448.11
581.01	2446.18
581.36	2443.91
581.71	2442.53
582.06	2441.47
582.42	2440.58
582.77	2438.29
583.12	2436.84
583.47	2435.79
583.82	2435.21
584.17	2433.95
584.53	2431.90
584.88	2429.83
585.23	2427.89
585.58	2425.71
585.93	2423.64
586.28	2421.42
586.63	2418.84
586.98	2416.66
587.34	2414.79
587.69	2412.32
588.04	2410.30
588.39	2408.96
588.74	2406.48
589.09	2403.61
589.44	2400.44
589.79	2397.97
590.14	2396.07
590.49	2393.17
590.84	2389.10
591.19	2386.07
591.54	2382.83
591.89	2378.81
592.25	2375.43
592.60	2371.28
592.95	2366.88
593.30	2362.71
593.65	2358.29
594.00	2353.84
594.35	2350.80
594.70	2346.12
595.05	2341.48
595.40	2336.02
595.75	2330.21
596.10	2326.59
596.45	2321.99
596.80	2317.34
597.15	2312.17
597.50	2306.28
597.85	2301.23
598.19	2296.01
598.54	2290.13
598.89	2284.75
599.24	2280.29
599.59	2274.15
599.94	2268.28
600.29	2262.47
600.64	2256.50
600.99	2249.53
601.34	2244.03
601.69	2236.95
602.04	2230.47
602.39	2223.79
602.74	2217.63
603.08	2212.09
603.43	2205.48
603.78	2198.52
604.13	2191.52
604.48	2184.05
604.83	2178.01
605.18	2171.79
605.53	2164.84
605.87	2157.80
606.22	2151.07
606.57	2142.95
606.92	2134.94
607.27	2127.85
607.62	2121.33
607.96	2114.38
608.31	2108.15
608.66	2100.22
609.01	2092.54
609.36	2085.31
609.70	2077.59
610.05	2069.72
610.40	2061.25
610.75	2052.90
611.10	2045.26
611.44	2036.25
611.79	2027.54
612.14	2017.40
612.49	2006.68
612.83	1997.30
613.18	1988.00
613.53	1978.59
613.88	1968.94
614.22	1960.20
614.57	1950.31
614.92	1939.37
615.27	1928.97
615.61	1918.67
615.96	1908.98
616.31	1899.27
616.65	1889.80
617.00	1880.10
617.35	1870.33
617.70	1860.54
618.04	1850.35
618.39	1840.00
618.74	1830.24
619.08	1820.56
619.43	1811.67
619.78	1803.35
620.12	1794.67
620.47	1784.93
620.82	1774.36
621.16	1764.58
621.51	1754.66
621.85	1744.75
622.20	1734.43
622.55	1723.77
622.89	1713.72
623.24	1703.79
623.59	1694.06
623.93	1683.88
624.28	1673.97
624.62	1663.83
624.97	1653.51
625.32	1643.57
625.66	1634.62
626.01	1625.77
626.35	1616.26
626.70	1606.14
627.04	1595.97
627.39	1585.78
627.73	1576.35
628.08	1567.57
628.43	1557.93
628.77	1548.59
629.12	1539.60
629.46	1531.67
629.81	1523.21
630.15	1513.59
630.50	1503.83
630.84	1493.22
631.19	1483.16
631.53	1473.79
631.88	1463.50
632.22	1453.34
632.57	1443.92
632.91	1433.64
633.26	1423.75
633.60	1414.12
633.95	1404.86
634.29	1395.32
634.64	1385.84
634.98	1375.80
635.32	1366.27
635.67	1357.73
636.01	1348.40
636.36	1338.55
636.70	1328.87
637.05	1319.37
637.39	1310.41
637.73	1301.67
638.08	1293.88
638.42	1285.69
638.77	1276.79
639.11	1268.48
639.45	1260.66
639.80	1252.03
640.14	1243.24
640.49	1234.21
640.83	1225.33
641.17	1217.03
641.52	1208.74
641.86	1200.17
642.20	1192.29
642.55	1183.62
642.89	1174.59
643.23	1165.88
643.58	1157.72
643.92	1148.63
644.26	1139.94
644.61	1131.27
644.95	1122.37
645.29	1113.14
645.64	1103.79
645.98	1095.10
646.32	1087.09
646.66	1078.41
647.01	1070.04
647.35	1061.85
647.69	1053.43
648.04	1045.06
648.38	1036.10
648.72	1027.27
649.06	1018.64
649.41	1010.32
649.75	1002.22
650.09	994.22
650.43	986.02
650.78	977.60
651.12	969.83
651.46	962.31
651.80	955.03
652.14	947.63
652.49	939.95
652.83	932.55
653.17	924.85
653.51	917.11
653.85	909.79
654.20	902.37
654.54	894.74
654.88	887.45
655.22	880.04
655.56	872.87
655.90	865.97
656.25	859.20
656.59	852.24
656.93	845.18
657.27	837.95
657.61	830.83
657.95	824.68
658.29	818.65
658.64	812.49
658.98	805.99
659.32	799.35
659.66	793.13
660.00	786.70
660.34	780.52
660.68	774.32
661.02	767.93
661.36	761.98
661.70	756.14
662.05	750.46
662.39	744.94
662.73	739.49
663.07	734.00
663.41	728.37
663.75	722.62
664.09	716.85
664.43	711.34
664.77	706.04
665.11	700.08
665.45	694.11
665.79	688.17
666.13	682.42
666.47	676.90
666.81	671.41
667.15	666.00
667.49	660.76
667.83	655.54
668.17	650.20
668.51	644.98
668.85	639.92
669.19	634.93
669.53	629.93
669.87	624.75
670.21	619.92
670.55	615.13
670.89	610.54
671.23	606.22
671.57	601.79
671.91	597.43
672.25	593.29
672.58	589.12
672.92	585.01
673.26	581.07
673.60	577.10
673.94	573.21
674.28	569.55
674.62	565.77
674.96	561.94
675.30	558.41
675.64	554.73
675.97	551.09
676.31	547.45
676.65	543.73
676.99	540.25
677.33	536.36
677.67	532.65
678.01	528.81
678.34	525.10
678.68	521.52
679.02	517.86
679.36	514.11
679.70	510.42
680.04	506.80
680.37	503.21
680.71	499.87
681.05	496.65
681.39	493.32
681.73	490.04
682.06	486.96
682.40	483.82
682.74	480.56
683.08	477.32
683.42	474.06
683.75	471.05
684.09	467.99
684.43	465.19
684.77	462.25
685.10	459.30
685.44	456.35
685.78	453.39
686.12	450.59
686.45	447.83
686.79	445.08
687.13	442.51
687.46	439.90
687.80	437.19
688.14	434.26
688.48	431.55
688.81	428.81
689.15	426.14
689.49	423.47
689.82	420.93
690.16	418.31
690.50	415.84
690.83	413.27
691.17	410.68
691.51	408.20
691.84	405.86
692.18	403.65
692.52	401.41
692.85	399.28
693.19	397.12
693.52	394.93
693.86	392.69
694.20	390.45
694.53	388.26
694.87	386.01
695.21	383.90
695.54	381.74
695.88	379.59
696.21	377.43
696.55	375.30
696.88	373.21
697.22	371.19
697.56	369.24
697.89	367.32
698.23	365.55
698.56	363.71
698.90	361.95
699.23	359.99
699.57	358.09
699.90	356.15
700.24	354.28
700.58	352.44
700.91	350.73
701.25	349.15
701.58	347.52
701.92	345.91
702.25	344.28
702.59	342.65
702.92	341.10
703.26	339.51
703.59	338.00
703.93	336.73
704.26	335.28
704.60	333.77
704.93	332.29
705.26	330.78
705.60	329.31
705.93	327.77
706.27	326.43
706.60	325.19
706.94	323.96
707.27	322.53
707.61	321.17
707.94	319.83
708.27	318.30
708.61	316.82
708.94	315.46
709.28	314.18
709.61	312.91
709.94	311.69
710.28	310.47
710.61	309.28
710.95	307.81
711.28	306.71
711.61	305.52
711.95	304.38
712.28	303.18
712.61	301.95
712.95	300.92
713.28	299.87
713.61	298.67
713.95	297.53
714.28	296.54
714.61	295.48
714.95	294.46
715.28	293.43
715.61	292.39
715.95	291.39
716.28	290.37
716.61	289.40
716.95	288.38
717.28	287.40
717.61	286.42
717.94	285.51
718.28	284.49
718.61	283.60
718.94	282.69
719.27	281.82
719.61	280.98
719.94	280.05
720.27	279.08
720.60	278.17
720.94	277.34
721.27	276.54
721.60	275.87
721.93	275.16
722.27	274.53
722.60	273.86
722.93	273.14
723.26	272.49
723.59	271.76
723.93	271.09
724.26	270.44
724.59	269.80
724.92	269.21
725.25	268.67
725.59	268.07
725.92	267.53
726.25	266.96
726.58	266.41
726.91	265.81
727.24	265.28
727.57	264.76
727.91	264.14
728.24	263.62
728.57	263.02
728.90	262.48
729.23	261.85
729.56	261.41
729.89	260.84
730.22	260.28
730.55	259.74
730.89	259.20
731.22	258.66
731.55	258.12
731.88	257.58
732.21	257.00
732.54	256.45
732.87	255.91
733.20	255.43
733.53	254.94
733.86	254.47
734.19	253.96
734.52	253.54
734.85	253.25
735.18	252.70
735.51	252.33
735.84	251.87
736.17	251.46
736.50	250.90
736.83	250.74
737.16	250.35
737.49	249.97
737.82	249.55
738.15	249.17
738.48	248.81
738.81	248.43
739.14	248.03
739.47	247.66
739.80	247.29
740.13	246.92
740.46	246.51
740.79	246.09
741.12	245.73
741.45	245.33
741.78	244.88
742.11	244.63
742.44	244.27
742.77	243.94
743.10	243.57
743.43	243.20
743.75	242.65
744.08	242.57
744.41	242.20
744.74	241.91
745.07	241.55
745.40	241.22
745.73	240.93
746.06	240.58
746.39	240.32
746.71	239.97
747.04	239.60
747.37	239.27
747.70	238.97
748.03	238.64
748.36	238.37
748.68	238.07
749.01	237.71
749.34	237.36
749.67	237.06
750.00	236.83
750.33	236.71
750.65	236.44
750.98	235.89
751.31	235.63
751.64	235.38
751.97	235.24
752.29	234.97
752.62	234.65
752.95	234.45
753.28	234.16
753.60	233.93
753.93	233.73
754.26	233.50
754.59	233.27
754.91	233.05
755.24	232.81
755.57	232.53
755.90	232.30
756.22	232.08
756.55	231.82
756.88	231.54
757.20	231.20
757.53	230.97
757.86	230.76
758.19	230.57
758.51	230.36
758.84	230.05
759.17	229.82
759.49	229.68
759.82	229.55
760.15	229.38
760.47	229.16
760.80	228.93
761.13	228.78
761.45	228.58
761.78	228.38
762.11	228.19
762.43	228.05
762.76	227.84
763.08	227.70
763.41	227.56
763.74	227.42
764.06	227.25
764.39	227.10
764.71	226.94
765.04	226.76
765.37	226.59
765.69	226.46
766.02	226.30
766.34	226.11
766.67	225.89
767.00	225.79
767.32	225.74
767.65	225.73
767.97	225.60
768.30	225.51
768.62	225.37
768.95	225.23
769.27	225.14
769.60	225.07
769.92	224.89
770.25	224.71
770.57	224.57
770.90	224.44
771.22	224.30
771.55	224.20
771.87	224.13
772.20	223.99
772.52	224.03
772.85	224.19
773.17	224.08
773.50	223.97
773.82	223.83
774.15	223.68
774.47	223.42
774.80	223.30
775.12	223.20
775.45	223.13
775.77	223.09
776.09	222.98
776.42	222.89
776.74	222.87
777.07	222.81
777.39	222.72
777.72	222.64
778.04	222.59
778.36	222.48
778.69	222.40
779.01	222.35
779.33	222.10
779.66	221.78
779.98	221.69
780.31	221.60
780.63	221.60
780.95	221.56
781.28	221.50
781.60	221.42
781.92	221.34
782.25	221.24
782.57	221.10
782.89	221.05
783.22	220.96
783.54	220.86
783.86	220.78
784.19	220.70
784.51	220.69
784.83	220.60
785.16	220.55
785.48	220.48
785.80	220.41
786.12	220.37
786.45	220.33
786.77	220.30
787.09	220.25
787.42	220.13
787.74	220.08
788.06	220.06
788.38	220.00
788.71	219.93
789.03	219.88
789.35	219.86
789.67	219.77
789.99	219.73
790.32	219.65
790.64	219.66
790.96	219.79
791.28	219.67
791.61	219.62
791.93	219.56
792.25	219.53
792.57	219.65
792.89	219.56
793.21	219.52
793.54	219.41
793.86	219.36
794.18	219.28
794.50	219.18
794.82	219.13
795.14	219.11
795.47	219.11
795.79	219.08
796.11	219.01
796.43	218.98
796.75	218.95
797.07	218.90
797.39	218.82
797.71	218.64
798.04	218.63
798.36	218.58
798.68	218.57
799.00	218.52
799.32	218.37
799.64	218.37
799.96	218.31
800.28	218.35
800.60	218.27
800.92	218.26
801.24	218.21
801.56	218.20
801.89	218.12
802.21	218.07
802.53	217.99
802.85	217.99
803.17	218.05
803.49	217.97
803.81	217.93
804.13	217.90
804.45	217.82
804.77	217.78
805.09	217.77
805.41	217.70
805.73	217.62
806.05	217.56
806.37	217.51
806.69	217.49
807.01	217.45
807.33	217.45
807.65	217.40
807.97	217.46
808.28	217.40
808.60	217.40
808.92	217.35
809.24	217.47
809.56	217.42
809.88	217.29
810.20	217.29
810.52	217.31
810.84	217.25
811.16	217.20
811.48	217.17
811.80	217.21
812.12	217.18
812.43	217.19
812.75	217.18
813.07	217.15
813.39	217.11
813.71	217.01
814.03	216.97
814.35	216.93
814.67	216.84
814.98	216.80
815.30	216.78
815.62	216.73
815.94	216.55
816.26	216.55
816.58	216.53
816.89	216.50
817.21	216.42
817.53	216.39
817.85	216.40
818.17	216.38
818.48	216.29
818.80	216.32
819.12	216.29
819.44	216.21
819.76	216.12
820.07	216.10
820.39	216.14
820.71	216.15
821.03	216.12
821.34	216.12
821.66	216.12
821.98	216.09
822.30	216.10
822.61	216.23
822.93	216.17
823.25	216.13
823.57	216.09
823.88	216.11
824.20	216.15
824.52	216.15
824.83	216.08
825.15	216.05
825.47	216.00
825.79	216.01
826.10	216.00
826.42	216.04
826.74	216.06
827.05	216.03
827.37	216.01
827.69	215.98
828.00	215.95
828.32	215.95
828.64	215.94
828.95	216.01
829.27	215.93
829.58	215.93
829.90	215.96
830.22	215.99
830.53	215.93
830.85	215.87
831.17	215.84
831.48	215.87
831.80	215.90
832.11	215.86
832.43	215.80
832.75	215.76
833.06	215.86
833.38	215.79
833.69	215.74
834.01	215.75
834.32	215.74
834.64	215.69
834.96	215.64
835.27	215.66
835.59	215.56
835.90	215.49
836.22	215.48
836.53	215.42
836.85	215.39
837.16	215.61
837.48	215.59
837.79	215.65
838.11	215.67
838.42	215.65
838.74	215.68
839.05	215.68
839.37	215.68
839.68	215.53
840.00	215.53
840.31	215.56
840.63	215.52
840.94	215.52
841.26	215.50
841.57	215.52
841.88	215.52
842.20	215.49
842.51	215.46
842.83	215.46
843.14	215.66
843.46	215.63
843.77	215.49
844.08	215.50
844.40	215.40
844.71	215.36
845.03	215.31
845.34	215.28
845.65	215.27
845.97	215.28
846.28	215.28
846.60	215.29
846.91	215.27
847.22	215.26
847.54	215.30
847.85	215.32
848.16	215.29
848.48	215.25
848.79	215.30
849.10	215.34
849.42	215.34
849.73	215.14
850.04	215.14
850.36	215.05
850.67	215.05
850.98	215.07
851.30	215.07
851.61	215.07
851.92	215.08
852.23	215.13
852.55	215.10
852.86	215.13
853.17	215.14
853.49	215.20
853.80	215.23
854.11	215.22
854.42	215.25
854.74	215.24
855.05	215.24
855.36	215.17
855.67	215.18
855.99	215.18
856.30	215.41
856.61	215.42
856.92	215.45
857.23	215.47
857.55	215.46
857.86	215.42
858.17	215.46
858.48	215.39
858.79	215.33
859.11	215.35
859.42	215.32
859.73	215.28
860.04	215.26
860.35	215.19
860.66	215.13
860.98	215.10
861.29	215.11
861.60	215.10
861.91	215.11
862.22	215.07
862.53	215.03
862.84	214.78
863.16	214.79
863.47	214.71
863.78	214.69
864.09	214.69
864.40	214.73
864.71	214.72
865.02	214.74
865.33	214.72
865.64	214.73
865.95	214.74
866.27	214.87
866.58	214.82
866.89	214.82
867.20	214.81
867.51	214.77
867.82	214.75
868.13	214.81
868.44	214.80
868.75	214.86
869.06	214.85
869.37	214.91
869.68	214.85
869.99	214.91
870.30	214.93
870.61	214.96
870.92	214.92
871.23	214.92
871.54	214.96
871.85	215.03
872.16	215.03
872.47	215.05
872.78	214.93
873.09	214.96
873.40	214.99
873.71	215.02
874.02	215.04
874.33	215.05
874.64	214.98
874.95	214.98
875.26	214.92
875.56	214.92
875.87	214.91
876.18	214.92
876.49	215.14
876.80	215.12
877.11	215.05
877.42	215.07
877.73	215.05
878.04	214.99
878.35	214.94
878.66	214.95
878.96	214.90
879.27	214.91
879.58	214.89
879.89	214.88
880.20	214.94
880.51	214.96
880.82	214.97
881.12	215.00
881.43	214.97
881.74	214.94
882.05	214.93
882.36	214.92
882.67	214.95
882.97	214.69
883.28	214.68
883.59	214.70
883.90	214.70
884.21	214.76
884.51	214.76
884.82	214.76
885.13	214.74
885.44	214.74
885.74	214.73
886.05	214.71
886.36	214.72
886.67	214.64
886.98	214.70
887.28	214.70
887.59	214.69
887.90	214.68
888.20	214.72
888.51	214.77
888.82	214.72
889.13	214.72
889.43	214.87
889.74	214.83
890.05	214.82
890.35	214.80
890.66	214.74
890.97	214.74
891.28	214.73
891.58	214.73
891.89	214.72
892.20	214.67
892.50	214.65
892.81	214.61
893.12	214.60
893.42	214.53
893.73	214.53
894.04	214.51
894.34	214.54
894.65	214.51
894.95	214.48
895.26	214.48
895.57	214.55
895.87	214.39
896.18	214.43
896.48	214.44
896.79	214.44
897.10	214.49
897.40	214.45
897.71	214.47
898.01	214.44
898.32	214.47
898.63	214.48
898.93	214.53
899.24	214.56
899.54	214.53
899.85	214.49
900.15	214.49
900.46	214.48
900.76	214.49
901.07	214.51
901.38	214.53
901.68	214.57
901.99	214.47
902.29	214.48
902.60	214.49
902.90	214.48
903.21	214.47
903.51	214.46
903.82	214.53
904.12	214.53
904.43	214.53
904.73	214.55
905.03	214.59
905.34	214.74
905.64	214.69
905.95	214.72
906.25	214.74
906.56	214.71
906.86	214.72
907.17	214.65
907.47	214.68
907.77	214.63
908.08	214.58
908.38	214.60
908.69	214.62
908.99	214.64
909.30	214.65
909.60	214.64
909.90	214.64
910.21	214.59
910.51	214.55
910.81	214.55
911.12	214.51
911.42	214.50
911.73	214.31
912.03	214.37
912.33	214.40
912.64	214.40
912.94	214.38
913.24	214.34
913.55	214.36
913.85	214.30
914.15	214.34
914.46	214.38
914.76	214.36
915.06	214.35
915.37	214.29
915.67	214.26
915.97	214.26
916.27	214.23
916.58	214.25
916.88	214.25
917.18	214.25
917.49	214.41
917.79	214.41
918.09	214.41
918.39	214.44
918.70	214.44
919.00	214.46
919.30	214.56
919.60	214.56
919.91	214.52
920.21	214.58
920.51	214.56
920.81	214.56
921.12	214.59
921.42	214.59
921.72	214.62
922.02	214.64
922.32	214.68
922.63	214.69
922.93	214.78
923.23	214.79
923.53	214.77
923.83	214.61
924.13	214.61
924.44	214.61
924.74	214.62
925.04	214.64
925.34	214.63
925.64	214.57
925.94	214.57
926.24	214.70
926.55	214.66
926.85	214.66
927.15	214.62
927.45	214.60
927.75	214.59
928.05	214.60
928.35	214.61
928.65	214.64
928.95	214.66
929.26	214.59
929.56	214.63
929.86	214.66
930.16	214.67
930.46	214.65
930.76	214.67
931.06	214.61
931.36	214.55
931.66	214.56
931.96	214.58
932.26	214.62
932.56	214.53
932.86	214.59
933.16	214.59
933.46	214.58
933.76	214.54
934.06	214.60
934.36	214.66
934.66	214.63
934.96	214.59
935.26	214.57
935.56	214.62
935.86	214.55
936.16	214.49
936.46	214.45
936.76	214.44
937.06	214.40
937.36	214.38
937.66	214.41
937.96	214.41
938.26	214.41
938.56	214.37
938.86	214.38
939.16	214.39
939.46	214.41
939.76	214.41
940.06	214.46
940.35	214.41
940.65	214.31
940.95	214.35
941.25	214.33
941.55	214.29
941.85	214.26
942.15	214.30
942.45	214.41
942.75	214.45
943.04	214.45
943.34	214.49
943.64	214.51
943.94	214.46
944.24	214.44
944.54	214.39
944.84	214.39
945.13	214.37
945.43	214.34
945.73	214.34
946.03	214.36
946.33	214.32
946.62	214.30
946.92	214.33
947.22	214.33
947.52	214.36
947.82	214.40
948.11	214.37
948.41	214.33
948.71	214.22
949.01	214.21
949.31	214.20
949.60	214.20
949.90	214.21
950.20	214.20
950.50	214.20
950.79	214.22
951.09	214.27
951.39	214.29
951.69	214.28
951.98	214.33
952.28	214.35
952.58	214.35
952.87	214.34
953.17	214.33
953.47	214.30
953.76	214.27
954.06	214.23
954.36	214.23
954.66	214.20
954.95	214.30
955.25	214.35
955.55	214.38
955.84	214.34
956.14	214.36
956.44	214.40
956.73	214.37
957.03	214.35
957.32	214.32
957.62	214.29
957.92	214.33
958.21	214.28
958.51	214.49
958.81	214.53
959.10	214.57
959.40	214.62
959.69	214.62
959.99	214.64
960.29	214.63
960.58	214.60
960.88	214.72
961.17	214.67
961.47	214.65
961.76	214.62
962.06	214.65
962.36	214.60
962.65	214.60
962.95	214.64
963.24	214.64
963.54	214.63
963.83	214.64
964.13	214.63
964.42	214.61
964.72	214.44
965.01	214.45
965.31	214.43
965.60	214.38
965.90	214.50
966.19	214.48
966.49	214.50
966.78	214.49
967.08	214.45
967.37	214.49
967.67	214.46
967.96	214.50
968.26	214.47
968.55	214.50
968.85	214.47
969.14	214.43
969.43	214.41
969.73	214.41
970.02	214.41
970.32	214.38
970.61	214.38
970.91	214.29
971.20	214.24
971.49	214.20
971.79	214.25
972.08	214.13
972.38	214.15
972.67	214.12
972.96	214.16
973.26	214.13
973.55	214.16
973.85	214.15
974.14	214.16
974.43	214.21
974.73	214.18
975.02	214.20
975.31	214.20
975.61	214.23
975.90	214.22
976.19	214.17
976.49	214.19
976.78	214.19
977.07	214.23
977.37	214.26
977.66	214.30
977.95	214.25
978.24	214.22
978.54	214.27
978.83	214.28
979.12	214.27
979.42	214.24
979.71	214.18
980.00	214.19
980.29	214.20
980.59	214.15
980.88	214.19
981.17	214.18
981.46	214.20
981.76	214.19
982.05	214.25
982.34	214.29
982.63	214.28
982.93	214.30
983.22	214.35
983.51	214.35
983.80	214.34
984.09	214.39
984.39	214.39
984.68	214.34
984.97	214.34
985.26	214.29
985.55	214.33
985.85	214.33
986.14	214.36
986.43	214.36
986.72	214.37
987.01	214.31
987.30	214.33
987.59	214.33
987.89	214.31
988.18	214.27
988.47	214.25
988.76	214.20
989.05	214.16
989.34	214.10
989.63	214.12
989.92	214.11
990.22	214.06
990.51	214.06
990.80	214.03
991.09	214.04
991.38	214.11
991.67	214.08
991.96	214.05
992.25	214.04
992.54	214.00
992.83	213.99
993.12	213.99
993.41	214.01
993.70	214.07
993.99	214.11
994.28	214.08
994.58	214.11
994.87	214.13
995.16	214.12
995.45	214.13
995.74	214.07
996.03	214.11
996.32	214.14
996.61	214.18
996.90	214.19
997.19	214.17
997.48	214.17
997.77	214.14
998.06	214.12
998.34	214.11
998.63	214.12
998.92	214.12
999.21	214.14
999.50	214.13
999.79	214.08
1000.08	214.08
1000.37	214.11
1000.66	214.07
1000.95	214.12
1001.24	214.16
1001.53	214.17
1001.82	214.16
1002.11	214.12
1002.40	214.13
1002.68	214.18
1002.97	214.34
1003.26	214.34
1003.55	214.32
1003.84	214.37
1004.13	214.48
1004.42	214.44
1004.71	214.44
1004.99	214.44
1005.28	214.49
1005.57	214.45
1005.86	214.42
1006.15	214.40
1006.44	214.37
1006.72	214.38
1007.01	214.37
1007.30	214.36
1007.59	214.32
1007.88	214.33
1008.17	214.33
1008.45	214.31
1008.74	214.22
1009.03	214.13
1009.32	214.11
1009.60	214.10
1009.89	214.07
1010.18	213.95
1010.47	213.98
1010.76	213.97
1011.04	213.99
1011.33	213.99
1011.62	214.03
1011.91	214.06
1012.19	214.06
1012.48	214.10
1012.77	214.14
1013.05	214.24
1013.34	214.25
1013.63	214.27
1013.92	214.26
1014.20	214.24
1014.49	214.22
1014.78	214.25
1015.06	214.21
1015.35	214.24
1015.64	214.26
1015.92	214.31
1016.21	214.32
1016.50	214.31
1016.78	214.34
1017.07	214.32
1017.36	214.27
1017.64	214.24
1017.93	214.23
1018.22	214.19
1018.50	214.17
1018.79	214.11
1019.08	213.99
1019.36	213.98
1019.65	213.96
1019.93	214.06
1020.22	214.09
1020.51	214.20
1020.79	214.17
1021.08	213.34
1021.36	214.08
1021.65	213.36
1021.94	213.96
1022.22	214.03
1022.51	214.03
1022.79	215.38
1023.08	214.35
1023.36	216.56
1023.65	213.66
>>>>>End Processed Spectral Data<<<<<
