SpectraSuite Data File
++++++++++++++++++++++++++++++++++++
Date: Tue Jan 29 16:49:19 EST 2013
User: group
Dark Spectrum Present: No
Reference Spectrum Present: No
Number of Sampled Component Spectra: 1
Spectrometers: USB2E7196
Integration Time (usec): 65000 (USB2E7196)
Spectra Averaged: 100 (USB2E7196)
Boxcar Smoothing: 10 (USB2E7196)
Correct for Electrical Dark: No (USB2E7196)
Strobe/Lamp Enabled: No (USB2E7196)
Correct for Detector Non-linearity: No (USB2E7196)
Correct for Stray Light: No (USB2E7196)
Number of Pixels in Processed Spectrum: 2048
>>>>>Begin Processed Spectral Data<<<<<
339.09	0.00
339.48	201.56
339.86	202.82
340.24	204.82
340.63	205.79
341.01	210.58
341.39	208.18
341.78	210.11
342.16	211.63
342.54	211.66
342.93	200.91
343.31	211.06
343.69	211.59
344.07	212.06
344.46	212.44
344.84	212.86
345.22	213.02
345.60	213.30
345.99	213.50
346.37	213.60
346.75	213.72
347.13	213.82
347.52	213.86
347.90	213.99
348.28	214.05
348.66	214.14
349.05	214.11
349.43	214.16
349.81	214.23
350.19	214.30
350.57	214.34
350.96	214.41
351.34	214.51
351.72	214.63
352.10	214.75
352.48	214.87
352.87	214.90
353.25	214.96
353.63	215.04
354.01	215.10
354.39	215.20
354.77	215.27
355.15	215.38
355.54	215.46
355.92	215.43
356.30	215.49
356.68	215.68
357.06	215.78
357.44	215.81
357.82	215.87
358.20	215.92
358.58	215.98
358.97	216.05
359.35	216.13
359.73	216.22
360.11	216.27
360.49	216.30
360.87	216.34
361.25	216.44
361.63	216.54
362.01	216.59
362.39	216.61
362.77	216.67
363.15	216.68
363.53	216.67
363.91	216.75
364.29	216.82
364.67	216.63
365.05	216.63
365.43	216.67
365.81	216.70
366.19	216.79
366.57	216.91
366.95	216.92
367.33	216.89
367.71	216.87
368.09	216.92
368.47	216.94
368.85	216.96
369.23	216.94
369.61	216.83
369.99	216.85
370.37	216.88
370.75	216.94
371.13	216.89
371.51	216.87
371.89	216.86
372.27	216.79
372.65	216.79
373.03	216.79
373.41	216.78
373.78	216.75
374.16	216.60
374.54	216.49
374.92	216.43
375.30	216.40
375.68	216.32
376.06	216.26
376.44	216.22
376.82	216.18
377.19	216.17
377.57	216.15
377.95	216.09
378.33	216.02
378.71	215.87
379.09	215.87
379.47	215.85
379.84	215.74
380.22	215.70
380.60	215.62
380.98	215.55
381.36	215.47
381.73	215.42
382.11	215.43
382.49	215.42
382.87	215.36
383.25	215.30
383.62	215.52
384.00	215.46
384.38	215.43
384.76	215.43
385.13	215.45
385.51	215.40
385.89	215.31
386.27	215.29
386.64	215.32
387.02	215.24
387.40	215.21
387.78	215.22
388.15	215.21
388.53	215.20
388.91	215.18
389.29	215.15
389.66	215.16
390.04	215.11
390.42	215.08
390.79	215.06
391.17	215.06
391.55	214.83
391.92	214.83
392.30	214.83
392.68	214.76
393.05	214.76
393.43	214.75
393.81	214.78
394.18	214.74
394.56	214.70
394.94	214.77
395.31	214.73
395.69	214.82
396.06	214.87
396.44	214.89
396.82	214.90
397.19	215.07
397.57	215.05
397.95	215.12
398.32	215.11
398.70	215.17
399.07	215.25
399.45	215.29
399.82	215.34
400.20	215.40
400.58	215.48
400.95	215.47
401.33	215.61
401.70	215.85
402.08	215.98
402.45	216.12
402.83	216.26
403.20	216.44
403.58	216.53
403.95	216.68
404.33	216.86
404.71	217.00
405.08	217.22
405.46	217.37
405.83	217.56
406.21	217.76
406.58	217.98
406.96	218.20
407.33	218.45
407.70	218.74
408.08	219.19
408.45	219.52
408.83	219.91
409.20	220.23
409.58	220.46
409.95	220.91
410.33	221.38
410.70	221.79
411.08	222.32
411.45	222.88
411.82	223.44
412.20	224.10
412.57	224.95
412.95	225.53
413.32	226.41
413.69	227.24
414.07	228.17
414.44	229.15
414.82	230.16
415.19	231.35
415.56	232.57
415.94	233.79
416.31	235.24
416.68	236.66
417.06	238.30
417.43	239.87
417.81	241.60
418.18	243.38
418.55	245.34
418.93	247.39
419.30	249.50
419.67	251.74
420.04	254.05
420.42	256.44
420.79	259.30
421.16	262.12
421.54	265.04
421.91	268.07
422.28	271.19
422.66	274.51
423.03	277.77
423.40	281.09
423.77	284.65
424.15	288.34
424.52	292.14
424.89	296.33
425.26	300.41
425.64	304.33
426.01	308.64
426.38	313.14
426.75	317.67
427.13	322.46
427.50	327.45
427.87	332.69
428.24	337.87
428.61	342.87
428.99	348.37
429.36	354.45
429.73	360.33
430.10	366.23
430.47	372.31
430.85	378.68
431.22	385.44
431.59	392.60
431.96	399.41
432.33	407.01
432.70	414.27
433.08	422.83
433.45	430.93
433.82	438.95
434.19	447.84
434.56	456.57
434.93	464.90
435.30	473.19
435.68	482.37
436.05	491.50
436.42	500.55
436.79	508.77
437.16	517.56
437.53	526.89
437.90	536.13
438.27	545.19
438.64	554.41
439.01	563.02
439.38	570.60
439.75	577.96
440.13	586.37
440.50	594.39
440.87	600.88
441.24	607.56
441.61	614.93
441.98	620.36
442.35	626.76
442.72	633.15
443.09	639.22
443.46	642.93
443.83	645.39
444.20	647.46
444.57	650.69
444.94	652.16
445.31	653.58
445.68	654.98
446.05	655.61
446.42	654.95
446.79	653.96
447.16	653.01
447.53	652.31
447.90	649.05
448.27	645.77
448.64	641.17
449.01	637.85
449.37	632.00
449.74	626.36
450.11	619.45
450.48	612.03
450.85	604.59
451.22	598.11
451.59	591.97
451.96	586.20
452.33	578.19
452.70	571.11
453.07	562.62
453.43	553.98
453.80	545.63
454.17	537.56
454.54	529.95
454.91	521.66
455.28	513.59
455.65	506.10
456.02	498.52
456.38	492.10
456.75	484.19
457.12	477.51
457.49	470.91
457.86	464.67
458.23	459.26
458.59	453.26
458.96	447.25
459.33	441.93
459.70	436.48
460.07	432.28
460.43	427.34
460.80	422.73
461.17	418.63
461.54	414.38
461.91	410.37
462.27	406.25
462.64	402.83
463.01	399.00
463.38	395.29
463.74	391.60
464.11	388.31
464.48	385.52
464.85	382.43
465.21	380.02
465.58	377.39
465.95	374.24
466.32	371.64
466.68	369.02
467.05	366.39
467.42	363.80
467.78	361.05
468.15	358.51
468.52	356.59
468.88	354.18
469.25	351.95
469.62	350.05
469.98	348.09
470.35	346.27
470.72	344.61
471.08	342.72
471.45	341.16
471.82	339.62
472.18	337.88
472.55	336.67
472.92	335.19
473.28	333.95
473.65	332.75
474.02	331.61
474.38	330.70
474.75	329.90
475.11	329.10
475.48	328.51
475.85	327.94
476.21	327.45
476.58	327.04
476.94	326.77
477.31	326.50
477.67	326.23
478.04	326.05
478.41	326.00
478.77	326.14
479.14	326.10
479.50	326.25
479.87	326.52
480.23	326.83
480.60	327.09
480.96	327.35
481.33	327.95
481.69	328.50
482.06	329.00
482.42	329.53
482.79	330.10
483.15	330.92
483.52	331.86
483.88	332.73
484.25	333.65
484.61	334.69
484.98	335.67
485.34	336.99
485.71	338.32
486.07	339.73
486.44	341.12
486.80	342.71
487.17	344.37
487.53	346.24
487.90	348.09
488.26	350.13
488.62	352.24
488.99	354.29
489.35	356.46
489.72	358.85
490.08	361.33
490.44	363.91
490.81	366.53
491.17	369.24
491.54	372.22
491.90	375.26
492.26	378.52
492.63	381.96
492.99	385.43
493.36	389.14
493.72	392.96
494.08	396.97
494.45	401.23
494.81	405.59
495.17	410.01
495.54	414.73
495.90	419.53
496.26	424.49
496.63	429.69
496.99	435.12
497.35	440.71
497.72	446.53
498.08	452.43
498.44	458.55
498.80	464.99
499.17	471.48
499.53	478.19
499.89	485.05
500.26	492.03
500.62	499.12
500.98	506.47
501.34	514.04
501.71	521.82
502.07	529.60
502.43	537.55
502.79	545.67
503.16	553.93
503.52	562.53
503.88	571.28
504.24	580.22
504.60	589.26
504.97	598.46
505.33	607.76
505.69	617.61
506.05	627.48
506.41	637.36
506.78	647.36
507.14	657.58
507.50	668.00
507.86	678.68
508.22	689.44
508.59	700.08
508.95	711.06
509.31	722.22
509.67	733.68
510.03	745.05
510.39	756.73
510.75	768.60
511.12	780.46
511.48	792.49
511.84	804.66
512.20	816.95
512.56	829.59
512.92	842.33
513.28	854.92
513.64	867.69
514.00	880.54
514.37	893.59
514.73	906.71
515.09	919.74
515.45	932.61
515.81	945.72
516.17	959.10
516.53	972.35
516.89	985.53
517.25	998.72
517.61	1012.28
517.97	1025.74
518.33	1038.92
518.69	1052.52
519.05	1066.22
519.41	1079.97
519.77	1093.90
520.13	1107.08
520.49	1120.33
520.85	1133.76
521.21	1147.07
521.57	1160.74
521.93	1173.74
522.29	1187.57
522.65	1201.28
523.01	1215.02
523.37	1228.23
523.73	1241.62
524.09	1254.80
524.45	1268.21
524.81	1281.66
525.17	1295.04
525.53	1308.28
525.89	1321.70
526.25	1334.89
526.61	1347.82
526.97	1360.97
527.33	1374.02
527.68	1387.68
528.04	1401.19
528.40	1414.43
528.76	1427.87
529.12	1440.89
529.48	1454.34
529.84	1466.61
530.20	1479.29
530.56	1491.86
530.91	1505.05
531.27	1518.05
531.63	1530.95
531.99	1543.69
532.35	1556.00
532.71	1568.51
533.07	1581.49
533.42	1593.71
533.78	1605.91
534.14	1617.96
534.50	1629.24
534.86	1640.84
535.21	1651.75
535.57	1663.43
535.93	1674.71
536.29	1685.81
536.65	1697.27
537.00	1708.33
537.36	1719.78
537.72	1730.88
538.08	1742.43
538.44	1753.53
538.79	1764.63
539.15	1775.49
539.51	1786.47
539.87	1797.85
540.22	1808.82
540.58	1819.83
540.94	1830.87
541.29	1841.27
541.65	1851.29
542.01	1861.89
542.37	1871.92
542.72	1882.12
543.08	1891.90
543.44	1902.62
543.79	1912.08
544.15	1921.53
544.51	1931.49
544.87	1941.48
545.22	1950.75
545.58	1959.59
545.94	1968.56
546.29	1977.17
546.65	1985.68
547.01	1993.99
547.36	2001.80
547.72	2009.52
548.07	2017.05
548.43	2024.80
548.79	2032.67
549.14	2040.93
549.50	2049.38
549.86	2057.46
550.21	2064.96
550.57	2072.69
550.92	2079.38
551.28	2086.87
551.64	2094.18
551.99	2101.79
552.35	2108.95
552.70	2115.95
553.06	2122.74
553.41	2128.85
553.77	2135.22
554.13	2141.63
554.48	2148.63
554.84	2155.72
555.19	2162.25
555.55	2168.75
555.90	2175.14
556.26	2181.91
556.61	2187.95
556.97	2192.78
557.32	2198.43
557.68	2204.79
558.03	2210.51
558.39	2215.97
558.74	2221.92
559.10	2227.48
559.45	2232.98
559.81	2238.61
560.16	2244.04
560.52	2249.84
560.87	2256.34
561.23	2262.21
561.58	2268.87
561.94	2274.01
562.29	2278.51
562.64	2284.50
563.00	2290.21
563.35	2295.56
563.71	2301.32
564.06	2307.02
564.42	2312.89
564.77	2318.11
565.12	2323.32
565.48	2328.31
565.83	2333.77
566.19	2338.99
566.54	2344.25
566.89	2348.76
567.25	2353.12
567.60	2358.71
567.96	2363.73
568.31	2368.29
568.66	2372.49
569.02	2376.22
569.37	2380.05
569.72	2384.40
570.08	2387.79
570.43	2390.71
570.78	2393.89
571.14	2396.18
571.49	2399.08
571.84	2402.57
572.20	2405.15
572.55	2408.02
572.90	2410.28
573.26	2412.85
573.61	2415.35
573.96	2417.33
574.31	2419.29
574.67	2421.16
575.02	2421.80
575.37	2423.20
575.72	2423.78
576.08	2425.09
576.43	2425.24
576.78	2425.38
577.13	2426.88
577.49	2428.05
577.84	2428.86
578.19	2429.90
578.54	2430.35
578.90	2430.79
579.25	2430.56
579.60	2430.39
579.95	2429.41
580.30	2429.25
580.66	2428.46
581.01	2426.77
581.36	2424.30
581.71	2422.72
582.06	2421.32
582.42	2420.23
582.77	2417.86
583.12	2415.90
583.47	2414.44
583.82	2413.65
584.17	2412.33
584.53	2410.08
584.88	2407.83
585.23	2405.80
585.58	2403.44
585.93	2401.34
586.28	2399.02
586.63	2396.29
586.98	2393.89
587.34	2391.80
587.69	2389.11
588.04	2386.69
588.39	2384.96
588.74	2382.31
589.09	2379.45
589.44	2376.01
589.79	2373.37
590.14	2371.15
590.49	2368.21
590.84	2364.16
591.19	2360.75
591.54	2357.34
591.89	2353.19
592.25	2349.56
592.60	2345.30
592.95	2340.96
593.30	2336.60
593.65	2332.09
594.00	2327.47
594.35	2324.42
594.70	2319.67
595.05	2315.08
595.40	2309.62
595.75	2303.66
596.10	2300.01
596.45	2294.95
596.80	2290.45
597.15	2285.35
597.50	2279.38
597.85	2274.47
598.19	2269.21
598.54	2263.44
598.89	2258.11
599.24	2253.50
599.59	2247.40
599.94	2241.43
600.29	2235.31
600.64	2229.36
600.99	2222.54
601.34	2217.09
601.69	2210.08
602.04	2203.71
602.39	2197.14
602.74	2190.90
603.08	2185.46
603.43	2178.78
603.78	2172.04
604.13	2164.89
604.48	2157.42
604.83	2151.29
605.18	2144.99
605.53	2138.01
605.87	2130.80
606.22	2123.99
606.57	2115.97
606.92	2108.03
607.27	2101.12
607.62	2094.64
607.96	2087.72
608.31	2081.30
608.66	2073.58
609.01	2065.91
609.36	2058.72
609.70	2050.99
610.05	2043.33
610.40	2035.00
610.75	2026.64
611.10	2018.84
611.44	2009.91
611.79	2001.34
612.14	1991.41
612.49	1980.76
612.83	1971.47
613.18	1962.33
613.53	1953.01
613.88	1943.58
614.22	1934.97
614.57	1925.06
614.92	1914.47
615.27	1903.98
615.61	1893.77
615.96	1884.10
616.31	1874.57
616.65	1865.15
617.00	1855.55
617.35	1845.98
617.70	1836.26
618.04	1826.32
618.39	1816.18
618.74	1806.71
619.08	1796.99
619.43	1788.39
619.78	1780.19
620.12	1771.66
620.47	1762.12
620.82	1751.78
621.16	1742.00
621.51	1732.11
621.85	1722.37
622.20	1712.19
622.55	1701.89
622.89	1692.05
623.24	1682.32
623.59	1672.55
623.93	1662.61
624.28	1652.84
624.62	1642.75
624.97	1632.60
625.32	1622.91
625.66	1614.17
626.01	1605.42
626.35	1596.37
626.70	1586.27
627.04	1576.30
627.39	1566.37
627.73	1557.14
628.08	1548.42
628.43	1538.94
628.77	1529.94
629.12	1521.11
629.46	1513.35
629.81	1505.15
630.15	1495.86
630.50	1486.33
630.84	1475.86
631.19	1465.90
631.53	1456.70
631.88	1446.63
632.22	1436.75
632.57	1427.48
632.91	1417.40
633.26	1407.55
633.60	1397.99
633.95	1388.84
634.29	1379.44
634.64	1370.20
634.98	1360.38
635.32	1351.17
635.67	1342.81
636.01	1333.62
636.36	1324.02
636.70	1314.54
637.05	1305.26
637.39	1296.39
637.73	1287.76
638.08	1280.41
638.42	1272.40
638.77	1263.69
639.11	1255.55
639.45	1247.81
639.80	1239.40
640.14	1230.74
640.49	1222.00
640.83	1213.18
641.17	1205.13
641.52	1197.04
641.86	1188.49
642.20	1180.70
642.55	1172.22
642.89	1163.36
643.23	1154.76
643.58	1146.82
643.92	1137.87
644.26	1129.22
644.61	1120.83
644.95	1112.22
645.29	1103.08
645.64	1094.08
645.98	1085.54
646.32	1077.68
646.66	1069.27
647.01	1061.09
647.35	1053.10
647.69	1044.90
648.04	1036.72
648.38	1027.99
648.72	1019.31
649.06	1010.92
649.41	1002.80
649.75	994.84
650.09	987.08
650.43	979.10
650.78	970.73
651.12	963.08
651.46	955.75
651.80	948.63
652.14	941.35
652.49	933.84
652.83	926.53
653.17	919.00
653.51	911.39
653.85	904.10
654.20	896.86
654.54	889.46
654.88	882.21
655.22	875.08
655.56	867.95
655.90	861.19
656.25	854.51
656.59	847.66
656.93	840.66
657.27	833.55
657.61	826.59
657.95	820.57
658.29	814.57
658.64	808.49
658.98	801.89
659.32	795.31
659.66	789.17
660.00	782.85
660.34	776.74
660.68	770.68
661.02	764.36
661.36	758.40
661.70	752.58
662.05	746.96
662.39	741.42
662.73	736.10
663.07	730.73
663.41	725.18
663.75	719.41
664.09	713.74
664.43	708.28
664.77	702.90
665.11	697.08
665.45	691.31
665.79	685.53
666.13	679.97
666.47	674.56
666.81	669.04
667.15	663.70
667.49	658.60
667.83	653.35
668.17	648.11
668.51	643.02
668.85	638.05
669.19	633.23
669.53	628.21
669.87	623.10
670.21	618.38
670.55	613.64
670.89	609.22
671.23	604.89
671.57	600.45
671.91	596.26
672.25	592.10
672.58	587.93
672.92	583.78
673.26	579.78
673.60	575.84
673.94	572.08
674.28	568.42
674.62	564.59
674.96	560.89
675.30	557.45
675.64	553.72
675.97	550.14
676.31	546.48
676.65	542.86
676.99	539.42
677.33	535.51
677.67	531.86
678.01	528.02
678.34	524.38
678.68	520.86
679.02	517.21
679.36	513.54
679.70	509.90
680.04	506.32
680.37	502.83
680.71	499.47
681.05	496.11
681.39	492.76
681.73	489.54
682.06	486.46
682.40	483.31
682.74	480.15
683.08	476.93
683.42	473.71
683.75	470.65
684.09	467.57
684.43	464.74
684.77	461.85
685.10	459.01
685.44	456.10
685.78	453.18
686.12	450.37
686.45	447.60
686.79	444.85
687.13	442.35
687.46	439.74
687.80	437.05
688.14	434.30
688.48	431.72
688.81	429.00
689.15	426.36
689.49	423.71
689.82	421.12
690.16	418.50
690.50	415.98
690.83	413.53
691.17	410.93
691.51	408.46
691.84	406.11
692.18	403.78
692.52	401.53
692.85	399.39
693.19	397.21
693.52	395.02
693.86	392.79
694.20	390.55
694.53	388.38
694.87	386.16
695.21	383.96
695.54	381.73
695.88	379.57
696.21	377.36
696.55	375.22
696.88	373.13
697.22	371.11
697.56	369.23
697.89	367.30
698.23	365.53
698.56	363.72
698.90	361.91
699.23	360.02
699.57	358.14
699.90	356.23
700.24	354.38
700.58	352.56
700.91	350.87
701.25	349.27
701.58	347.63
701.92	346.04
702.25	344.44
702.59	342.86
702.92	341.31
703.26	339.73
703.59	338.22
703.93	336.93
704.26	335.49
704.60	333.95
704.93	332.41
705.26	330.89
705.60	329.42
705.93	327.89
706.27	326.51
706.60	325.18
706.94	323.95
707.27	322.58
707.61	321.23
707.94	319.86
708.27	318.29
708.61	316.81
708.94	315.42
709.28	314.11
709.61	312.81
709.94	311.58
710.28	310.32
710.61	309.09
710.95	307.68
711.28	306.57
711.61	305.38
711.95	304.25
712.28	303.03
712.61	301.80
712.95	300.71
713.28	299.69
713.61	298.52
713.95	297.35
714.28	296.28
714.61	295.22
714.95	294.17
715.28	293.13
715.61	292.11
715.95	291.12
716.28	290.15
716.61	289.15
716.95	288.13
717.28	287.22
717.61	286.26
717.94	285.31
718.28	284.23
718.61	283.31
718.94	282.40
719.27	281.54
719.61	280.74
719.94	279.86
720.27	278.90
720.60	278.06
720.94	277.23
721.27	276.50
721.60	275.79
721.93	275.04
722.27	274.42
722.60	273.77
722.93	273.05
723.26	272.35
723.59	271.65
723.93	271.00
724.26	270.34
724.59	269.67
724.92	269.08
725.25	268.56
725.59	268.01
725.92	267.48
726.25	266.89
726.58	266.23
726.91	265.61
727.24	265.01
727.57	264.40
727.91	263.81
728.24	263.26
728.57	262.65
728.90	262.10
729.23	261.45
729.56	260.93
729.89	260.39
730.22	259.80
730.55	259.29
730.89	258.77
731.22	258.22
731.55	257.70
731.88	257.15
732.21	256.60
732.54	256.01
732.87	255.47
733.20	254.98
733.53	254.55
733.86	254.11
734.19	253.63
734.52	253.23
734.85	252.92
735.18	252.40
735.51	252.03
735.84	251.62
736.17	251.21
736.50	250.71
736.83	250.55
737.16	250.17
737.49	249.75
737.82	249.31
738.15	248.90
738.48	248.55
738.81	248.18
739.14	247.73
739.47	247.37
739.80	246.96
740.13	246.59
740.46	246.18
740.79	245.77
741.12	245.40
741.45	245.00
741.78	244.52
742.11	244.24
742.44	243.81
742.77	243.53
743.10	243.18
743.43	242.82
743.75	242.25
744.08	242.11
744.41	241.76
744.74	241.41
745.07	241.07
745.40	240.75
745.73	240.48
746.06	240.17
746.39	239.85
746.71	239.54
747.04	239.18
747.37	238.85
747.70	238.58
748.03	238.30
748.36	238.02
748.68	237.73
749.01	237.36
749.34	237.09
749.67	236.75
750.00	236.49
750.33	236.38
750.65	236.09
750.98	235.63
751.31	235.38
751.64	235.16
751.97	235.03
752.29	234.75
752.62	234.37
752.95	234.14
753.28	233.88
753.60	233.65
753.93	233.49
754.26	233.28
754.59	232.94
754.91	232.71
755.24	232.46
755.57	232.23
755.90	232.00
756.22	231.75
756.55	231.48
756.88	231.22
757.20	230.84
757.53	230.60
757.86	230.36
758.19	230.15
758.51	229.90
758.84	229.58
759.17	229.35
759.49	229.22
759.82	229.10
760.15	228.95
760.47	228.73
760.80	228.48
761.13	228.35
761.45	228.17
761.78	227.93
762.11	227.80
762.43	227.57
762.76	227.40
763.08	227.27
763.41	227.15
763.74	226.98
764.06	226.83
764.39	226.68
764.71	226.55
765.04	226.38
765.37	226.23
765.69	226.08
766.02	225.95
766.34	225.80
766.67	225.57
767.00	225.49
767.32	225.51
767.65	225.50
767.97	225.29
768.30	225.20
768.62	225.13
768.95	224.94
769.27	224.84
769.60	224.76
769.92	224.57
770.25	224.42
770.57	224.24
770.90	224.14
771.22	223.97
771.55	223.84
771.87	223.75
772.20	223.66
772.52	223.71
772.85	223.87
773.17	223.74
773.50	223.65
773.82	223.48
774.15	223.23
774.47	223.00
774.80	222.92
775.12	222.81
775.45	222.67
775.77	222.61
776.09	222.54
776.42	222.46
776.74	222.43
777.07	222.35
777.39	222.31
777.72	222.23
778.04	222.21
778.36	222.13
778.69	222.04
779.01	221.93
779.33	221.69
779.66	221.34
779.98	221.25
780.31	221.17
780.63	221.17
780.95	221.17
781.28	221.08
781.60	221.02
781.92	220.94
782.25	220.91
782.57	220.81
782.89	220.74
783.22	220.64
783.54	220.54
783.86	220.48
784.19	220.39
784.51	220.39
784.83	220.28
785.16	220.20
785.48	220.14
785.80	220.08
786.12	220.02
786.45	219.97
786.77	219.93
787.09	219.86
787.42	219.72
787.74	219.65
788.06	219.60
788.38	219.52
788.71	219.43
789.03	219.35
789.35	219.35
789.67	219.23
789.99	219.18
790.32	219.12
790.64	219.07
790.96	219.19
791.28	219.04
791.61	218.98
791.93	218.95
792.25	218.90
792.57	219.01
792.89	218.95
793.21	218.90
793.54	218.84
793.86	218.79
794.18	218.72
794.50	218.62
794.82	218.57
795.14	218.54
795.47	218.57
795.79	218.51
796.11	218.42
796.43	218.39
796.75	218.33
797.07	218.26
797.39	218.20
797.71	218.01
798.04	217.99
798.36	217.93
798.68	217.87
799.00	217.83
799.32	217.68
799.64	217.68
799.96	217.61
800.28	217.59
800.60	217.49
800.92	217.48
801.24	217.44
801.56	217.41
801.89	217.36
802.21	217.32
802.53	217.24
802.85	217.25
803.17	217.30
803.49	217.24
803.81	217.21
804.13	217.18
804.45	217.12
804.77	217.11
805.09	217.12
805.41	217.06
805.73	216.99
806.05	216.92
806.37	216.85
806.69	216.82
807.01	216.76
807.33	216.79
807.65	216.72
807.97	216.77
808.28	216.74
808.60	216.70
808.92	216.65
809.24	216.79
809.56	216.75
809.88	216.67
810.20	216.68
810.52	216.71
810.84	216.69
811.16	216.69
811.48	216.60
811.80	216.62
812.12	216.58
812.43	216.59
812.75	216.57
813.07	216.51
813.39	216.53
813.71	216.49
814.03	216.45
814.35	216.44
814.67	216.33
814.98	216.29
815.30	216.27
815.62	216.24
815.94	216.06
816.26	216.04
816.58	215.95
816.89	215.94
817.21	215.84
817.53	215.80
817.85	215.78
818.17	215.78
818.48	215.71
818.80	215.77
819.12	215.76
819.44	215.70
819.76	215.71
820.07	215.68
820.39	215.69
820.71	215.70
821.03	215.67
821.34	215.66
821.66	215.66
821.98	215.66
822.30	215.60
822.61	215.72
822.93	215.69
823.25	215.71
823.57	215.67
823.88	215.73
824.20	215.70
824.52	215.72
824.83	215.70
825.15	215.64
825.47	215.60
825.79	215.58
826.10	215.58
826.42	215.54
826.74	215.55
827.05	215.53
827.37	215.48
827.69	215.46
828.00	215.45
828.32	215.45
828.64	215.40
828.95	215.49
829.27	215.41
829.58	215.38
829.90	215.41
830.22	215.40
830.53	215.32
830.85	215.29
831.17	215.20
831.48	215.18
831.80	215.20
832.11	215.20
832.43	215.17
832.75	215.15
833.06	215.27
833.38	215.18
833.69	215.14
834.01	215.16
834.32	215.14
834.64	215.12
834.96	215.09
835.27	215.09
835.59	215.02
835.90	214.97
836.22	214.95
836.53	214.88
836.85	214.84
837.16	215.02
837.48	215.05
837.79	215.12
838.11	215.12
838.42	215.10
838.74	215.10
839.05	215.06
839.37	215.05
839.68	214.91
840.00	214.94
840.31	214.98
840.63	214.93
840.94	214.92
841.26	214.87
841.57	214.89
841.88	214.90
842.20	214.87
842.51	214.85
842.83	214.87
843.14	215.03
843.46	215.06
843.77	214.94
844.08	214.90
844.40	214.80
844.71	214.80
845.03	214.78
845.34	214.78
845.65	214.77
845.97	214.80
846.28	214.79
846.60	214.76
846.91	214.72
847.22	214.72
847.54	214.75
847.85	214.78
848.16	214.74
848.48	214.71
848.79	214.79
849.10	214.78
849.42	214.73
849.73	214.56
850.04	214.52
850.36	214.46
850.67	214.51
850.98	214.52
851.30	214.54
851.61	214.51
851.92	214.50
852.23	214.55
852.55	214.54
852.86	214.55
853.17	214.60
853.49	214.63
853.80	214.65
854.11	214.67
854.42	214.67
854.74	214.67
855.05	214.69
855.36	214.58
855.67	214.61
855.99	214.68
856.30	214.91
856.61	214.90
856.92	214.89
857.23	214.90
857.55	214.91
857.86	214.87
858.17	214.89
858.48	214.84
858.79	214.79
859.11	214.80
859.42	214.77
859.73	214.71
860.04	214.72
860.35	214.66
860.66	214.61
860.98	214.62
861.29	214.64
861.60	214.60
861.91	214.62
862.22	214.58
862.53	214.53
862.84	214.31
863.16	214.36
863.47	214.34
863.78	214.30
864.09	214.31
864.40	214.32
864.71	214.33
865.02	214.36
865.33	214.33
865.64	214.31
865.95	214.31
866.27	214.45
866.58	214.46
866.89	214.49
867.20	214.48
867.51	214.42
867.82	214.40
868.13	214.46
868.44	214.45
868.75	214.49
869.06	214.50
869.37	214.52
869.68	214.44
869.99	214.50
870.30	214.51
870.61	214.50
870.92	214.47
871.23	214.45
871.54	214.48
871.85	214.53
872.16	214.53
872.47	214.53
872.78	214.41
873.09	214.41
873.40	214.38
873.71	214.38
874.02	214.43
874.33	214.39
874.64	214.33
874.95	214.36
875.26	214.34
875.56	214.33
875.87	214.29
876.18	214.27
876.49	214.43
876.80	214.40
877.11	214.37
877.42	214.39
877.73	214.40
878.04	214.38
878.35	214.39
878.66	214.39
878.96	214.41
879.27	214.39
879.58	214.34
879.89	214.33
880.20	214.41
880.51	214.40
880.82	214.43
881.12	214.45
881.43	214.42
881.74	214.37
882.05	214.38
882.36	214.38
882.67	214.43
882.97	214.20
883.28	214.20
883.59	214.21
883.90	214.24
884.21	214.29
884.51	214.30
884.82	214.29
885.13	214.29
885.44	214.29
885.74	214.31
886.05	214.32
886.36	214.32
886.67	214.24
886.98	214.35
887.28	214.34
887.59	214.33
887.90	214.30
888.20	214.29
888.51	214.31
888.82	214.28
889.13	214.32
889.43	214.47
889.74	214.46
890.05	214.45
890.35	214.40
890.66	214.35
890.97	214.29
891.28	214.26
891.58	214.27
891.89	214.26
892.20	214.24
892.50	214.19
892.81	214.19
893.12	214.19
893.42	214.06
893.73	214.06
894.04	214.06
894.34	214.10
894.65	214.07
894.95	214.05
895.26	214.07
895.57	214.13
895.87	213.94
896.18	213.97
896.48	213.99
896.79	213.98
897.10	214.00
897.40	213.98
897.71	214.02
898.01	213.98
898.32	214.02
898.63	214.00
898.93	214.04
899.24	214.03
899.54	214.04
899.85	214.02
900.15	214.05
900.46	214.05
900.76	214.07
901.07	214.10
901.38	214.09
901.68	214.10
901.99	213.98
902.29	214.03
902.60	214.02
902.90	213.98
903.21	214.00
903.51	213.99
903.82	214.04
904.12	214.02
904.43	214.05
904.73	214.01
905.03	214.04
905.34	214.24
905.64	214.27
905.95	214.26
906.25	214.28
906.56	214.25
906.86	214.24
907.17	214.22
907.47	214.21
907.77	214.18
908.08	214.15
908.38	214.17
908.69	214.17
908.99	214.23
909.30	214.27
909.60	214.23
909.90	214.22
910.21	214.17
910.51	214.14
910.81	214.11
911.12	214.13
911.42	214.11
911.73	213.88
912.03	213.88
912.33	213.91
912.64	213.88
912.94	213.89
913.24	213.84
913.55	213.81
913.85	213.83
914.15	213.85
914.46	213.86
914.76	213.83
915.06	213.83
915.37	213.79
915.67	213.76
915.97	213.78
916.27	213.73
916.58	213.74
916.88	213.75
917.18	213.75
917.49	213.88
917.79	213.91
918.09	213.94
918.39	213.98
918.70	213.97
919.00	213.99
919.30	214.07
919.60	214.09
919.91	214.09
920.21	214.09
920.51	214.06
920.81	214.05
921.12	214.08
921.42	214.07
921.72	214.06
922.02	214.07
922.32	214.10
922.63	214.17
922.93	214.27
923.23	214.27
923.53	214.25
923.83	214.13
924.13	214.13
924.44	214.13
924.74	214.15
925.04	214.19
925.34	214.17
925.64	214.07
925.94	214.06
926.24	214.16
926.55	214.13
926.85	214.14
927.15	214.13
927.45	214.14
927.75	214.13
928.05	214.18
928.35	214.18
928.65	214.24
928.95	214.20
929.26	214.14
929.56	214.15
929.86	214.20
930.16	214.19
930.46	214.13
930.76	214.12
931.06	214.02
931.36	213.96
931.66	214.04
931.96	214.05
932.26	214.07
932.56	214.00
932.86	213.99
933.16	214.01
933.46	214.00
933.76	213.98
934.06	214.00
934.36	214.02
934.66	214.00
934.96	213.96
935.26	213.98
935.56	213.99
935.86	213.97
936.16	213.92
936.46	213.88
936.76	213.92
937.06	213.90
937.36	213.92
937.66	213.93
937.96	213.89
938.26	213.88
938.56	213.86
938.86	213.87
939.16	213.95
939.46	213.96
939.76	213.98
940.06	213.96
940.35	213.91
940.65	213.81
940.95	213.79
941.25	213.75
941.55	213.74
941.85	213.69
942.15	213.74
942.45	213.77
942.75	213.80
943.04	213.79
943.34	213.84
943.64	213.81
943.94	213.79
944.24	213.81
944.54	213.82
944.84	213.82
945.13	213.78
945.43	213.76
945.73	213.75
946.03	213.75
946.33	213.75
946.62	213.77
946.92	213.79
947.22	213.85
947.52	213.83
947.82	213.83
948.11	213.83
948.41	213.81
948.71	213.75
949.01	213.73
949.31	213.69
949.60	213.65
949.90	213.69
950.20	213.68
950.50	213.68
950.79	213.66
951.09	213.69
951.39	213.70
951.69	213.68
951.98	213.71
952.28	213.74
952.58	213.72
952.87	213.70
953.17	213.72
953.47	213.68
953.76	213.73
954.06	213.70
954.36	213.69
954.66	213.63
954.95	213.70
955.25	213.74
955.55	213.79
955.84	213.79
956.14	213.80
956.44	213.81
956.73	213.76
957.03	213.78
957.32	213.75
957.62	213.74
957.92	213.74
958.21	213.69
958.51	213.89
958.81	213.90
959.10	213.95
959.40	214.01
959.69	214.00
959.99	214.01
960.29	214.02
960.58	214.03
960.88	214.15
961.17	214.12
961.47	214.15
961.76	214.13
962.06	214.15
962.36	214.13
962.65	214.13
962.95	214.17
963.24	214.14
963.54	214.18
963.83	214.20
964.13	214.19
964.42	214.15
964.72	213.96
965.01	213.98
965.31	213.94
965.60	213.90
965.90	214.04
966.19	214.00
966.49	214.02
966.78	213.98
967.08	213.97
967.37	213.98
967.67	213.92
967.96	213.95
968.26	213.95
968.55	214.00
968.85	213.98
969.14	213.96
969.43	213.98
969.73	213.93
970.02	213.90
970.32	213.89
970.61	213.91
970.91	213.89
971.20	213.86
971.49	213.82
971.79	213.84
972.08	213.70
972.38	213.73
972.67	213.70
972.96	213.73
973.26	213.70
973.55	213.73
973.85	213.73
974.14	213.71
974.43	213.72
974.73	213.67
975.02	213.65
975.31	213.66
975.61	213.60
975.90	213.61
976.19	213.58
976.49	213.61
976.78	213.64
977.07	213.60
977.37	213.62
977.66	213.62
977.95	213.61
978.24	213.61
978.54	213.63
978.83	213.62
979.12	213.61
979.42	213.60
979.71	213.55
980.00	213.55
980.29	213.58
980.59	213.55
980.88	213.62
981.17	213.65
981.46	213.63
981.76	213.66
982.05	213.72
982.34	213.76
982.63	213.74
982.93	213.70
983.22	213.80
983.51	213.82
983.80	213.89
984.09	213.89
984.39	213.90
984.68	213.88
984.97	213.88
985.26	213.87
985.55	213.86
985.85	213.85
986.14	213.87
986.43	213.88
986.72	213.87
987.01	213.77
987.30	213.76
987.59	213.75
987.89	213.76
988.18	213.69
988.47	213.68
988.76	213.65
989.05	213.68
989.34	213.65
989.63	213.68
989.92	213.65
990.22	213.66
990.51	213.65
990.80	213.64
991.09	213.68
991.38	213.71
991.67	213.72
991.96	213.71
992.25	213.70
992.54	213.69
992.83	213.71
993.12	213.70
993.41	213.72
993.70	213.81
993.99	213.85
994.28	213.88
994.58	213.94
994.87	213.96
995.16	213.93
995.45	213.94
995.74	213.86
996.03	213.90
996.32	213.95
996.61	214.00
996.90	213.97
997.19	213.95
997.48	213.94
997.77	213.91
998.06	213.94
998.34	213.97
998.63	213.95
998.92	213.96
999.21	214.00
999.50	214.00
999.79	213.93
1000.08	213.93
1000.37	213.91
1000.66	213.84
1000.95	213.87
1001.24	213.87
1001.53	213.86
1001.82	213.85
1002.11	213.78
1002.40	213.74
1002.68	213.76
1002.97	213.93
1003.26	213.92
1003.55	213.90
1003.84	213.91
1004.13	213.94
1004.42	213.91
1004.71	213.90
1004.99	213.87
1005.28	213.92
1005.57	213.96
1005.86	213.91
1006.15	213.89
1006.44	213.85
1006.72	213.88
1007.01	213.84
1007.30	213.86
1007.59	213.85
1007.88	213.86
1008.17	213.90
1008.45	213.90
1008.74	213.85
1009.03	213.77
1009.32	213.76
1009.60	213.79
1009.89	213.77
1010.18	213.68
1010.47	213.66
1010.76	213.68
1011.04	213.67
1011.33	213.68
1011.62	213.68
1011.91	213.70
1012.19	213.71
1012.48	213.74
1012.77	213.76
1013.05	213.84
1013.34	213.79
1013.63	213.80
1013.92	213.83
1014.20	213.77
1014.49	213.75
1014.78	213.76
1015.06	213.67
1015.35	213.65
1015.64	213.64
1015.92	213.68
1016.21	213.71
1016.50	213.73
1016.78	213.73
1017.07	213.77
1017.36	213.74
1017.64	213.72
1017.93	213.75
1018.22	213.71
1018.50	213.70
1018.79	213.67
1019.08	213.57
1019.36	213.62
1019.65	213.59
1019.93	213.65
1020.22	213.72
1020.51	213.84
1020.79	213.80
1021.08	213.17
1021.36	213.10
1021.65	213.43
1021.94	213.12
1022.22	213.79
1022.51	213.36
1022.79	214.97
1023.08	214.27
1023.36	216.26
1023.65	213.08
>>>>>End Processed Spectral Data<<<<<
