SpectraSuite Data File
++++++++++++++++++++++++++++++++++++
Date: Tue Jan 29 16:16:11 EST 2013
User: group
Dark Spectrum Present: No
Reference Spectrum Present: No
Number of Sampled Component Spectra: 1
Spectrometers: USB2E7196
Integration Time (usec): 65000 (USB2E7196)
Spectra Averaged: 100 (USB2E7196)
Boxcar Smoothing: 10 (USB2E7196)
Correct for Electrical Dark: No (USB2E7196)
Strobe/Lamp Enabled: No (USB2E7196)
Correct for Detector Non-linearity: No (USB2E7196)
Correct for Stray Light: No (USB2E7196)
Number of Pixels in Processed Spectrum: 2048
>>>>>Begin Processed Spectral Data<<<<<
339.09	0.00
339.48	202.38
339.86	203.70
340.24	205.43
340.63	206.83
341.01	210.75
341.39	209.14
341.78	210.88
342.16	212.06
342.54	212.12
342.93	201.64
343.31	211.86
343.69	212.43
344.07	212.91
344.46	213.36
344.84	213.77
345.22	213.98
345.60	214.27
345.99	214.45
346.37	214.60
346.75	214.75
347.13	214.84
347.52	214.93
347.90	215.08
348.28	215.13
348.66	215.22
349.05	215.20
349.43	215.28
349.81	215.34
350.19	215.41
350.57	215.44
350.96	215.52
351.34	215.61
351.72	215.69
352.10	215.80
352.48	215.85
352.87	215.91
353.25	215.97
353.63	216.05
354.01	216.15
354.39	216.23
354.77	216.29
355.15	216.41
355.54	216.45
355.92	216.42
356.30	216.51
356.68	216.72
357.06	216.81
357.44	216.81
357.82	216.86
358.20	216.93
358.58	217.03
358.97	217.13
359.35	217.26
359.73	217.36
360.11	217.43
360.49	217.52
360.87	217.54
361.25	217.61
361.63	217.70
362.01	217.75
362.39	217.78
362.77	217.84
363.15	217.83
363.53	217.89
363.91	217.92
364.29	217.93
364.67	217.76
365.05	217.75
365.43	217.82
365.81	217.84
366.19	217.93
366.57	218.00
366.95	217.98
367.33	217.90
367.71	217.92
368.09	217.92
368.47	217.90
368.85	217.88
369.23	217.90
369.61	217.84
369.99	217.87
370.37	217.87
370.75	217.94
371.13	217.89
371.51	217.83
371.89	217.85
372.27	217.88
372.65	217.86
373.03	217.85
373.41	217.80
373.78	217.75
374.16	217.63
374.54	217.52
374.92	217.48
375.30	217.44
375.68	217.34
376.06	217.31
376.44	217.22
376.82	217.25
377.19	217.20
377.57	217.11
377.95	216.98
378.33	216.92
378.71	216.77
379.09	216.77
379.47	216.75
379.84	216.65
380.22	216.55
380.60	216.47
380.98	216.42
381.36	216.34
381.73	216.27
382.11	216.26
382.49	216.24
382.87	216.21
383.25	216.16
383.62	216.34
384.00	216.28
384.38	216.30
384.76	216.26
385.13	216.28
385.51	216.26
385.89	216.20
386.27	216.20
386.64	216.20
387.02	216.10
387.40	216.04
387.78	216.05
388.15	216.03
388.53	215.98
388.91	215.94
389.29	215.90
389.66	215.92
390.04	215.86
390.42	215.86
390.79	215.82
391.17	215.78
391.55	215.58
391.92	215.61
392.30	215.63
392.68	215.57
393.05	215.53
393.43	215.55
393.81	215.58
394.18	215.53
394.56	215.52
394.94	215.63
395.31	215.61
395.69	215.70
396.06	215.75
396.44	215.81
396.82	215.82
397.19	215.97
397.57	215.95
397.95	216.01
398.32	215.99
398.70	216.03
399.07	216.13
399.45	216.12
399.82	216.10
400.20	216.09
400.58	216.16
400.95	216.14
401.33	216.25
401.70	216.49
402.08	216.57
402.45	216.69
402.83	216.80
403.20	216.94
403.58	217.00
403.95	217.12
404.33	217.26
404.71	217.42
405.08	217.65
405.46	217.83
405.83	218.00
406.21	218.19
406.58	218.42
406.96	218.62
407.33	218.88
407.70	219.19
408.08	219.67
408.45	220.04
408.83	220.45
409.20	220.78
409.58	221.05
409.95	221.49
410.33	221.96
410.70	222.38
411.08	222.90
411.45	223.45
411.82	224.07
412.20	224.72
412.57	225.50
412.95	226.04
413.32	226.90
413.69	227.73
414.07	228.61
414.44	229.54
414.82	230.54
415.19	231.70
415.56	232.85
415.94	233.95
416.31	235.30
416.68	236.67
417.06	238.24
417.43	239.71
417.81	241.39
418.18	243.08
418.55	244.95
418.93	246.91
419.30	248.94
419.67	251.03
420.04	253.22
420.42	255.52
420.79	258.26
421.16	260.94
421.54	263.75
421.91	266.65
422.28	269.68
422.66	272.87
423.03	276.01
423.40	279.25
423.77	282.69
424.15	286.22
424.52	289.88
424.89	293.89
425.26	297.83
425.64	301.58
426.01	305.71
426.38	310.03
426.75	314.38
427.13	318.99
427.50	323.84
427.87	328.92
428.24	333.93
428.61	338.79
428.99	344.06
429.36	349.84
429.73	355.51
430.10	361.19
430.47	367.02
430.85	373.10
431.22	379.55
431.59	386.48
431.96	393.11
432.33	400.37
432.70	407.39
433.08	415.63
433.45	423.42
433.82	431.17
434.19	439.74
434.56	448.23
434.93	456.32
435.30	464.35
435.68	473.16
436.05	481.84
436.42	490.39
436.79	498.23
437.16	506.72
437.53	515.68
437.90	524.48
438.27	533.13
438.64	542.04
439.01	550.30
439.38	557.57
439.75	564.62
440.13	572.77
440.50	580.44
440.87	586.59
441.24	593.00
441.61	600.10
441.98	605.30
442.35	611.30
442.72	617.37
443.09	623.16
443.46	626.72
443.83	629.14
444.20	631.30
444.57	634.37
444.94	635.69
445.31	637.01
445.68	638.28
446.05	638.89
446.42	638.15
446.79	637.24
447.16	636.20
447.53	635.44
447.90	632.18
448.27	628.99
448.64	624.57
449.01	621.43
449.37	615.70
449.74	610.20
450.11	603.51
450.48	596.32
450.85	589.08
451.22	582.83
451.59	576.93
451.96	571.29
452.33	563.69
452.70	556.95
453.07	548.83
453.43	540.64
453.80	532.62
454.17	524.85
454.54	517.59
454.91	509.71
455.28	502.07
455.65	494.96
456.02	487.71
456.38	481.57
456.75	473.98
457.12	467.67
457.49	461.42
457.86	455.54
458.23	450.40
458.59	444.71
458.96	438.98
459.33	433.88
459.70	428.69
460.07	424.65
460.43	419.91
460.80	415.54
461.17	411.64
461.54	407.61
461.91	403.80
462.27	399.78
462.64	396.50
463.01	392.79
463.38	389.20
463.74	385.65
464.11	382.55
464.48	379.79
464.85	376.77
465.21	374.45
465.58	371.92
465.95	368.85
466.32	366.36
466.68	363.83
467.05	361.36
467.42	358.92
467.78	356.34
468.15	353.88
468.52	352.05
468.88	349.69
469.25	347.53
469.62	345.80
469.98	343.99
470.35	342.26
470.72	340.59
471.08	338.91
471.45	337.49
471.82	336.01
472.18	334.41
472.55	333.26
472.92	331.88
473.28	330.70
473.65	329.64
474.02	328.58
474.38	327.75
474.75	327.03
475.11	326.26
475.48	325.66
475.85	325.21
476.21	324.73
476.58	324.35
476.94	324.14
477.31	323.86
477.67	323.61
478.04	323.44
478.41	323.47
478.77	323.69
479.14	323.66
479.50	323.80
479.87	324.08
480.23	324.44
480.60	324.75
480.96	325.06
481.33	325.68
481.69	326.31
482.06	326.81
482.42	327.29
482.79	327.90
483.15	328.75
483.52	329.73
483.88	330.65
484.25	331.66
484.61	332.73
484.98	333.83
485.34	335.16
485.71	336.57
486.07	338.02
486.44	339.29
486.80	340.91
487.17	342.62
487.53	344.45
487.90	346.31
488.26	348.32
488.62	350.45
488.99	352.48
489.35	354.57
489.72	356.93
490.08	359.42
490.44	361.99
490.81	364.68
491.17	367.39
491.54	370.32
491.90	373.32
492.26	376.59
492.63	380.00
492.99	383.42
493.36	387.02
493.72	390.89
494.08	394.94
494.45	399.11
494.81	403.43
495.17	407.91
495.54	412.63
495.90	417.40
496.26	422.32
496.63	427.50
496.99	432.93
497.35	438.55
497.72	444.34
498.08	450.23
498.44	456.26
498.80	462.65
499.17	469.09
499.53	475.73
499.89	482.53
500.26	489.41
500.62	496.51
500.98	503.94
501.34	511.35
501.71	519.04
502.07	526.85
502.43	534.78
502.79	542.85
503.16	551.13
503.52	559.68
503.88	568.29
504.24	577.14
504.60	586.11
504.97	595.23
505.33	604.46
505.69	614.28
506.05	624.09
506.41	633.84
506.78	643.86
507.14	654.10
507.50	664.43
507.86	675.05
508.22	685.78
508.59	696.34
508.95	707.36
509.31	718.51
509.67	729.84
510.03	741.17
510.39	752.76
510.75	764.53
511.12	776.36
511.48	788.46
511.84	800.66
512.20	812.86
512.56	825.34
512.92	837.93
513.28	850.29
513.64	862.85
514.00	875.60
514.37	888.39
514.73	901.32
515.09	914.11
515.45	926.85
515.81	939.61
516.17	952.85
516.53	965.79
516.89	978.70
517.25	991.72
517.61	1005.03
517.97	1018.22
518.33	1031.11
518.69	1044.43
519.05	1057.77
519.41	1071.24
519.77	1084.91
520.13	1097.96
520.49	1110.98
520.85	1124.26
521.21	1137.43
521.57	1150.80
521.93	1163.64
522.29	1177.18
522.65	1190.66
523.01	1204.01
523.37	1217.01
523.73	1229.93
524.09	1242.98
524.45	1256.18
524.81	1269.43
525.17	1282.52
525.53	1295.46
525.89	1308.42
526.25	1321.13
526.61	1333.87
526.97	1346.64
527.33	1359.20
527.68	1372.44
528.04	1385.68
528.40	1398.43
528.76	1411.40
529.12	1423.93
529.48	1436.93
529.84	1448.68
530.20	1460.98
530.56	1473.27
530.91	1486.22
531.27	1498.77
531.63	1511.15
531.99	1523.50
532.35	1535.38
532.71	1547.38
533.07	1559.93
533.42	1571.98
533.78	1583.85
534.14	1595.53
534.50	1606.39
534.86	1617.60
535.21	1628.07
535.57	1639.08
535.93	1650.09
536.29	1660.90
536.65	1672.04
537.00	1682.71
537.36	1693.92
537.72	1704.79
538.08	1715.81
538.44	1726.47
538.79	1737.17
539.15	1747.66
539.51	1758.06
539.87	1769.11
540.22	1779.61
540.58	1790.04
540.94	1800.43
541.29	1810.37
541.65	1819.91
542.01	1830.21
542.37	1840.07
542.72	1850.04
543.08	1859.52
543.44	1869.71
543.79	1878.75
544.15	1887.96
544.51	1897.70
544.87	1907.18
545.22	1915.96
545.58	1924.58
545.94	1933.08
546.29	1941.38
546.65	1949.61
547.01	1957.59
547.36	1964.89
547.72	1972.42
548.07	1979.87
548.43	1987.43
548.79	1995.07
549.14	2002.92
549.50	2010.95
549.86	2018.50
550.21	2025.59
550.57	2033.01
550.92	2039.48
551.28	2046.78
551.64	2053.81
551.99	2060.88
552.35	2067.91
552.70	2074.53
553.06	2080.95
553.41	2086.98
553.77	2093.35
554.13	2099.41
554.48	2106.29
554.84	2113.26
555.19	2119.69
555.55	2126.09
555.90	2132.29
556.26	2138.85
556.61	2144.58
556.97	2149.34
557.32	2155.11
557.68	2161.35
558.03	2167.09
558.39	2172.28
558.74	2178.10
559.10	2183.59
559.45	2189.25
559.81	2194.59
560.16	2200.04
560.52	2205.97
560.87	2212.46
561.23	2218.41
561.58	2225.17
561.94	2230.20
562.29	2234.83
562.64	2240.88
563.00	2246.29
563.35	2251.88
563.71	2257.79
564.06	2263.65
564.42	2269.59
564.77	2274.60
565.12	2279.83
565.48	2284.99
565.83	2290.53
566.19	2295.99
566.54	2301.39
566.89	2305.91
567.25	2310.52
567.60	2316.37
567.96	2321.44
568.31	2325.88
568.66	2330.02
569.02	2333.78
569.37	2337.63
569.72	2342.14
570.08	2345.76
570.43	2349.00
570.78	2352.23
571.14	2354.78
571.49	2357.79
571.84	2361.34
572.20	2364.28
572.55	2367.36
572.90	2369.58
573.26	2372.47
573.61	2374.95
573.96	2377.12
574.31	2379.31
574.67	2381.49
575.02	2382.39
575.37	2383.92
575.72	2384.91
576.08	2386.62
576.43	2387.06
576.78	2387.87
577.13	2389.65
577.49	2390.78
577.84	2392.14
578.19	2393.48
578.54	2394.26
578.90	2395.32
579.25	2395.29
579.60	2395.52
579.95	2395.00
580.30	2395.37
580.66	2395.08
581.01	2393.63
581.36	2391.65
581.71	2390.30
582.06	2389.46
582.42	2388.75
582.77	2386.90
583.12	2385.31
583.47	2384.05
583.82	2383.47
584.17	2382.37
584.53	2380.31
584.88	2378.45
585.23	2376.51
585.58	2374.41
585.93	2372.47
586.28	2370.40
586.63	2368.24
586.98	2366.23
587.34	2364.39
587.69	2362.32
588.04	2360.37
588.39	2359.13
588.74	2356.61
589.09	2354.32
589.44	2351.16
589.79	2348.81
590.14	2347.07
590.49	2344.46
590.84	2340.97
591.19	2338.16
591.54	2334.80
591.89	2330.92
592.25	2327.68
592.60	2323.72
592.95	2319.82
593.30	2315.74
593.65	2311.46
594.00	2307.23
594.35	2304.25
594.70	2299.81
595.05	2295.23
595.40	2289.58
595.75	2284.11
596.10	2280.62
596.45	2275.72
596.80	2271.24
597.15	2266.18
597.50	2260.29
597.85	2255.43
598.19	2250.08
598.54	2244.42
598.89	2239.58
599.24	2235.05
599.59	2229.11
599.94	2223.59
600.29	2217.74
600.64	2211.98
600.99	2205.40
601.34	2200.16
601.69	2193.15
602.04	2186.86
602.39	2180.32
602.74	2174.56
603.08	2169.10
603.43	2162.66
603.78	2155.93
604.13	2148.88
604.48	2141.73
604.83	2135.64
605.18	2129.53
605.53	2122.66
605.87	2115.69
606.22	2108.98
606.57	2101.30
606.92	2093.52
607.27	2086.65
607.62	2080.04
607.96	2073.10
608.31	2066.65
608.66	2058.84
609.01	2051.38
609.36	2044.42
609.70	2036.85
610.05	2029.29
610.40	2021.18
610.75	2013.09
611.10	2005.62
611.44	1997.04
611.79	1988.55
612.14	1978.71
612.49	1968.21
612.83	1959.12
613.18	1950.08
613.53	1940.90
613.88	1931.38
614.22	1922.94
614.57	1912.83
614.92	1902.38
615.27	1892.36
615.61	1882.38
615.96	1872.75
616.31	1863.38
616.65	1854.01
617.00	1844.25
617.35	1834.42
617.70	1824.61
618.04	1814.52
618.39	1804.24
618.74	1794.56
619.08	1784.76
619.43	1776.01
619.78	1767.88
620.12	1759.15
620.47	1749.46
620.82	1739.18
621.16	1729.43
621.51	1719.50
621.85	1709.81
622.20	1699.52
622.55	1688.98
622.89	1679.19
623.24	1669.58
623.59	1659.70
623.93	1649.61
624.28	1639.93
624.62	1630.02
624.97	1619.67
625.32	1609.99
625.66	1601.37
626.01	1592.58
626.35	1583.34
626.70	1573.38
627.04	1563.29
627.39	1553.37
627.73	1544.06
628.08	1535.06
628.43	1525.51
628.77	1516.35
629.12	1507.71
629.46	1499.73
629.81	1491.32
630.15	1481.77
630.50	1471.91
630.84	1461.73
631.19	1451.80
631.53	1442.43
631.88	1432.31
632.22	1422.44
632.57	1413.13
632.91	1402.81
633.26	1392.96
633.60	1383.40
633.95	1374.09
634.29	1364.61
634.64	1355.29
634.98	1345.44
635.32	1336.09
635.67	1327.56
636.01	1318.24
636.36	1308.38
636.70	1299.06
637.05	1289.81
637.39	1280.95
637.73	1272.38
638.08	1264.72
638.42	1256.58
638.77	1247.90
639.11	1239.72
639.45	1231.87
639.80	1223.21
640.14	1214.69
640.49	1205.97
640.83	1197.22
641.17	1189.21
641.52	1181.07
641.86	1172.54
642.20	1164.72
642.55	1156.23
642.89	1147.44
643.23	1138.84
643.58	1130.86
643.92	1121.83
644.26	1113.24
644.61	1104.85
644.95	1096.21
645.29	1087.00
645.64	1077.97
645.98	1069.56
646.32	1061.69
646.66	1053.22
647.01	1044.99
647.35	1036.87
647.69	1028.56
648.04	1020.27
648.38	1011.36
648.72	1002.71
649.06	994.35
649.41	986.27
649.75	978.36
650.09	970.61
650.43	962.66
650.78	954.43
651.12	946.83
651.46	939.34
651.80	932.09
652.14	924.82
652.49	917.39
652.83	910.07
653.17	902.51
653.51	894.90
653.85	887.77
654.20	880.60
654.54	873.03
654.88	865.91
655.22	858.77
655.56	851.92
655.90	845.17
656.25	838.54
656.59	831.55
656.93	824.64
657.27	817.54
657.61	810.72
657.95	804.67
658.29	798.80
658.64	792.79
658.98	786.34
659.32	779.84
659.66	773.60
660.00	767.30
660.34	761.26
660.68	755.21
661.02	748.92
661.36	743.14
661.70	737.51
662.05	731.89
662.39	726.52
662.73	721.20
663.07	715.84
663.41	710.34
663.75	704.75
664.09	699.17
664.43	693.86
664.77	688.54
665.11	682.81
665.45	676.99
665.79	671.30
666.13	665.78
666.47	660.35
666.81	655.08
667.15	649.86
667.49	644.73
667.83	639.57
668.17	634.50
668.51	629.39
668.85	624.60
669.19	619.82
669.53	614.92
669.87	609.89
670.21	605.21
670.55	600.55
670.89	596.29
671.23	592.09
671.57	587.81
671.91	583.60
672.25	579.57
672.58	575.50
672.92	571.56
673.26	567.72
673.60	563.98
673.94	560.21
674.28	556.64
674.62	552.93
674.96	549.27
675.30	545.86
675.64	542.35
675.97	538.80
676.31	535.33
676.65	531.83
676.99	528.44
677.33	524.76
677.67	521.19
678.01	517.34
678.34	513.74
678.68	510.23
679.02	506.67
679.36	502.99
679.70	499.43
680.04	495.92
680.37	492.48
680.71	489.27
681.05	486.19
681.39	482.97
681.73	479.93
682.06	476.90
682.40	473.82
682.74	470.66
683.08	467.51
683.42	464.27
683.75	461.30
684.09	458.34
684.43	455.54
684.77	452.59
685.10	449.81
685.44	446.98
685.78	444.12
686.12	441.42
686.45	438.75
686.79	436.13
687.13	433.65
687.46	431.11
687.80	428.41
688.14	425.57
688.48	423.00
688.81	420.36
689.15	417.89
689.49	415.31
689.82	412.75
690.16	410.19
690.50	407.80
690.83	405.30
691.17	402.80
691.51	400.40
691.84	398.26
692.18	396.15
692.52	393.98
692.85	391.91
693.19	389.84
693.52	387.75
693.86	385.59
694.20	383.46
694.53	381.35
694.87	379.22
695.21	377.15
695.54	375.09
695.88	372.98
696.21	370.78
696.55	368.72
696.88	366.77
697.22	364.88
697.56	363.02
697.89	361.20
698.23	359.50
698.56	357.72
698.90	355.98
699.23	354.03
699.57	352.16
699.90	350.35
700.24	348.57
700.58	346.81
700.91	345.19
701.25	343.68
701.58	342.13
701.92	340.60
702.25	339.04
702.59	337.44
702.92	335.92
703.26	334.46
703.59	333.01
703.93	331.78
704.26	330.34
704.60	328.91
704.93	327.47
705.26	326.04
705.60	324.63
705.93	323.19
706.27	321.97
706.60	320.80
706.94	319.57
707.27	318.20
707.61	316.90
707.94	315.58
708.27	314.05
708.61	312.60
708.94	311.26
709.28	310.05
709.61	308.89
709.94	307.72
710.28	306.50
710.61	305.36
710.95	303.95
711.28	302.93
711.61	301.79
711.95	300.70
712.28	299.52
712.61	298.38
712.95	297.32
713.28	296.30
713.61	295.11
713.95	293.99
714.28	293.04
714.61	292.02
714.95	291.08
715.28	290.12
715.61	289.13
715.95	288.20
716.28	287.25
716.61	286.25
716.95	285.28
717.28	284.41
717.61	283.47
717.94	282.60
718.28	281.58
718.61	280.70
718.94	279.85
719.27	279.02
719.61	278.24
719.94	277.40
720.27	276.47
720.60	275.69
720.94	274.94
721.27	274.20
721.60	273.57
721.93	272.82
722.27	272.19
722.60	271.60
722.93	270.91
723.26	270.22
723.59	269.57
723.93	269.01
724.26	268.37
724.59	267.72
724.92	267.18
725.25	266.71
725.59	266.18
725.92	265.62
726.25	265.09
726.58	264.50
726.91	263.95
727.24	263.45
727.57	262.90
727.91	262.30
728.24	261.76
728.57	261.15
728.90	260.64
729.23	260.05
729.56	259.58
729.89	259.06
730.22	258.54
730.55	258.03
730.89	257.50
731.22	256.99
731.55	256.48
731.88	255.95
732.21	255.38
732.54	254.80
732.87	254.34
733.20	253.87
733.53	253.43
733.86	252.99
734.19	252.52
734.52	252.10
734.85	251.84
735.18	251.37
735.51	251.03
735.84	250.59
736.17	250.26
736.50	249.77
736.83	249.63
737.16	249.30
737.49	248.93
737.82	248.54
738.15	248.22
738.48	247.88
738.81	247.51
739.14	247.13
739.47	246.80
739.80	246.43
740.13	246.12
740.46	245.74
740.79	245.37
741.12	245.00
741.45	244.66
741.78	244.24
742.11	243.97
742.44	243.59
742.77	243.30
743.10	242.96
743.43	242.60
743.75	242.04
744.08	241.92
744.41	241.56
744.74	241.23
745.07	240.83
745.40	240.54
745.73	240.33
746.06	239.99
746.39	239.67
746.71	239.37
747.04	239.00
747.37	238.68
747.70	238.39
748.03	238.12
748.36	237.87
748.68	237.54
749.01	237.22
749.34	236.95
749.67	236.63
750.00	236.36
750.33	236.24
750.65	235.98
750.98	235.49
751.31	235.26
751.64	235.03
751.97	234.93
752.29	234.66
752.62	234.32
752.95	234.10
753.28	233.84
753.60	233.58
753.93	233.40
754.26	233.21
754.59	232.95
754.91	232.72
755.24	232.50
755.57	232.24
755.90	231.99
756.22	231.77
756.55	231.55
756.88	231.29
757.20	230.93
757.53	230.67
757.86	230.48
758.19	230.28
758.51	230.08
758.84	229.76
759.17	229.56
759.49	229.39
759.82	229.30
760.15	229.19
760.47	229.00
760.80	228.72
761.13	228.55
761.45	228.35
761.78	228.19
762.11	228.01
762.43	227.86
762.76	227.70
763.08	227.54
763.41	227.40
763.74	227.30
764.06	227.14
764.39	227.03
764.71	226.86
765.04	226.76
765.37	226.59
765.69	226.46
766.02	226.30
766.34	226.15
766.67	225.94
767.00	225.85
767.32	225.86
767.65	225.92
767.97	225.77
768.30	225.69
768.62	225.52
768.95	225.36
769.27	225.26
769.60	225.19
769.92	225.03
770.25	224.90
770.57	224.72
770.90	224.65
771.22	224.51
771.55	224.42
771.87	224.28
772.20	224.18
772.52	224.25
772.85	224.42
773.17	224.37
773.50	224.24
773.82	224.10
774.15	223.85
774.47	223.63
774.80	223.50
775.12	223.40
775.45	223.31
775.77	223.25
776.09	223.20
776.42	223.11
776.74	223.10
777.07	222.98
777.39	222.95
777.72	222.84
778.04	222.79
778.36	222.69
778.69	222.64
779.01	222.56
779.33	222.32
779.66	222.00
779.98	221.86
780.31	221.81
780.63	221.80
780.95	221.79
781.28	221.71
781.60	221.64
781.92	221.55
782.25	221.49
782.57	221.41
782.89	221.26
783.22	221.15
783.54	221.03
783.86	221.00
784.19	220.89
784.51	220.90
784.83	220.80
785.16	220.75
785.48	220.67
785.80	220.60
786.12	220.52
786.45	220.47
786.77	220.42
787.09	220.34
787.42	220.21
787.74	220.13
788.06	220.09
788.38	220.04
788.71	219.96
789.03	219.91
789.35	219.88
789.67	219.86
789.99	219.82
790.32	219.77
790.64	219.75
790.96	219.88
791.28	219.75
791.61	219.68
791.93	219.63
792.25	219.56
792.57	219.67
792.89	219.63
793.21	219.59
793.54	219.56
793.86	219.49
794.18	219.45
794.50	219.38
794.82	219.34
795.14	219.31
795.47	219.31
795.79	219.24
796.11	219.17
796.43	219.09
796.75	219.04
797.07	219.00
797.39	218.94
797.71	218.77
798.04	218.76
798.36	218.77
798.68	218.73
799.00	218.69
799.32	218.53
799.64	218.51
799.96	218.46
800.28	218.46
800.60	218.43
800.92	218.39
801.24	218.36
801.56	218.32
801.89	218.27
802.21	218.25
802.53	218.21
802.85	218.22
803.17	218.31
803.49	218.27
803.81	218.25
804.13	218.23
804.45	218.14
804.77	218.11
805.09	218.08
805.41	218.02
805.73	217.98
806.05	217.93
806.37	217.91
806.69	217.86
807.01	217.80
807.33	217.79
807.65	217.71
807.97	217.79
808.28	217.76
808.60	217.76
808.92	217.72
809.24	217.82
809.56	217.77
809.88	217.69
810.20	217.65
810.52	217.65
810.84	217.56
811.16	217.51
811.48	217.46
811.80	217.48
812.12	217.45
812.43	217.46
812.75	217.45
813.07	217.41
813.39	217.38
813.71	217.33
814.03	217.30
814.35	217.28
814.67	217.17
814.98	217.10
815.30	217.05
815.62	216.97
815.94	216.81
816.26	216.80
816.58	216.71
816.89	216.73
817.21	216.65
817.53	216.67
817.85	216.65
818.17	216.61
818.48	216.51
818.80	216.54
819.12	216.49
819.44	216.45
819.76	216.41
820.07	216.42
820.39	216.40
820.71	216.38
821.03	216.37
821.34	216.36
821.66	216.41
821.98	216.45
822.30	216.44
822.61	216.57
822.93	216.53
823.25	216.52
823.57	216.48
823.88	216.54
824.20	216.50
824.52	216.55
824.83	216.53
825.15	216.51
825.47	216.46
825.79	216.47
826.10	216.43
826.42	216.42
826.74	216.39
827.05	216.37
827.37	216.36
827.69	216.36
828.00	216.31
828.32	216.29
828.64	216.20
828.95	216.29
829.27	216.21
829.58	216.20
829.90	216.23
830.22	216.24
830.53	216.13
830.85	216.09
831.17	216.03
831.48	216.04
831.80	216.03
832.11	216.03
832.43	215.98
832.75	215.96
833.06	216.05
833.38	215.99
833.69	215.98
834.01	215.98
834.32	215.94
834.64	215.96
834.96	215.94
835.27	215.94
835.59	215.88
835.90	215.81
836.22	215.81
836.53	215.74
836.85	215.72
837.16	215.91
837.48	215.89
837.79	215.94
838.11	215.91
838.42	215.91
838.74	215.92
839.05	215.91
839.37	215.92
839.68	215.78
840.00	215.79
840.31	215.83
840.63	215.81
840.94	215.78
841.26	215.75
841.57	215.76
841.88	215.79
842.20	215.77
842.51	215.74
842.83	215.71
843.14	215.92
843.46	215.92
843.77	215.87
844.08	215.87
844.40	215.84
844.71	215.80
845.03	215.79
845.34	215.78
845.65	215.74
845.97	215.73
846.28	215.74
846.60	215.73
846.91	215.66
847.22	215.66
847.54	215.69
847.85	215.69
848.16	215.63
848.48	215.59
848.79	215.63
849.10	215.67
849.42	215.70
849.73	215.48
850.04	215.43
850.36	215.35
850.67	215.39
850.98	215.36
851.30	215.39
851.61	215.36
851.92	215.37
852.23	215.46
852.55	215.48
852.86	215.49
853.17	215.52
853.49	215.59
853.80	215.65
854.11	215.67
854.42	215.69
854.74	215.68
855.05	215.66
855.36	215.61
855.67	215.59
855.99	215.59
856.30	215.85
856.61	215.86
856.92	215.84
857.23	215.80
857.55	215.78
857.86	215.80
858.17	215.84
858.48	215.77
858.79	215.72
859.11	215.76
859.42	215.74
859.73	215.71
860.04	215.69
860.35	215.60
860.66	215.54
860.98	215.53
861.29	215.55
861.60	215.56
861.91	215.55
862.22	215.52
862.53	215.47
862.84	215.18
863.16	215.22
863.47	215.17
863.78	215.17
864.09	215.19
864.40	215.18
864.71	215.18
865.02	215.22
865.33	215.20
865.64	215.10
865.95	215.10
866.27	215.27
866.58	215.23
866.89	215.25
867.20	215.25
867.51	215.20
867.82	215.16
868.13	215.20
868.44	215.18
868.75	215.21
869.06	215.24
869.37	215.28
869.68	215.21
869.99	215.26
870.30	215.26
870.61	215.26
870.92	215.27
871.23	215.25
871.54	215.27
871.85	215.29
872.16	215.33
872.47	215.34
872.78	215.18
873.09	215.17
873.40	215.17
873.71	215.19
874.02	215.22
874.33	215.21
874.64	215.16
874.95	215.22
875.26	215.18
875.56	215.14
875.87	215.13
876.18	215.14
876.49	215.35
876.80	215.34
877.11	215.33
877.42	215.30
877.73	215.30
878.04	215.25
878.35	215.25
878.66	215.25
878.96	215.20
879.27	215.22
879.58	215.21
879.89	215.20
880.20	215.23
880.51	215.19
880.82	215.20
881.12	215.25
881.43	215.19
881.74	215.18
882.05	215.20
882.36	215.22
882.67	215.26
882.97	215.04
883.28	215.04
883.59	215.03
883.90	215.04
884.21	215.08
884.51	215.08
884.82	215.02
885.13	215.04
885.44	215.05
885.74	215.03
886.05	215.04
886.36	215.05
886.67	214.98
886.98	215.10
887.28	215.14
887.59	215.10
887.90	215.10
888.20	215.10
888.51	215.13
888.82	215.10
889.13	215.10
889.43	215.24
889.74	215.24
890.05	215.24
890.35	215.23
890.66	215.19
890.97	215.21
891.28	215.25
891.58	215.23
891.89	215.24
892.20	215.25
892.50	215.23
892.81	215.22
893.12	215.26
893.42	215.16
893.73	215.17
894.04	215.16
894.34	215.20
894.65	215.21
894.95	215.17
895.26	215.18
895.57	215.25
895.87	215.07
896.18	215.10
896.48	215.09
896.79	215.07
897.10	215.08
897.40	215.06
897.71	215.08
898.01	215.07
898.32	215.10
898.63	215.06
898.93	215.08
899.24	215.07
899.54	215.04
899.85	215.03
900.15	215.00
900.46	214.98
900.76	214.95
901.07	214.95
901.38	214.96
901.68	214.97
901.99	214.87
902.29	214.88
902.60	214.83
902.90	214.80
903.21	214.83
903.51	214.84
903.82	214.88
904.12	214.85
904.43	214.86
904.73	214.86
905.03	214.88
905.34	215.08
905.64	215.06
905.95	215.04
906.25	215.05
906.56	215.05
906.86	215.07
907.17	215.04
907.47	215.02
907.77	214.99
908.08	214.97
908.38	214.96
908.69	214.99
908.99	215.05
909.30	215.08
909.60	215.06
909.90	215.04
910.21	215.00
910.51	214.97
910.81	214.93
911.12	214.90
911.42	214.88
911.73	214.66
912.03	214.68
912.33	214.74
912.64	214.71
912.94	214.72
913.24	214.70
913.55	214.69
913.85	214.70
914.15	214.73
914.46	214.73
914.76	214.73
915.06	214.73
915.37	214.71
915.67	214.71
915.97	214.71
916.27	214.66
916.58	214.66
916.88	214.63
917.18	214.67
917.49	214.78
917.79	214.80
918.09	214.84
918.39	214.88
918.70	214.86
919.00	214.88
919.30	214.98
919.60	214.97
919.91	214.98
920.21	214.97
920.51	214.96
920.81	214.95
921.12	214.99
921.42	214.98
921.72	214.97
922.02	214.95
922.32	214.96
922.63	214.98
922.93	215.07
923.23	215.14
923.53	215.10
923.83	215.01
924.13	215.04
924.44	215.03
924.74	215.06
925.04	215.11
925.34	215.07
925.64	214.97
925.94	214.98
926.24	215.11
926.55	215.09
926.85	215.09
927.15	215.08
927.45	215.07
927.75	215.07
928.05	215.11
928.35	215.10
928.65	215.15
928.95	215.16
929.26	215.09
929.56	215.10
929.86	215.12
930.16	215.08
930.46	215.03
930.76	215.03
931.06	214.95
931.36	214.90
931.66	214.95
931.96	214.96
932.26	214.99
932.56	214.89
932.86	214.93
933.16	214.97
933.46	214.95
933.76	214.93
934.06	214.97
934.36	215.02
934.66	215.02
934.96	214.99
935.26	215.02
935.56	215.04
935.86	214.96
936.16	214.96
936.46	214.93
936.76	214.94
937.06	214.89
937.36	214.90
937.66	214.89
937.96	214.90
938.26	214.87
938.56	214.83
938.86	214.82
939.16	214.85
939.46	214.86
939.76	214.91
940.06	214.91
940.35	214.85
940.65	214.72
940.95	214.70
941.25	214.65
941.55	214.64
941.85	214.64
942.15	214.72
942.45	214.77
942.75	214.80
943.04	214.80
943.34	214.86
943.64	214.84
943.94	214.79
944.24	214.76
944.54	214.77
944.84	214.77
945.13	214.76
945.43	214.73
945.73	214.70
946.03	214.64
946.33	214.63
946.62	214.65
946.92	214.66
947.22	214.67
947.52	214.68
947.82	214.71
948.11	214.67
948.41	214.63
948.71	214.57
949.01	214.58
949.31	214.56
949.60	214.53
949.90	214.59
950.20	214.61
950.50	214.61
950.79	214.57
951.09	214.61
951.39	214.59
951.69	214.53
951.98	214.56
952.28	214.58
952.58	214.57
952.87	214.57
953.17	214.60
953.47	214.57
953.76	214.55
954.06	214.51
954.36	214.50
954.66	214.48
954.95	214.50
955.25	214.53
955.55	214.57
955.84	214.55
956.14	214.55
956.44	214.54
956.73	214.50
957.03	214.55
957.32	214.53
957.62	214.55
957.92	214.63
958.21	214.63
958.51	214.90
958.81	214.89
959.10	214.90
959.40	214.96
959.69	214.99
959.99	215.02
960.29	215.04
960.58	215.05
960.88	215.14
961.17	215.12
961.47	215.12
961.76	215.07
962.06	215.10
962.36	215.08
962.65	215.09
962.95	215.13
963.24	215.11
963.54	215.12
963.83	215.14
964.13	215.12
964.42	215.07
964.72	214.86
965.01	214.90
965.31	214.87
965.60	214.80
965.90	214.91
966.19	214.88
966.49	214.88
966.78	214.88
967.08	214.86
967.37	214.89
967.67	214.84
967.96	214.89
968.26	214.89
968.55	214.92
968.85	214.92
969.14	214.93
969.43	214.91
969.73	214.89
970.02	214.86
970.32	214.85
970.61	214.84
970.91	214.78
971.20	214.75
971.49	214.75
971.79	214.79
972.08	214.65
972.38	214.66
972.67	214.65
972.96	214.67
973.26	214.62
973.55	214.66
973.85	214.63
974.14	214.62
974.43	214.62
974.73	214.58
975.02	214.57
975.31	214.57
975.61	214.61
975.90	214.57
976.19	214.54
976.49	214.57
976.78	214.62
977.07	214.61
977.37	214.61
977.66	214.60
977.95	214.57
978.24	214.58
978.54	214.64
978.83	214.59
979.12	214.57
979.42	214.57
979.71	214.53
980.00	214.56
980.29	214.54
980.59	214.51
980.88	214.54
981.17	214.54
981.46	214.56
981.76	214.55
982.05	214.61
982.34	214.66
982.63	214.66
982.93	214.65
983.22	214.72
983.51	214.74
983.80	214.76
984.09	214.79
984.39	214.79
984.68	214.78
984.97	214.81
985.26	214.79
985.55	214.81
985.85	214.76
986.14	214.78
986.43	214.84
986.72	214.85
987.01	214.79
987.30	214.78
987.59	214.74
987.89	214.74
988.18	214.71
988.47	214.68
988.76	214.64
989.05	214.62
989.34	214.56
989.63	214.61
989.92	214.63
990.22	214.54
990.51	214.54
990.80	214.51
991.09	214.56
991.38	214.61
991.67	214.58
991.96	214.60
992.25	214.60
992.54	214.53
992.83	214.54
993.12	214.54
993.41	214.57
993.70	214.63
993.99	214.64
994.28	214.65
994.58	214.67
994.87	214.65
995.16	214.68
995.45	214.69
995.74	214.65
996.03	214.64
996.32	214.71
996.61	214.74
996.90	214.74
997.19	214.67
997.48	214.67
997.77	214.67
998.06	214.66
998.34	214.64
998.63	214.64
998.92	214.61
999.21	214.65
999.50	214.67
999.79	214.65
1000.08	214.67
1000.37	214.67
1000.66	214.64
1000.95	214.70
1001.24	214.67
1001.53	214.69
1001.82	214.66
1002.11	214.64
1002.40	214.67
1002.68	214.73
1002.97	214.89
1003.26	214.87
1003.55	214.84
1003.84	214.85
1004.13	214.93
1004.42	214.92
1004.71	214.94
1004.99	214.94
1005.28	214.97
1005.57	214.92
1005.86	214.88
1006.15	214.85
1006.44	214.84
1006.72	214.87
1007.01	214.84
1007.30	214.83
1007.59	214.80
1007.88	214.82
1008.17	214.84
1008.45	214.77
1008.74	214.66
1009.03	214.55
1009.32	214.56
1009.60	214.56
1009.89	214.54
1010.18	214.46
1010.47	214.45
1010.76	214.44
1011.04	214.42
1011.33	214.48
1011.62	214.51
1011.91	214.52
1012.19	214.54
1012.48	214.55
1012.77	214.53
1013.05	214.61
1013.34	214.62
1013.63	214.60
1013.92	214.58
1014.20	214.54
1014.49	214.55
1014.78	214.59
1015.06	214.52
1015.35	214.52
1015.64	214.52
1015.92	214.56
1016.21	214.57
1016.50	214.60
1016.78	214.62
1017.07	214.66
1017.36	214.57
1017.64	214.52
1017.93	214.51
1018.22	214.50
1018.50	214.48
1018.79	214.50
1019.08	214.38
1019.36	214.40
1019.65	214.38
1019.93	214.46
1020.22	214.49
1020.51	214.59
1020.79	214.55
1021.08	214.49
1021.36	214.07
1021.65	214.87
1021.94	213.84
1022.22	214.43
1022.51	214.13
1022.79	215.64
1023.08	214.64
1023.36	217.01
1023.65	213.60
>>>>>End Processed Spectral Data<<<<<
