SpectraSuite Data File
++++++++++++++++++++++++++++++++++++
Date: Tue Jan 29 15:56:37 EST 2013
User: group
Dark Spectrum Present: No
Reference Spectrum Present: No
Number of Sampled Component Spectra: 1
Spectrometers: USB2E7196
Integration Time (usec): 65000 (USB2E7196)
Spectra Averaged: 100 (USB2E7196)
Boxcar Smoothing: 10 (USB2E7196)
Correct for Electrical Dark: No (USB2E7196)
Strobe/Lamp Enabled: No (USB2E7196)
Correct for Detector Non-linearity: No (USB2E7196)
Correct for Stray Light: No (USB2E7196)
Number of Pixels in Processed Spectrum: 2048
>>>>>Begin Processed Spectral Data<<<<<
339.09	0.00
339.48	202.38
339.86	204.04
340.24	205.48
340.63	206.53
341.01	210.71
341.39	209.63
341.78	211.23
342.16	212.26
342.54	213.06
342.93	201.86
343.31	212.07
343.69	212.64
344.07	213.12
344.46	213.60
344.84	214.05
345.22	214.27
345.60	214.56
345.99	214.76
346.37	214.91
346.75	215.02
347.13	215.15
347.52	215.26
347.90	215.40
348.28	215.46
348.66	215.53
349.05	215.54
349.43	215.62
349.81	215.68
350.19	215.73
350.57	215.83
350.96	215.96
351.34	216.06
351.72	216.16
352.10	216.30
352.48	216.34
352.87	216.40
353.25	216.47
353.63	216.53
354.01	216.62
354.39	216.71
354.77	216.79
355.15	216.93
355.54	216.96
355.92	216.95
356.30	217.05
356.68	217.27
357.06	217.33
357.44	217.36
357.82	217.42
358.20	217.49
358.58	217.58
358.97	217.63
359.35	217.74
359.73	217.84
360.11	217.87
360.49	217.94
360.87	218.00
361.25	218.10
361.63	218.21
362.01	218.24
362.39	218.27
362.77	218.34
363.15	218.30
363.53	218.35
363.91	218.38
364.29	218.40
364.67	218.23
365.05	218.24
365.43	218.29
365.81	218.31
366.19	218.40
366.57	218.49
366.95	218.50
367.33	218.43
367.71	218.44
368.09	218.49
368.47	218.50
368.85	218.43
369.23	218.43
369.61	218.35
369.99	218.42
370.37	218.43
370.75	218.47
371.13	218.48
371.51	218.45
371.89	218.43
372.27	218.39
372.65	218.34
373.03	218.33
373.41	218.29
373.78	218.25
374.16	218.12
374.54	217.96
374.92	217.89
375.30	217.90
375.68	217.80
376.06	217.76
376.44	217.69
376.82	217.67
377.19	217.60
377.57	217.54
377.95	217.39
378.33	217.31
378.71	217.13
379.09	217.11
379.47	217.09
379.84	217.02
380.22	216.96
380.60	216.89
380.98	216.82
381.36	216.76
381.73	216.69
382.11	216.70
382.49	216.67
382.87	216.61
383.25	216.52
383.62	216.73
384.00	216.64
384.38	216.57
384.76	216.59
385.13	216.66
385.51	216.64
385.89	216.59
386.27	216.59
386.64	216.63
387.02	216.55
387.40	216.49
387.78	216.49
388.15	216.44
388.53	216.42
388.91	216.41
389.29	216.35
389.66	216.39
390.04	216.33
390.42	216.33
390.79	216.33
391.17	216.29
391.55	216.05
391.92	216.07
392.30	216.12
392.68	216.08
393.05	216.01
393.43	216.00
393.81	216.04
394.18	216.01
394.56	216.03
394.94	216.09
395.31	216.08
395.69	216.15
396.06	216.25
396.44	216.30
396.82	216.31
397.19	216.46
397.57	216.43
397.95	216.48
398.32	216.46
398.70	216.51
399.07	216.63
399.45	216.69
399.82	216.71
400.20	216.74
400.58	216.79
400.95	216.80
401.33	216.93
401.70	217.13
402.08	217.21
402.45	217.29
402.83	217.40
403.20	217.52
403.58	217.58
403.95	217.70
404.33	217.86
404.71	218.02
405.08	218.25
405.46	218.42
405.83	218.61
406.21	218.82
406.58	219.07
406.96	219.27
407.33	219.50
407.70	219.79
408.08	220.21
408.45	220.55
408.83	220.94
409.20	221.24
409.58	221.50
409.95	221.95
410.33	222.40
410.70	222.81
411.08	223.33
411.45	223.87
411.82	224.41
412.20	225.04
412.57	225.84
412.95	226.37
413.32	227.13
413.69	227.92
414.07	228.74
414.44	229.68
414.82	230.68
415.19	231.82
415.56	232.96
415.94	234.07
416.31	235.44
416.68	236.77
417.06	238.27
417.43	239.74
417.81	241.37
418.18	243.09
418.55	244.94
418.93	246.89
419.30	248.91
419.67	251.04
420.04	253.22
420.42	255.50
420.79	258.25
421.16	260.96
421.54	263.76
421.91	266.67
422.28	269.65
422.66	272.77
423.03	275.88
423.40	279.09
423.77	282.56
424.15	286.06
424.52	289.74
424.89	293.81
425.26	297.74
425.64	301.50
426.01	305.61
426.38	309.94
426.75	314.33
427.13	318.87
427.50	323.65
427.87	328.69
428.24	333.66
428.61	338.44
428.99	343.73
429.36	349.50
429.73	355.14
430.10	360.80
430.47	366.62
430.85	372.69
431.22	379.13
431.59	385.97
431.96	392.53
432.33	399.79
432.70	406.74
433.08	414.89
433.45	422.66
433.82	430.35
434.19	438.89
434.56	447.21
434.93	455.26
435.30	463.28
435.68	471.98
436.05	480.60
436.42	489.14
436.79	496.98
437.16	505.35
437.53	514.27
437.90	522.98
438.27	531.62
438.64	540.51
439.01	548.76
439.38	556.08
439.75	563.14
440.13	571.24
440.50	578.89
440.87	585.02
441.24	591.41
441.61	598.44
441.98	603.52
442.35	609.58
442.72	615.56
443.09	621.27
443.46	624.82
443.83	627.20
444.20	629.33
444.57	632.31
444.94	633.65
445.31	634.97
445.68	636.31
446.05	636.83
446.42	635.93
446.79	634.88
447.16	633.74
447.53	632.96
447.90	629.61
448.27	626.35
448.64	621.87
449.01	618.57
449.37	612.88
449.74	607.44
450.11	600.83
450.48	593.77
450.85	586.59
451.22	580.39
451.59	574.52
451.96	568.89
452.33	561.38
452.70	554.60
453.07	546.55
453.43	538.31
453.80	530.39
454.17	522.81
454.54	515.59
454.91	507.83
455.28	500.23
455.65	493.17
456.02	486.08
456.38	480.11
456.75	472.64
457.12	466.38
457.49	460.14
457.86	454.24
458.23	449.12
458.59	443.52
458.96	437.79
459.33	432.75
459.70	427.61
460.07	423.58
460.43	418.93
460.80	414.54
461.17	410.77
461.54	406.75
461.91	402.88
462.27	399.01
462.64	395.72
463.01	392.03
463.38	388.49
463.74	384.90
464.11	381.78
464.48	379.09
464.85	376.09
465.21	373.80
465.58	371.28
465.95	368.25
466.32	365.74
466.68	363.26
467.05	360.78
467.42	358.33
467.78	355.71
468.15	353.25
468.52	351.43
468.88	349.01
469.25	346.91
469.62	345.23
469.98	343.39
470.35	341.67
470.72	340.11
471.08	338.42
471.45	337.06
471.82	335.60
472.18	333.99
472.55	332.88
472.92	331.57
473.28	330.43
473.65	329.38
474.02	328.36
474.38	327.56
474.75	326.86
475.11	326.11
475.48	325.63
475.85	325.24
476.21	324.76
476.58	324.45
476.94	324.25
477.31	323.97
477.67	323.72
478.04	323.57
478.41	323.53
478.77	323.71
479.14	323.65
479.50	323.82
479.87	324.18
480.23	324.54
480.60	324.83
480.96	325.15
481.33	325.76
481.69	326.33
482.06	326.82
482.42	327.32
482.79	327.96
483.15	328.75
483.52	329.71
483.88	330.61
484.25	331.58
484.61	332.62
484.98	333.71
485.34	335.03
485.71	336.38
486.07	337.86
486.44	339.20
486.80	340.79
487.17	342.48
487.53	344.29
487.90	346.18
488.26	348.14
488.62	350.27
488.99	352.30
489.35	354.48
489.72	356.85
490.08	359.35
490.44	361.86
490.81	364.55
491.17	367.25
491.54	370.22
491.90	373.28
492.26	376.50
492.63	379.92
492.99	383.40
493.36	387.15
493.72	390.97
494.08	394.95
494.45	399.17
494.81	403.56
495.17	407.99
495.54	412.63
495.90	417.48
496.26	422.36
496.63	427.50
496.99	432.90
497.35	438.46
497.72	444.26
498.08	450.24
498.44	456.31
498.80	462.68
499.17	469.21
499.53	475.85
499.89	482.72
500.26	489.61
500.62	496.67
500.98	503.99
501.34	511.45
501.71	519.26
502.07	526.99
502.43	534.88
502.79	542.98
503.16	551.36
503.52	559.88
503.88	568.60
504.24	577.63
504.60	586.60
504.97	595.75
505.33	605.05
505.69	614.85
506.05	624.72
506.41	634.52
506.78	644.53
507.14	654.77
507.50	665.18
507.86	675.93
508.22	686.72
508.59	697.29
508.95	708.36
509.31	719.48
509.67	730.84
510.03	742.28
510.39	754.03
510.75	765.87
511.12	777.80
511.48	789.87
511.84	801.96
512.20	814.27
512.56	826.92
512.92	839.60
513.28	852.05
513.64	864.65
514.00	877.31
514.37	890.09
514.73	903.03
515.09	915.96
515.45	928.59
515.81	941.42
516.17	954.70
516.53	967.65
516.89	980.68
517.25	993.79
517.61	1007.08
517.97	1020.23
518.33	1033.17
518.69	1046.44
519.05	1059.95
519.41	1073.38
519.77	1087.01
520.13	1100.10
520.49	1113.08
520.85	1126.36
521.21	1139.56
521.57	1153.02
521.93	1166.07
522.29	1179.53
522.65	1192.85
523.01	1206.25
523.37	1219.24
523.73	1232.36
524.09	1245.31
524.45	1258.49
524.81	1271.64
525.17	1284.70
525.53	1297.58
525.89	1310.52
526.25	1323.41
526.61	1335.93
526.97	1348.77
527.33	1361.32
527.68	1374.41
528.04	1387.56
528.40	1400.40
528.76	1413.40
529.12	1426.02
529.48	1438.77
529.84	1450.81
530.20	1463.24
530.56	1475.56
530.91	1488.45
531.27	1500.89
531.63	1513.29
531.99	1525.75
532.35	1537.74
532.71	1549.83
533.07	1562.17
533.42	1574.10
533.78	1585.75
534.14	1597.55
534.50	1608.44
534.86	1619.73
535.21	1630.35
535.57	1641.45
535.93	1652.37
536.29	1663.16
536.65	1674.28
537.00	1685.03
537.36	1695.95
537.72	1706.52
538.08	1717.47
538.44	1728.17
538.79	1738.89
539.15	1749.42
539.51	1759.72
539.87	1770.58
540.22	1780.92
540.58	1791.74
540.94	1802.23
541.29	1812.21
541.65	1821.55
542.01	1831.79
542.37	1841.53
542.72	1851.37
543.08	1860.89
543.44	1871.00
543.79	1880.01
544.15	1889.18
544.51	1898.85
544.87	1908.38
545.22	1917.31
545.58	1925.87
545.94	1934.33
546.29	1942.60
546.65	1950.62
547.01	1958.44
547.36	1965.85
547.72	1973.34
548.07	1980.45
548.43	1987.88
548.79	1995.44
549.14	2003.41
549.50	2011.34
549.86	2018.82
550.21	2025.94
550.57	2033.22
550.92	2039.67
551.28	2046.81
551.64	2053.80
551.99	2060.92
552.35	2067.88
552.70	2074.37
553.06	2080.85
553.41	2086.90
553.77	2093.14
554.13	2099.42
554.48	2106.31
554.84	2113.12
555.19	2119.45
555.55	2126.00
555.90	2132.16
556.26	2138.82
556.61	2144.49
556.97	2149.24
557.32	2155.10
557.68	2161.31
558.03	2167.00
558.39	2172.10
558.74	2177.97
559.10	2183.47
559.45	2188.95
559.81	2194.53
560.16	2200.28
560.52	2206.04
560.87	2212.32
561.23	2218.25
561.58	2224.91
561.94	2229.96
562.29	2234.87
562.64	2241.13
563.00	2246.60
563.35	2252.33
563.71	2258.09
564.06	2263.90
564.42	2269.97
564.77	2274.97
565.12	2280.16
565.48	2285.52
565.83	2291.22
566.19	2296.83
566.54	2302.27
566.89	2306.87
567.25	2311.50
567.60	2317.11
567.96	2322.56
568.31	2327.13
568.66	2331.38
569.02	2335.36
569.37	2339.26
569.72	2343.57
570.08	2347.14
570.43	2350.28
570.78	2353.21
571.14	2355.97
571.49	2359.11
571.84	2362.73
572.20	2365.82
572.55	2368.96
572.90	2371.19
573.26	2374.23
573.61	2376.77
573.96	2379.07
574.31	2381.31
574.67	2383.23
575.02	2384.29
575.37	2385.73
575.72	2386.74
576.08	2388.42
576.43	2388.70
576.78	2389.70
577.13	2391.76
577.49	2392.93
577.84	2394.40
578.19	2396.24
578.54	2397.13
578.90	2398.33
579.25	2398.40
579.60	2398.68
579.95	2398.30
580.30	2398.80
580.66	2398.28
581.01	2396.79
581.36	2394.84
581.71	2393.74
582.06	2393.09
582.42	2392.41
582.77	2390.57
583.12	2389.34
583.47	2388.39
583.82	2388.14
584.17	2386.97
584.53	2384.94
584.88	2383.32
585.23	2381.68
585.58	2379.54
585.93	2377.52
586.28	2375.60
586.63	2373.55
586.98	2371.66
587.34	2370.12
587.69	2367.94
588.04	2366.27
588.39	2365.17
588.74	2362.91
589.09	2360.73
589.44	2357.72
589.79	2355.66
590.14	2354.10
590.49	2351.41
590.84	2347.80
591.19	2345.12
591.54	2342.12
591.89	2338.41
592.25	2335.23
592.60	2331.30
592.95	2327.39
593.30	2323.54
593.65	2319.29
594.00	2315.30
594.35	2312.31
594.70	2307.62
595.05	2303.15
595.40	2297.91
595.75	2292.55
596.10	2288.91
596.45	2283.90
596.80	2279.52
597.15	2274.34
597.50	2268.30
597.85	2263.64
598.19	2258.45
598.54	2252.77
598.89	2247.84
599.24	2243.41
599.59	2237.48
599.94	2232.03
600.29	2226.18
600.64	2220.39
600.99	2213.83
601.34	2208.20
601.69	2201.21
602.04	2194.97
602.39	2188.56
602.74	2182.61
603.08	2177.02
603.43	2170.59
603.78	2164.02
604.13	2156.98
604.48	2149.85
604.83	2144.12
605.18	2137.93
605.53	2131.13
605.87	2124.14
606.22	2117.43
606.57	2109.63
606.92	2101.79
607.27	2094.80
607.62	2088.45
607.96	2081.42
608.31	2075.04
608.66	2067.35
609.01	2060.12
609.36	2053.20
609.70	2045.59
610.05	2037.89
610.40	2029.77
610.75	2021.74
611.10	2014.16
611.44	2005.55
611.79	1996.89
612.14	1986.87
612.49	1976.40
612.83	1967.40
613.18	1958.28
613.53	1948.88
613.88	1939.37
614.22	1930.93
614.57	1920.96
614.92	1910.52
615.27	1900.62
615.61	1890.64
615.96	1881.21
616.31	1871.52
616.65	1862.21
617.00	1852.31
617.35	1842.68
617.70	1832.83
618.04	1822.69
618.39	1812.31
618.74	1802.67
619.08	1793.20
619.43	1784.55
619.78	1776.26
620.12	1767.45
620.47	1757.57
620.82	1747.43
621.16	1737.72
621.51	1727.72
621.85	1717.91
622.20	1707.34
622.55	1696.64
622.89	1686.84
623.24	1677.07
623.59	1667.32
623.93	1657.18
624.28	1647.47
624.62	1637.23
624.97	1626.92
625.32	1617.31
625.66	1608.59
626.01	1599.65
626.35	1590.10
626.70	1579.99
627.04	1569.78
627.39	1559.63
627.73	1550.42
628.08	1541.21
628.43	1531.61
628.77	1522.35
629.12	1513.40
629.46	1505.53
629.81	1497.08
630.15	1487.22
630.50	1477.25
630.84	1466.74
631.19	1456.73
631.53	1447.28
631.88	1437.17
632.22	1427.18
632.57	1417.82
632.91	1407.54
633.26	1397.79
633.60	1388.19
633.95	1378.74
634.29	1369.37
634.64	1360.07
634.98	1350.04
635.32	1340.85
635.67	1332.15
636.01	1322.93
636.36	1313.16
636.70	1303.60
637.05	1294.21
637.39	1285.34
637.73	1276.78
638.08	1269.13
638.42	1260.83
638.77	1252.08
639.11	1243.82
639.45	1235.97
639.80	1227.19
640.14	1218.57
640.49	1209.49
640.83	1200.75
641.17	1192.70
641.52	1184.49
641.86	1175.82
642.20	1167.98
642.55	1159.23
642.89	1150.39
643.23	1141.61
643.58	1133.46
643.92	1124.33
644.26	1115.69
644.61	1107.16
644.95	1098.30
645.29	1088.94
645.64	1079.77
645.98	1071.36
646.32	1063.35
646.66	1054.81
647.01	1046.42
647.35	1038.23
647.69	1029.89
648.04	1021.51
648.38	1012.48
648.72	1003.55
649.06	995.07
649.41	986.90
649.75	978.96
650.09	971.12
650.43	963.10
650.78	954.83
651.12	947.21
651.46	939.85
651.80	932.70
652.14	925.42
652.49	918.14
652.83	910.88
653.17	903.13
653.51	895.61
653.85	888.34
654.20	881.15
654.54	873.66
654.88	866.57
655.22	859.38
655.56	852.48
655.90	845.80
656.25	839.20
656.59	832.27
656.93	825.28
657.27	818.15
657.61	811.36
657.95	805.38
658.29	799.56
658.64	793.32
658.98	786.91
659.32	780.35
659.66	774.06
660.00	767.80
660.34	761.84
660.68	755.68
661.02	749.47
661.36	743.59
661.70	737.91
662.05	732.28
662.39	726.89
662.73	721.59
663.07	716.18
663.41	710.63
663.75	705.05
664.09	699.53
664.43	694.20
664.77	688.88
665.11	683.06
665.45	677.17
665.79	671.41
666.13	665.79
666.47	660.38
666.81	654.96
667.15	649.61
667.49	644.47
667.83	639.30
668.17	634.15
668.51	629.04
668.85	624.13
669.19	619.27
669.53	614.29
669.87	609.24
670.21	604.65
670.55	600.00
670.89	595.67
671.23	591.43
671.57	587.02
671.91	582.77
672.25	578.73
672.58	574.72
672.92	570.76
673.26	566.84
673.60	563.10
673.94	559.40
674.28	555.82
674.62	552.14
674.96	548.48
675.30	545.06
675.64	541.51
675.97	538.06
676.31	534.53
676.65	531.02
676.99	527.60
677.33	523.80
677.67	520.14
678.01	516.31
678.34	512.69
678.68	509.32
679.02	505.73
679.36	502.05
679.70	498.43
680.04	495.00
680.37	491.63
680.71	488.39
681.05	485.24
681.39	482.06
681.73	478.98
682.06	475.98
682.40	472.80
682.74	469.66
683.08	466.48
683.42	463.35
683.75	460.40
684.09	457.44
684.43	454.70
684.77	451.87
685.10	449.08
685.44	446.20
685.78	443.32
686.12	440.63
686.45	437.97
686.79	435.35
687.13	432.85
687.46	430.25
687.80	427.61
688.14	424.79
688.48	422.25
688.81	419.62
689.15	417.14
689.49	414.62
689.82	412.18
690.16	409.60
690.50	407.19
690.83	404.77
691.17	402.34
691.51	399.91
691.84	397.81
692.18	395.65
692.52	393.53
692.85	391.42
693.19	389.35
693.52	387.23
693.86	385.10
694.20	383.00
694.53	380.93
694.87	378.76
695.21	376.75
695.54	374.63
695.88	372.48
696.21	370.31
696.55	368.28
696.88	366.27
697.22	364.37
697.56	362.57
697.89	360.74
698.23	359.01
698.56	357.27
698.90	355.44
699.23	353.58
699.57	351.74
699.90	350.01
700.24	348.25
700.58	346.56
700.91	344.92
701.25	343.39
701.58	341.82
701.92	340.25
702.25	338.70
702.59	337.15
702.92	335.70
703.26	334.21
703.59	332.80
703.93	331.60
704.26	330.24
704.60	328.75
704.93	327.30
705.26	325.83
705.60	324.39
705.93	322.94
706.27	321.66
706.60	320.47
706.94	319.23
707.27	317.83
707.61	316.51
707.94	315.20
708.27	313.70
708.61	312.34
708.94	311.06
709.28	309.79
709.61	308.57
709.94	307.39
710.28	306.20
710.61	305.02
710.95	303.63
711.28	302.59
711.61	301.45
711.95	300.40
712.28	299.25
712.61	298.14
712.95	297.16
713.28	296.17
713.61	295.03
713.95	293.92
714.28	292.97
714.61	291.98
714.95	291.02
715.28	290.07
715.61	289.07
715.95	288.12
716.28	287.18
716.61	286.24
716.95	285.27
717.28	284.37
717.61	283.44
717.94	282.55
718.28	281.55
718.61	280.69
718.94	279.75
719.27	278.93
719.61	278.13
719.94	277.26
720.27	276.31
720.60	275.48
720.94	274.73
721.27	273.97
721.60	273.31
721.93	272.62
722.27	272.03
722.60	271.38
722.93	270.75
723.26	270.16
723.59	269.54
723.93	268.98
724.26	268.41
724.59	267.83
724.92	267.29
725.25	266.77
725.59	266.23
725.92	265.73
726.25	265.17
726.58	264.62
726.91	264.08
727.24	263.59
727.57	263.06
727.91	262.45
728.24	261.92
728.57	261.30
728.90	260.76
729.23	260.13
729.56	259.71
729.89	259.20
730.22	258.61
730.55	258.05
730.89	257.48
731.22	256.94
731.55	256.39
731.88	255.91
732.21	255.37
732.54	254.83
732.87	254.35
733.20	253.87
733.53	253.39
733.86	252.94
734.19	252.46
734.52	252.13
734.85	251.86
735.18	251.44
735.51	251.13
735.84	250.73
736.17	250.37
736.50	249.85
736.83	249.68
737.16	249.34
737.49	248.98
737.82	248.61
738.15	248.26
738.48	247.91
738.81	247.53
739.14	247.14
739.47	246.77
739.80	246.39
740.13	246.09
740.46	245.73
740.79	245.37
741.12	245.06
741.45	244.62
741.78	244.16
742.11	243.89
742.44	243.47
742.77	243.16
743.10	242.80
743.43	242.49
743.75	241.94
744.08	241.86
744.41	241.50
744.74	241.17
745.07	240.78
745.40	240.52
745.73	240.30
746.06	240.00
746.39	239.70
746.71	239.37
747.04	239.02
747.37	238.70
747.70	238.41
748.03	238.11
748.36	237.88
748.68	237.65
749.01	237.33
749.34	237.02
749.67	236.77
750.00	236.55
750.33	236.41
750.65	236.18
750.98	235.68
751.31	235.50
751.64	235.27
751.97	235.16
752.29	234.84
752.62	234.47
752.95	234.25
753.28	234.00
753.60	233.78
753.93	233.64
754.26	233.46
754.59	233.21
754.91	232.98
755.24	232.72
755.57	232.47
755.90	232.25
756.22	232.06
756.55	231.83
756.88	231.60
757.20	231.25
757.53	231.00
757.86	230.81
758.19	230.63
758.51	230.39
758.84	230.12
759.17	230.00
759.49	229.85
759.82	229.74
760.15	229.62
760.47	229.46
760.80	229.19
761.13	229.03
761.45	228.83
761.78	228.66
762.11	228.50
762.43	228.32
762.76	228.13
763.08	227.97
763.41	227.82
763.74	227.64
764.06	227.53
764.39	227.39
764.71	227.21
765.04	227.02
765.37	226.91
765.69	226.77
766.02	226.60
766.34	226.45
766.67	226.21
767.00	226.11
767.32	226.10
767.65	226.10
767.97	225.92
768.30	225.82
768.62	225.74
768.95	225.62
769.27	225.48
769.60	225.39
769.92	225.26
770.25	225.11
770.57	224.96
770.90	224.85
771.22	224.71
771.55	224.60
771.87	224.50
772.20	224.36
772.52	224.43
772.85	224.53
773.17	224.44
773.50	224.36
773.82	224.21
774.15	224.00
774.47	223.78
774.80	223.69
775.12	223.59
775.45	223.48
775.77	223.38
776.09	223.33
776.42	223.23
776.74	223.19
777.07	223.11
777.39	223.03
777.72	222.91
778.04	222.84
778.36	222.76
778.69	222.69
779.01	222.66
779.33	222.40
779.66	222.10
779.98	221.99
780.31	221.92
780.63	221.96
780.95	221.97
781.28	221.90
781.60	221.83
781.92	221.78
782.25	221.72
782.57	221.67
782.89	221.57
783.22	221.51
783.54	221.46
783.86	221.42
784.19	221.39
784.51	221.40
784.83	221.32
785.16	221.27
785.48	221.20
785.80	221.11
786.12	221.08
786.45	221.06
786.77	221.04
787.09	220.98
787.42	220.83
787.74	220.77
788.06	220.73
788.38	220.67
788.71	220.59
789.03	220.51
789.35	220.47
789.67	220.41
789.99	220.34
790.32	220.20
790.64	220.17
790.96	220.27
791.28	220.16
791.61	220.11
791.93	220.07
792.25	220.01
792.57	220.10
792.89	220.02
793.21	219.94
793.54	219.88
793.86	219.81
794.18	219.79
794.50	219.69
794.82	219.67
795.14	219.66
795.47	219.67
795.79	219.63
796.11	219.54
796.43	219.49
796.75	219.45
797.07	219.47
797.39	219.40
797.71	219.22
798.04	219.20
798.36	219.18
798.68	219.11
799.00	219.10
799.32	218.97
799.64	218.97
799.96	218.95
800.28	218.97
800.60	218.92
800.92	218.87
801.24	218.82
801.56	218.77
801.89	218.69
802.21	218.66
802.53	218.57
802.85	218.59
803.17	218.66
803.49	218.60
803.81	218.54
804.13	218.52
804.45	218.45
804.77	218.41
805.09	218.40
805.41	218.38
805.73	218.29
806.05	218.20
806.37	218.13
806.69	218.08
807.01	218.02
807.33	218.02
807.65	217.94
807.97	218.04
808.28	218.00
808.60	217.97
808.92	217.94
809.24	218.07
809.56	218.00
809.88	217.90
810.20	217.88
810.52	217.91
810.84	217.85
811.16	217.80
811.48	217.78
811.80	217.80
812.12	217.76
812.43	217.82
812.75	217.82
813.07	217.79
813.39	217.78
813.71	217.71
814.03	217.66
814.35	217.64
814.67	217.52
814.98	217.47
815.30	217.48
815.62	217.41
815.94	217.27
816.26	217.29
816.58	217.23
816.89	217.20
817.21	217.10
817.53	217.10
817.85	217.13
818.17	217.10
818.48	216.99
818.80	217.03
819.12	216.95
819.44	216.88
819.76	216.85
820.07	216.85
820.39	216.83
820.71	216.81
821.03	216.80
821.34	216.76
821.66	216.78
821.98	216.77
822.30	216.75
822.61	216.84
822.93	216.77
823.25	216.75
823.57	216.74
823.88	216.78
824.20	216.78
824.52	216.76
824.83	216.75
825.15	216.75
825.47	216.70
825.79	216.71
826.10	216.72
826.42	216.69
826.74	216.71
827.05	216.72
827.37	216.75
827.69	216.72
828.00	216.74
828.32	216.73
828.64	216.71
828.95	216.82
829.27	216.74
829.58	216.73
829.90	216.78
830.22	216.77
830.53	216.71
830.85	216.66
831.17	216.63
831.48	216.62
831.80	216.58
832.11	216.55
832.43	216.52
832.75	216.51
833.06	216.64
833.38	216.55
833.69	216.52
834.01	216.50
834.32	216.50
834.64	216.46
834.96	216.45
835.27	216.42
835.59	216.35
835.90	216.34
836.22	216.33
836.53	216.28
836.85	216.26
837.16	216.46
837.48	216.44
837.79	216.50
838.11	216.51
838.42	216.51
838.74	216.52
839.05	216.51
839.37	216.51
839.68	216.37
840.00	216.38
840.31	216.39
840.63	216.35
840.94	216.32
841.26	216.28
841.57	216.25
841.88	216.25
842.20	216.21
842.51	216.14
842.83	216.11
843.14	216.30
843.46	216.30
843.77	216.16
844.08	216.15
844.40	216.05
844.71	216.01
845.03	215.99
845.34	215.98
845.65	215.96
845.97	215.95
846.28	215.97
846.60	216.00
846.91	215.96
847.22	215.95
847.54	216.00
847.85	216.03
848.16	216.01
848.48	215.98
848.79	216.03
849.10	216.07
849.42	216.10
849.73	215.89
850.04	215.87
850.36	215.81
850.67	215.84
850.98	215.87
851.30	215.90
851.61	215.90
851.92	215.89
852.23	215.97
852.55	215.99
852.86	216.00
853.17	215.96
853.49	216.03
853.80	216.02
854.11	216.03
854.42	216.07
854.74	216.05
855.05	216.06
855.36	215.96
855.67	215.95
855.99	215.95
856.30	216.21
856.61	216.19
856.92	216.19
857.23	216.20
857.55	216.16
857.86	216.14
858.17	216.17
858.48	216.14
858.79	216.06
859.11	216.08
859.42	216.08
859.73	216.05
860.04	216.03
860.35	216.02
860.66	215.93
860.98	215.93
861.29	215.97
861.60	215.95
861.91	215.99
862.22	215.98
862.53	215.94
862.84	215.69
863.16	215.76
863.47	215.71
863.78	215.71
864.09	215.72
864.40	215.71
864.71	215.72
865.02	215.74
865.33	215.74
865.64	215.68
865.95	215.62
866.27	215.79
866.58	215.76
866.89	215.76
867.20	215.77
867.51	215.72
867.82	215.69
868.13	215.72
868.44	215.68
868.75	215.73
869.06	215.75
869.37	215.76
869.68	215.72
869.99	215.77
870.30	215.75
870.61	215.79
870.92	215.77
871.23	215.73
871.54	215.74
871.85	215.79
872.16	215.80
872.47	215.82
872.78	215.68
873.09	215.69
873.40	215.69
873.71	215.69
874.02	215.70
874.33	215.68
874.64	215.64
874.95	215.70
875.26	215.63
875.56	215.61
875.87	215.59
876.18	215.56
876.49	215.76
876.80	215.75
877.11	215.70
877.42	215.71
877.73	215.72
878.04	215.70
878.35	215.71
878.66	215.75
878.96	215.74
879.27	215.74
879.58	215.75
879.89	215.73
880.20	215.80
880.51	215.77
880.82	215.77
881.12	215.82
881.43	215.77
881.74	215.75
882.05	215.72
882.36	215.71
882.67	215.74
882.97	215.52
883.28	215.49
883.59	215.51
883.90	215.52
884.21	215.55
884.51	215.55
884.82	215.49
885.13	215.48
885.44	215.46
885.74	215.46
886.05	215.43
886.36	215.44
886.67	215.39
886.98	215.51
887.28	215.52
887.59	215.48
887.90	215.47
888.20	215.48
888.51	215.54
888.82	215.52
889.13	215.53
889.43	215.70
889.74	215.71
890.05	215.68
890.35	215.68
890.66	215.63
890.97	215.61
891.28	215.59
891.58	215.58
891.89	215.59
892.20	215.57
892.50	215.55
892.81	215.53
893.12	215.53
893.42	215.44
893.73	215.47
894.04	215.48
894.34	215.53
894.65	215.54
894.95	215.49
895.26	215.52
895.57	215.60
895.87	215.40
896.18	215.41
896.48	215.43
896.79	215.42
897.10	215.43
897.40	215.43
897.71	215.45
898.01	215.43
898.32	215.43
898.63	215.40
898.93	215.41
899.24	215.45
899.54	215.44
899.85	215.44
900.15	215.42
900.46	215.41
900.76	215.41
901.07	215.38
901.38	215.41
901.68	215.41
901.99	215.32
902.29	215.35
902.60	215.33
902.90	215.31
903.21	215.30
903.51	215.29
903.82	215.34
904.12	215.32
904.43	215.33
904.73	215.30
905.03	215.36
905.34	215.55
905.64	215.51
905.95	215.48
906.25	215.46
906.56	215.44
906.86	215.44
907.17	215.39
907.47	215.39
907.77	215.39
908.08	215.36
908.38	215.39
908.69	215.38
908.99	215.43
909.30	215.45
909.60	215.45
909.90	215.44
910.21	215.37
910.51	215.38
910.81	215.39
911.12	215.42
911.42	215.41
911.73	215.21
912.03	215.23
912.33	215.28
912.64	215.32
912.94	215.29
913.24	215.25
913.55	215.28
913.85	215.26
914.15	215.29
914.46	215.29
914.76	215.23
915.06	215.21
915.37	215.19
915.67	215.17
915.97	215.19
916.27	215.17
916.58	215.21
916.88	215.21
917.18	215.16
917.49	215.32
917.79	215.27
918.09	215.32
918.39	215.38
918.70	215.37
919.00	215.33
919.30	215.45
919.60	215.43
919.91	215.40
920.21	215.43
920.51	215.35
920.81	215.34
921.12	215.35
921.42	215.39
921.72	215.36
922.02	215.37
922.32	215.41
922.63	215.43
922.93	215.53
923.23	215.52
923.53	215.50
923.83	215.33
924.13	215.37
924.44	215.35
924.74	215.34
925.04	215.39
925.34	215.37
925.64	215.27
925.94	215.29
926.24	215.40
926.55	215.37
926.85	215.41
927.15	215.41
927.45	215.44
927.75	215.41
928.05	215.42
928.35	215.43
928.65	215.43
928.95	215.44
929.26	215.33
929.56	215.34
929.86	215.38
930.16	215.37
930.46	215.37
930.76	215.38
931.06	215.27
931.36	215.23
931.66	215.26
931.96	215.28
932.26	215.29
932.56	215.22
932.86	215.26
933.16	215.30
933.46	215.28
933.76	215.24
934.06	215.27
934.36	215.36
934.66	215.34
934.96	215.31
935.26	215.34
935.56	215.39
935.86	215.35
936.16	215.31
936.46	215.28
936.76	215.25
937.06	215.21
937.36	215.25
937.66	215.23
937.96	215.23
938.26	215.22
938.56	215.19
938.86	215.19
939.16	215.26
939.46	215.25
939.76	215.29
940.06	215.30
940.35	215.30
940.65	215.17
940.95	215.16
941.25	215.12
941.55	215.08
941.85	215.03
942.15	215.08
942.45	215.17
942.75	215.15
943.04	215.19
943.34	215.24
943.64	215.22
943.94	215.19
944.24	215.24
944.54	215.23
944.84	215.25
945.13	215.25
945.43	215.17
945.73	215.15
946.03	215.13
946.33	215.12
946.62	215.08
946.92	215.11
947.22	215.15
947.52	215.16
947.82	215.18
948.11	215.18
948.41	215.13
948.71	215.07
949.01	215.09
949.31	215.06
949.60	215.03
949.90	215.10
950.20	215.10
950.50	215.04
950.79	215.04
951.09	215.02
951.39	215.01
951.69	215.01
951.98	215.05
952.28	215.05
952.58	215.04
952.87	215.02
953.17	215.03
953.47	214.99
953.76	214.99
954.06	214.96
954.36	214.93
954.66	214.90
954.95	214.98
955.25	214.99
955.55	215.03
955.84	215.02
956.14	215.02
956.44	215.04
956.73	215.02
957.03	215.02
957.32	215.02
957.62	215.01
957.92	215.05
958.21	215.00
958.51	215.21
958.81	215.22
959.10	215.25
959.40	215.29
959.69	215.29
959.99	215.31
960.29	215.30
960.58	215.32
960.88	215.40
961.17	215.38
961.47	215.38
961.76	215.36
962.06	215.40
962.36	215.36
962.65	215.35
962.95	215.32
963.24	215.29
963.54	215.33
963.83	215.35
964.13	215.34
964.42	215.33
964.72	215.17
965.01	215.19
965.31	215.16
965.60	215.10
965.90	215.27
966.19	215.24
966.49	215.27
966.78	215.25
967.08	215.26
967.37	215.21
967.67	215.21
967.96	215.24
968.26	215.22
968.55	215.27
968.85	215.26
969.14	215.30
969.43	215.30
969.73	215.26
970.02	215.23
970.32	215.20
970.61	215.17
970.91	215.11
971.20	215.08
971.49	215.10
971.79	215.13
972.08	214.95
972.38	214.97
972.67	214.95
972.96	214.96
973.26	214.92
973.55	215.02
973.85	214.99
974.14	214.94
974.43	214.98
974.73	214.93
975.02	214.90
975.31	214.88
975.61	214.90
975.90	214.90
976.19	214.89
976.49	214.92
976.78	214.95
977.07	214.94
977.37	214.96
977.66	214.96
977.95	214.96
978.24	215.00
978.54	215.05
978.83	215.04
979.12	215.03
979.42	215.03
979.71	214.95
980.00	214.97
980.29	215.00
980.59	214.93
980.88	214.97
981.17	215.01
981.46	215.03
981.76	215.02
982.05	215.07
982.34	215.08
982.63	215.07
982.93	215.07
983.22	215.11
983.51	215.12
983.80	215.15
984.09	215.17
984.39	215.14
984.68	215.13
984.97	215.15
985.26	215.17
985.55	215.18
985.85	215.16
986.14	215.20
986.43	215.19
986.72	215.17
987.01	215.09
987.30	215.07
987.59	215.02
987.89	215.04
988.18	214.96
988.47	214.94
988.76	214.91
989.05	214.86
989.34	214.85
989.63	214.88
989.92	214.84
990.22	214.77
990.51	214.76
990.80	214.72
991.09	214.72
991.38	214.73
991.67	214.72
991.96	214.71
992.25	214.66
992.54	214.66
992.83	214.66
993.12	214.66
993.41	214.70
993.70	214.82
993.99	214.82
994.28	214.88
994.58	214.92
994.87	214.91
995.16	214.95
995.45	214.94
995.74	214.87
996.03	214.91
996.32	214.94
996.61	214.98
996.90	214.96
997.19	214.91
997.48	214.91
997.77	214.86
998.06	214.86
998.34	214.86
998.63	214.86
998.92	214.84
999.21	214.91
999.50	214.90
999.79	214.80
1000.08	214.83
1000.37	214.83
1000.66	214.78
1000.95	214.87
1001.24	214.88
1001.53	214.87
1001.82	214.88
1002.11	214.83
1002.40	214.85
1002.68	214.90
1002.97	215.07
1003.26	215.06
1003.55	215.01
1003.84	215.10
1004.13	215.19
1004.42	215.15
1004.71	215.14
1004.99	215.17
1005.28	215.17
1005.57	215.15
1005.86	215.16
1006.15	215.12
1006.44	215.07
1006.72	215.11
1007.01	215.05
1007.30	215.03
1007.59	215.02
1007.88	215.02
1008.17	215.03
1008.45	214.99
1008.74	214.91
1009.03	214.83
1009.32	214.86
1009.60	214.85
1009.89	214.79
1010.18	214.71
1010.47	214.75
1010.76	214.76
1011.04	214.72
1011.33	214.77
1011.62	214.80
1011.91	214.79
1012.19	214.81
1012.48	214.84
1012.77	214.83
1013.05	214.95
1013.34	214.96
1013.63	214.96
1013.92	214.97
1014.20	214.96
1014.49	214.97
1014.78	214.99
1015.06	214.92
1015.35	214.93
1015.64	214.99
1015.92	215.02
1016.21	215.03
1016.50	215.02
1016.78	215.02
1017.07	215.07
1017.36	215.03
1017.64	214.99
1017.93	215.03
1018.22	215.00
1018.50	215.03
1018.79	215.03
1019.08	214.93
1019.36	214.94
1019.65	214.91
1019.93	214.98
1020.22	215.04
1020.51	215.16
1020.79	215.14
1021.08	214.67
1021.36	215.03
1021.65	214.99
1021.94	215.27
1022.22	215.04
1022.51	214.22
1022.79	216.21
1023.08	215.60
1023.36	217.44
1023.65	214.59
>>>>>End Processed Spectral Data<<<<<
