SpectraSuite Data File
++++++++++++++++++++++++++++++++++++
Date: Tue Jan 29 15:54:57 EST 2013
User: group
Dark Spectrum Present: No
Reference Spectrum Present: No
Number of Sampled Component Spectra: 1
Spectrometers: USB2E7196
Integration Time (usec): 65000 (USB2E7196)
Spectra Averaged: 100 (USB2E7196)
Boxcar Smoothing: 10 (USB2E7196)
Correct for Electrical Dark: No (USB2E7196)
Strobe/Lamp Enabled: No (USB2E7196)
Correct for Detector Non-linearity: No (USB2E7196)
Correct for Stray Light: No (USB2E7196)
Number of Pixels in Processed Spectrum: 2048
>>>>>Begin Processed Spectral Data<<<<<
339.09	0.00
339.48	202.95
339.86	204.89
340.24	206.09
340.63	206.64
341.01	212.05
341.39	210.62
341.78	212.03
342.16	213.11
342.54	213.57
342.93	202.54
343.31	212.78
343.69	213.36
344.07	213.84
344.46	214.30
344.84	214.80
345.22	214.98
345.60	215.23
345.99	215.42
346.37	215.58
346.75	215.70
347.13	215.76
347.52	215.80
347.90	215.91
348.28	215.91
348.66	216.01
349.05	215.98
349.43	216.07
349.81	216.11
350.19	216.19
350.57	216.25
350.96	216.32
351.34	216.40
351.72	216.48
352.10	216.56
352.48	216.62
352.87	216.61
353.25	216.70
353.63	216.73
354.01	216.80
354.39	216.84
354.77	216.89
355.15	216.97
355.54	217.02
355.92	217.00
356.30	217.05
356.68	217.20
357.06	217.24
357.44	217.23
357.82	217.26
358.20	217.28
358.58	217.34
358.97	217.39
359.35	217.46
359.73	217.54
360.11	217.55
360.49	217.59
360.87	217.61
361.25	217.61
361.63	217.71
362.01	217.75
362.39	217.76
362.77	217.81
363.15	217.83
363.53	217.85
363.91	217.84
364.29	217.89
364.67	217.73
365.05	217.75
365.43	217.79
365.81	217.82
366.19	217.91
366.57	218.00
366.95	217.95
367.33	217.89
367.71	217.86
368.09	217.92
368.47	217.90
368.85	217.91
369.23	217.96
369.61	217.89
369.99	217.92
370.37	217.94
370.75	218.02
371.13	217.99
371.51	217.94
371.89	217.97
372.27	217.94
372.65	217.92
373.03	217.91
373.41	217.86
373.78	217.79
374.16	217.64
374.54	217.53
374.92	217.49
375.30	217.48
375.68	217.42
376.06	217.39
376.44	217.37
376.82	217.33
377.19	217.28
377.57	217.23
377.95	217.10
378.33	217.01
378.71	216.84
379.09	216.84
379.47	216.82
379.84	216.76
380.22	216.69
380.60	216.62
380.98	216.57
381.36	216.51
381.73	216.47
382.11	216.50
382.49	216.49
382.87	216.45
383.25	216.43
383.62	216.63
384.00	216.54
384.38	216.51
384.76	216.52
385.13	216.54
385.51	216.53
385.89	216.51
386.27	216.47
386.64	216.45
387.02	216.39
387.40	216.34
387.78	216.31
388.15	216.30
388.53	216.28
388.91	216.26
389.29	216.22
389.66	216.24
390.04	216.20
390.42	216.21
390.79	216.22
391.17	216.20
391.55	215.96
391.92	215.95
392.30	215.93
392.68	215.88
393.05	215.88
393.43	215.88
393.81	215.88
394.18	215.88
394.56	215.92
394.94	215.96
395.31	215.96
395.69	216.02
396.06	216.08
396.44	216.12
396.82	216.14
397.19	216.30
397.57	216.31
397.95	216.35
398.32	216.30
398.70	216.34
399.07	216.43
399.45	216.45
399.82	216.52
400.20	216.57
400.58	216.65
400.95	216.62
401.33	216.71
401.70	216.94
402.08	217.05
402.45	217.12
402.83	217.28
403.20	217.42
403.58	217.53
403.95	217.68
404.33	217.84
404.71	217.96
405.08	218.18
405.46	218.37
405.83	218.55
406.21	218.79
406.58	218.99
406.96	219.19
407.33	219.46
407.70	219.77
408.08	220.23
408.45	220.53
408.83	220.89
409.20	221.25
409.58	221.50
409.95	221.94
410.33	222.41
410.70	222.78
411.08	223.29
411.45	223.84
411.82	224.36
412.20	225.01
412.57	225.84
412.95	226.39
413.32	227.15
413.69	227.97
414.07	228.84
414.44	229.79
414.82	230.76
415.19	231.87
415.56	232.97
415.94	234.05
416.31	235.43
416.68	236.80
417.06	238.29
417.43	239.77
417.81	241.41
418.18	243.13
418.55	244.99
418.93	246.97
419.30	248.96
419.67	251.08
420.04	253.25
420.42	255.53
420.79	258.24
421.16	260.91
421.54	263.71
421.91	266.53
422.28	269.52
422.66	272.62
423.03	275.75
423.40	278.98
423.77	282.42
424.15	285.90
424.52	289.53
424.89	293.54
425.26	297.49
425.64	301.23
426.01	305.30
426.38	309.59
426.75	313.93
427.13	318.46
427.50	323.21
427.87	328.23
428.24	333.20
428.61	337.97
428.99	343.25
429.36	348.98
429.73	354.65
430.10	360.23
430.47	366.10
430.85	372.19
431.22	378.59
431.59	385.43
431.96	391.96
432.33	399.17
432.70	406.14
433.08	414.26
433.45	421.94
433.82	429.66
434.19	438.14
434.56	446.50
434.93	454.51
435.30	462.48
435.68	471.16
436.05	479.72
436.42	488.29
436.79	496.10
437.16	504.55
437.53	513.43
437.90	522.20
438.27	530.74
438.64	539.54
439.01	547.71
439.38	555.00
439.75	562.02
440.13	570.14
440.50	577.74
440.87	583.89
441.24	590.29
441.61	597.28
441.98	602.48
442.35	608.51
442.72	614.54
443.09	620.34
443.46	623.89
443.83	626.29
444.20	628.34
444.57	631.28
444.94	632.58
445.31	633.88
445.68	635.28
446.05	635.86
446.42	635.05
446.79	634.10
447.16	632.96
447.53	632.18
447.90	628.92
448.27	625.72
448.64	621.24
449.01	618.01
449.37	612.34
449.74	606.83
450.11	600.19
450.48	593.07
450.85	585.86
451.22	579.69
451.59	573.84
451.96	568.23
452.33	560.79
452.70	554.02
453.07	546.02
453.43	537.72
453.80	529.82
454.17	522.25
454.54	515.06
454.91	507.31
455.28	499.72
455.65	492.63
456.02	485.54
456.38	479.57
456.75	472.12
457.12	465.90
457.49	459.73
457.86	453.86
458.23	448.80
458.59	443.23
458.96	437.52
459.33	432.49
459.70	427.38
460.07	423.31
460.43	418.65
460.80	414.27
461.17	410.50
461.54	406.52
461.91	402.64
462.27	398.73
462.64	395.49
463.01	391.92
463.38	388.42
463.74	384.84
464.11	381.71
464.48	378.92
464.85	375.88
465.21	373.59
465.58	371.06
465.95	368.04
466.32	365.55
466.68	363.06
467.05	360.64
467.42	358.23
467.78	355.67
468.15	353.26
468.52	351.47
468.88	349.08
469.25	346.99
469.62	345.31
469.98	343.47
470.35	341.76
470.72	340.15
471.08	338.44
471.45	337.07
471.82	335.66
472.18	334.10
472.55	333.07
472.92	331.75
473.28	330.67
473.65	329.59
474.02	328.52
474.38	327.72
474.75	326.99
475.11	326.21
475.48	325.72
475.85	325.30
476.21	324.81
476.58	324.47
476.94	324.26
477.31	323.98
477.67	323.75
478.04	323.62
478.41	323.61
478.77	323.79
479.14	323.71
479.50	323.83
479.87	324.19
480.23	324.51
480.60	324.78
480.96	325.07
481.33	325.71
481.69	326.29
482.06	326.84
482.42	327.32
482.79	327.96
483.15	328.70
483.52	329.62
483.88	330.52
484.25	331.47
484.61	332.50
484.98	333.58
485.34	334.94
485.71	336.29
486.07	337.75
486.44	339.03
486.80	340.65
487.17	342.36
487.53	344.19
487.90	346.03
488.26	348.07
488.62	350.19
488.99	352.22
489.35	354.36
489.72	356.71
490.08	359.19
490.44	361.72
490.81	364.45
491.17	367.16
491.54	370.11
491.90	373.16
492.26	376.34
492.63	379.77
492.99	383.25
493.36	386.93
493.72	390.81
494.08	394.89
494.45	399.12
494.81	403.46
495.17	407.92
495.54	412.62
495.90	417.40
496.26	422.31
496.63	427.47
496.99	432.88
497.35	438.44
497.72	444.30
498.08	450.22
498.44	456.28
498.80	462.64
499.17	469.19
499.53	475.83
499.89	482.74
500.26	489.61
500.62	496.66
500.98	504.04
501.34	511.39
501.71	519.12
502.07	526.90
502.43	534.81
502.79	542.82
503.16	551.11
503.52	559.59
503.88	568.25
504.24	577.19
504.60	586.21
504.97	595.43
505.33	604.70
505.69	614.52
506.05	624.40
506.41	634.23
506.78	644.23
507.14	654.54
507.50	664.94
507.86	675.62
508.22	686.27
508.59	696.81
508.95	707.89
509.31	719.09
509.67	730.48
510.03	741.87
510.39	753.59
510.75	765.40
511.12	777.28
511.48	789.30
511.84	801.48
512.20	813.70
512.56	826.23
512.92	838.81
513.28	851.33
513.64	863.92
514.00	876.60
514.37	889.40
514.73	902.25
515.09	915.00
515.45	927.64
515.81	940.55
516.17	953.76
516.53	966.75
516.89	979.66
517.25	992.62
517.61	1005.86
517.97	1019.00
518.33	1031.89
518.69	1045.22
519.05	1058.82
519.41	1072.21
519.77	1085.81
520.13	1098.89
520.49	1111.90
520.85	1125.04
521.21	1138.12
521.57	1151.59
521.93	1164.51
522.29	1178.07
522.65	1191.52
523.01	1204.94
523.37	1217.86
523.73	1230.89
524.09	1243.86
524.45	1256.95
524.81	1270.12
525.17	1283.26
525.53	1296.09
525.89	1309.09
526.25	1321.97
526.61	1334.45
526.97	1347.17
527.33	1359.84
527.68	1372.88
528.04	1386.02
528.40	1398.76
528.76	1411.73
529.12	1424.22
529.48	1437.10
529.84	1448.90
530.20	1461.18
530.56	1473.39
530.91	1486.28
531.27	1498.74
531.63	1511.12
531.99	1523.48
532.35	1535.28
532.71	1547.10
533.07	1559.60
533.42	1571.42
533.78	1583.00
534.14	1594.64
534.50	1605.45
534.86	1616.56
535.21	1627.07
535.57	1638.07
535.93	1649.06
536.29	1659.82
536.65	1670.77
537.00	1681.27
537.36	1692.33
537.72	1703.01
538.08	1714.06
538.44	1724.43
538.79	1735.03
539.15	1745.39
539.51	1755.79
539.87	1766.83
540.22	1777.43
540.58	1787.99
540.94	1798.50
541.29	1808.37
541.65	1817.78
542.01	1828.08
542.37	1837.79
542.72	1847.60
543.08	1857.05
543.44	1867.03
543.79	1875.82
544.15	1884.93
544.51	1894.47
544.87	1903.78
545.22	1912.53
545.58	1920.99
545.94	1929.56
546.29	1937.73
546.65	1945.74
547.01	1953.33
547.36	1960.46
547.72	1967.79
548.07	1974.97
548.43	1982.33
548.79	1989.88
549.14	1997.68
549.50	2005.65
549.86	2013.17
550.21	2020.25
550.57	2027.69
550.92	2034.03
551.28	2041.19
551.64	2048.23
551.99	2055.51
552.35	2062.37
552.70	2069.00
553.06	2075.39
553.41	2081.43
553.77	2087.76
554.13	2093.92
554.48	2100.86
554.84	2107.85
555.19	2114.20
555.55	2120.41
555.90	2126.43
556.26	2133.04
556.61	2138.79
556.97	2143.54
557.32	2149.19
557.68	2155.32
558.03	2160.77
558.39	2166.07
558.74	2171.92
559.10	2177.31
559.45	2182.74
559.81	2188.32
560.16	2193.84
560.52	2199.59
560.87	2205.90
561.23	2211.74
561.58	2218.35
561.94	2223.68
562.29	2228.48
562.64	2234.65
563.00	2240.36
563.35	2246.08
563.71	2251.90
564.06	2257.50
564.42	2263.33
564.77	2268.41
565.12	2273.79
565.48	2279.02
565.83	2284.60
566.19	2290.03
566.54	2295.40
566.89	2300.07
567.25	2304.83
567.60	2310.45
567.96	2315.63
568.31	2320.28
568.66	2324.76
569.02	2328.73
569.37	2332.47
569.72	2336.88
570.08	2340.27
570.43	2343.42
570.78	2346.46
571.14	2349.02
571.49	2352.39
571.84	2356.13
572.20	2359.11
572.55	2362.13
572.90	2364.54
573.26	2367.47
573.61	2370.30
573.96	2372.69
574.31	2374.81
574.67	2376.78
575.02	2377.80
575.37	2379.46
575.72	2380.34
576.08	2381.89
576.43	2382.12
576.78	2382.97
577.13	2384.73
577.49	2386.24
577.84	2387.73
578.19	2389.51
578.54	2390.50
578.90	2391.59
579.25	2391.84
579.60	2392.19
579.95	2391.84
580.30	2392.28
580.66	2392.06
581.01	2390.65
581.36	2388.74
581.71	2387.84
582.06	2387.01
582.42	2386.66
582.77	2384.87
583.12	2383.80
583.47	2382.82
583.82	2382.80
584.17	2381.62
584.53	2379.83
584.88	2378.04
585.23	2376.40
585.58	2374.33
585.93	2372.54
586.28	2370.69
586.63	2368.55
586.98	2366.61
587.34	2365.02
587.69	2362.80
588.04	2361.01
588.39	2359.95
588.74	2357.67
589.09	2355.14
589.44	2352.24
589.79	2349.91
590.14	2348.27
590.49	2345.59
590.84	2341.96
591.19	2339.14
591.54	2336.44
591.89	2332.67
592.25	2329.82
592.60	2325.90
592.95	2322.13
593.30	2318.30
593.65	2314.02
594.00	2309.70
594.35	2306.89
594.70	2302.44
595.05	2298.17
595.40	2292.81
595.75	2287.19
596.10	2283.83
596.45	2279.20
596.80	2274.99
597.15	2269.82
597.50	2263.93
597.85	2259.13
598.19	2254.04
598.54	2248.31
598.89	2243.19
599.24	2238.71
599.59	2232.69
599.94	2227.06
600.29	2221.09
600.64	2215.08
600.99	2208.51
601.34	2203.21
601.69	2196.41
602.04	2190.13
602.39	2183.56
602.74	2177.61
603.08	2172.17
603.43	2165.66
603.78	2159.01
604.13	2151.90
604.48	2144.78
604.83	2138.98
605.18	2132.95
605.53	2126.25
605.87	2119.41
606.22	2112.77
606.57	2105.01
606.92	2097.15
607.27	2090.40
607.62	2083.94
607.96	2077.21
608.31	2070.83
608.66	2063.20
609.01	2055.73
609.36	2048.75
609.70	2041.20
610.05	2033.53
610.40	2025.35
610.75	2017.23
611.10	2009.51
611.44	2000.73
611.79	1992.22
612.14	1982.27
612.49	1971.71
612.83	1962.39
613.18	1953.16
613.53	1943.93
613.88	1934.53
614.22	1925.97
614.57	1916.01
614.92	1905.59
615.27	1895.42
615.61	1885.43
615.96	1875.78
616.31	1866.14
616.65	1856.74
617.00	1847.09
617.35	1837.53
617.70	1827.95
618.04	1817.89
618.39	1807.85
618.74	1798.33
619.08	1788.63
619.43	1779.90
619.78	1771.70
620.12	1763.09
620.47	1753.52
620.82	1743.14
621.16	1733.40
621.51	1723.52
621.85	1713.59
622.20	1703.14
622.55	1692.61
622.89	1682.75
623.24	1673.18
623.59	1663.48
623.93	1653.27
624.28	1643.43
624.62	1633.27
624.97	1622.94
625.32	1613.19
625.66	1604.30
626.01	1595.42
626.35	1586.07
626.70	1576.01
627.04	1565.88
627.39	1555.76
627.73	1546.37
628.08	1537.39
628.43	1527.79
628.77	1518.56
629.12	1509.73
629.46	1501.88
629.81	1493.43
630.15	1483.91
630.50	1473.90
630.84	1463.36
631.19	1453.51
631.53	1444.21
631.88	1434.00
632.22	1423.96
632.57	1414.53
632.91	1404.38
633.26	1394.55
633.60	1385.02
633.95	1375.79
634.29	1366.41
634.64	1357.15
634.98	1347.24
635.32	1337.97
635.67	1329.39
636.01	1320.03
636.36	1310.21
636.70	1300.68
637.05	1291.35
637.39	1282.26
637.73	1273.68
638.08	1266.03
638.42	1257.78
638.77	1248.94
639.11	1240.84
639.45	1232.98
639.80	1224.51
640.14	1215.70
640.49	1206.80
640.83	1198.02
641.17	1189.75
641.52	1181.47
641.86	1172.80
642.20	1164.95
642.55	1156.20
642.89	1147.33
643.23	1138.67
643.58	1130.60
643.92	1121.68
644.26	1112.93
644.61	1104.60
644.95	1095.73
645.29	1086.56
645.64	1077.45
645.98	1069.02
646.32	1060.93
646.66	1052.40
647.01	1043.93
647.35	1035.78
647.69	1027.48
648.04	1019.13
648.38	1010.24
648.72	1001.41
649.06	992.97
649.41	984.73
649.75	976.87
650.09	969.02
650.43	960.98
650.78	952.71
651.12	945.03
651.46	937.75
651.80	930.49
652.14	923.22
652.49	915.80
652.83	908.40
653.17	900.69
653.51	893.15
653.85	885.93
654.20	878.83
654.54	871.33
654.88	864.17
655.22	856.99
655.56	850.01
655.90	843.32
656.25	836.81
656.59	829.97
656.93	823.00
657.27	815.97
657.61	809.11
657.95	803.06
658.29	797.07
658.64	790.91
658.98	784.44
659.32	777.95
659.66	771.68
660.00	765.49
660.34	759.65
660.68	753.63
661.02	747.38
661.36	741.44
661.70	735.81
662.05	730.16
662.39	724.81
662.73	719.58
663.07	714.26
663.41	708.60
663.75	702.99
664.09	697.40
664.43	691.98
664.77	686.70
665.11	680.92
665.45	675.14
665.79	669.40
666.13	663.80
666.47	658.49
666.81	653.14
667.15	647.86
667.49	642.66
667.83	637.47
668.17	632.32
668.51	627.27
668.85	622.44
669.19	617.66
669.53	612.65
669.87	607.64
670.21	602.91
670.55	598.33
670.89	593.96
671.23	589.74
671.57	585.42
671.91	581.22
672.25	577.19
672.58	573.14
672.92	569.15
673.26	565.35
673.60	561.54
673.94	557.82
674.28	554.23
674.62	550.58
674.96	546.88
675.30	543.44
675.64	539.85
675.97	536.31
676.31	532.80
676.65	529.29
676.99	525.95
677.33	522.27
677.67	518.71
678.01	514.93
678.34	511.29
678.68	507.85
679.02	504.31
679.36	500.66
679.70	497.03
680.04	493.59
680.37	490.23
680.71	486.93
681.05	483.79
681.39	480.62
681.73	477.48
682.06	474.57
682.40	471.55
682.74	468.46
683.08	465.34
683.42	462.18
683.75	459.22
684.09	456.26
684.43	453.50
684.77	450.63
685.10	447.85
685.44	445.04
685.78	442.22
686.12	439.53
686.45	436.93
686.79	434.41
687.13	431.91
687.46	429.31
687.80	426.77
688.14	423.98
688.48	421.43
688.81	418.84
689.15	416.31
689.49	413.75
689.82	411.27
690.16	408.72
690.50	406.34
690.83	403.94
691.17	401.47
691.51	399.06
691.84	396.88
692.18	394.78
692.52	392.66
692.85	390.62
693.19	388.51
693.52	386.40
693.86	384.25
694.20	382.17
694.53	380.13
694.87	377.96
695.21	375.94
695.54	373.87
695.88	371.76
696.21	369.61
696.55	367.56
696.88	365.63
697.22	363.75
697.56	361.92
697.89	360.12
698.23	358.42
698.56	356.72
698.90	355.01
699.23	353.15
699.57	351.32
699.90	349.47
700.24	347.73
700.58	346.07
700.91	344.47
701.25	342.95
701.58	341.37
701.92	339.82
702.25	338.27
702.59	336.68
702.92	335.24
703.26	333.74
703.59	332.35
703.93	331.06
704.26	329.69
704.60	328.25
704.93	326.79
705.26	325.31
705.60	323.87
705.93	322.37
706.27	321.09
706.60	319.89
706.94	318.72
707.27	317.39
707.61	316.04
707.94	314.74
708.27	313.28
708.61	311.89
708.94	310.61
709.28	309.37
709.61	308.18
709.94	306.97
710.28	305.83
710.61	304.67
710.95	303.34
711.28	302.30
711.61	301.16
711.95	300.05
712.28	298.94
712.61	297.79
712.95	296.79
713.28	295.78
713.61	294.68
713.95	293.56
714.28	292.56
714.61	291.58
714.95	290.60
715.28	289.61
715.61	288.70
715.95	287.76
716.28	286.86
716.61	285.96
716.95	285.02
717.28	284.14
717.61	283.23
717.94	282.39
718.28	281.42
718.61	280.56
718.94	279.67
719.27	278.84
719.61	278.08
719.94	277.28
720.27	276.35
720.60	275.53
720.94	274.79
721.27	274.08
721.60	273.44
721.93	272.75
722.27	272.17
722.60	271.49
722.93	270.83
723.26	270.20
723.59	269.50
723.93	268.91
724.26	268.26
724.59	267.63
724.92	267.04
725.25	266.52
725.59	266.00
725.92	265.55
726.25	265.00
726.58	264.41
726.91	263.83
727.24	263.40
727.57	262.83
727.91	262.25
728.24	261.70
728.57	261.12
728.90	260.63
729.23	259.99
729.56	259.59
729.89	259.09
730.22	258.50
730.55	257.98
730.89	257.44
731.22	256.92
731.55	256.41
731.88	255.93
732.21	255.37
732.54	254.81
732.87	254.29
733.20	253.83
733.53	253.35
733.86	252.94
734.19	252.41
734.52	252.04
734.85	251.80
735.18	251.37
735.51	251.01
735.84	250.55
736.17	250.19
736.50	249.66
736.83	249.50
737.16	249.17
737.49	248.82
737.82	248.42
738.15	248.09
738.48	247.73
738.81	247.35
739.14	246.97
739.47	246.64
739.80	246.31
740.13	246.00
740.46	245.69
740.79	245.27
741.12	244.94
741.45	244.57
741.78	244.11
742.11	243.88
742.44	243.48
742.77	243.22
743.10	242.89
743.43	242.57
743.75	242.03
744.08	241.96
744.41	241.63
744.74	241.33
745.07	240.95
745.40	240.65
745.73	240.41
746.06	240.09
746.39	239.82
746.71	239.48
747.04	239.15
747.37	238.80
747.70	238.57
748.03	238.29
748.36	238.05
748.68	237.75
749.01	237.38
749.34	237.14
749.67	236.86
750.00	236.63
750.33	236.51
750.65	236.25
750.98	235.74
751.31	235.52
751.64	235.29
751.97	235.20
752.29	234.99
752.62	234.65
752.95	234.42
753.28	234.15
753.60	233.92
753.93	233.76
754.26	233.59
754.59	233.26
754.91	233.01
755.24	232.78
755.57	232.56
755.90	232.32
756.22	232.10
756.55	231.89
756.88	231.63
757.20	231.32
757.53	231.04
757.86	230.83
758.19	230.64
758.51	230.44
758.84	230.16
759.17	229.96
759.49	229.80
759.82	229.75
760.15	229.59
760.47	229.44
760.80	229.18
761.13	229.00
761.45	228.86
761.78	228.68
762.11	228.50
762.43	228.30
762.76	228.14
763.08	228.02
763.41	227.88
763.74	227.71
764.06	227.55
764.39	227.43
764.71	227.29
765.04	227.14
765.37	226.98
765.69	226.85
766.02	226.71
766.34	226.56
766.67	226.33
767.00	226.24
767.32	226.22
767.65	226.22
767.97	226.11
768.30	226.00
768.62	225.94
768.95	225.82
769.27	225.73
769.60	225.65
769.92	225.48
770.25	225.31
770.57	225.16
770.90	225.05
771.22	224.96
771.55	224.82
771.87	224.70
772.20	224.56
772.52	224.60
772.85	224.72
773.17	224.65
773.50	224.51
773.82	224.33
774.15	224.11
774.47	223.87
774.80	223.77
775.12	223.68
775.45	223.54
775.77	223.44
776.09	223.33
776.42	223.25
776.74	223.22
777.07	223.15
777.39	223.09
777.72	222.95
778.04	222.87
778.36	222.79
778.69	222.76
779.01	222.73
779.33	222.49
779.66	222.17
779.98	222.04
780.31	222.02
780.63	222.04
780.95	222.01
781.28	221.96
781.60	221.84
781.92	221.75
782.25	221.69
782.57	221.62
782.89	221.58
783.22	221.48
783.54	221.36
783.86	221.32
784.19	221.24
784.51	221.25
784.83	221.19
785.16	221.10
785.48	220.99
785.80	220.92
786.12	220.88
786.45	220.84
786.77	220.80
787.09	220.73
787.42	220.63
787.74	220.57
788.06	220.52
788.38	220.47
788.71	220.39
789.03	220.34
789.35	220.33
789.67	220.25
789.99	220.24
790.32	220.16
790.64	220.09
790.96	220.20
791.28	220.12
791.61	220.05
791.93	220.03
792.25	219.99
792.57	220.13
792.89	220.03
793.21	219.98
793.54	219.93
793.86	219.86
794.18	219.79
794.50	219.71
794.82	219.68
795.14	219.67
795.47	219.68
795.79	219.62
796.11	219.52
796.43	219.44
796.75	219.38
797.07	219.38
797.39	219.33
797.71	219.17
798.04	219.11
798.36	219.09
798.68	219.06
799.00	219.04
799.32	218.86
799.64	218.84
799.96	218.85
800.28	218.86
800.60	218.83
800.92	218.83
801.24	218.80
801.56	218.77
801.89	218.71
802.21	218.68
802.53	218.66
802.85	218.68
803.17	218.77
803.49	218.71
803.81	218.69
804.13	218.66
804.45	218.59
804.77	218.60
805.09	218.56
805.41	218.53
805.73	218.49
806.05	218.42
806.37	218.41
806.69	218.32
807.01	218.28
807.33	218.26
807.65	218.15
807.97	218.21
808.28	218.15
808.60	218.11
808.92	218.08
809.24	218.16
809.56	218.10
809.88	217.98
810.20	217.98
810.52	217.96
810.84	217.90
811.16	217.86
811.48	217.80
811.80	217.83
812.12	217.81
812.43	217.80
812.75	217.79
813.07	217.74
813.39	217.72
813.71	217.67
814.03	217.65
814.35	217.63
814.67	217.56
814.98	217.53
815.30	217.53
815.62	217.45
815.94	217.31
816.26	217.32
816.58	217.29
816.89	217.31
817.21	217.24
817.53	217.21
817.85	217.21
818.17	217.17
818.48	217.07
818.80	217.07
819.12	217.04
819.44	216.98
819.76	216.93
820.07	216.93
820.39	216.89
820.71	216.89
821.03	216.90
821.34	216.83
821.66	216.86
821.98	216.82
822.30	216.83
822.61	216.93
822.93	216.89
823.25	216.85
823.57	216.80
823.88	216.85
824.20	216.83
824.52	216.85
824.83	216.84
825.15	216.80
825.47	216.78
825.79	216.76
826.10	216.71
826.42	216.72
826.74	216.74
827.05	216.72
827.37	216.70
827.69	216.65
828.00	216.64
828.32	216.61
828.64	216.62
828.95	216.72
829.27	216.63
829.58	216.62
829.90	216.64
830.22	216.60
830.53	216.53
830.85	216.52
831.17	216.47
831.48	216.48
831.80	216.52
832.11	216.49
832.43	216.46
832.75	216.47
833.06	216.58
833.38	216.47
833.69	216.47
834.01	216.46
834.32	216.44
834.64	216.45
834.96	216.45
835.27	216.45
835.59	216.37
835.90	216.33
836.22	216.30
836.53	216.26
836.85	216.27
837.16	216.45
837.48	216.47
837.79	216.50
838.11	216.47
838.42	216.46
838.74	216.48
839.05	216.44
839.37	216.47
839.68	216.35
840.00	216.34
840.31	216.37
840.63	216.34
840.94	216.33
841.26	216.29
841.57	216.28
841.88	216.29
842.20	216.26
842.51	216.22
842.83	216.24
843.14	216.41
843.46	216.40
843.77	216.30
844.08	216.26
844.40	216.22
844.71	216.23
845.03	216.21
845.34	216.18
845.65	216.18
845.97	216.17
846.28	216.17
846.60	216.19
846.91	216.15
847.22	216.15
847.54	216.23
847.85	216.25
848.16	216.23
848.48	216.16
848.79	216.26
849.10	216.29
849.42	216.26
849.73	216.04
850.04	216.04
850.36	215.96
850.67	215.97
850.98	215.95
851.30	215.97
851.61	215.96
851.92	215.95
852.23	216.00
852.55	216.01
852.86	216.00
853.17	216.04
853.49	216.08
853.80	216.10
854.11	216.08
854.42	216.12
854.74	216.08
855.05	216.10
855.36	215.98
855.67	215.99
855.99	216.00
856.30	216.27
856.61	216.24
856.92	216.23
857.23	216.23
857.55	216.25
857.86	216.22
858.17	216.24
858.48	216.21
858.79	216.20
859.11	216.18
859.42	216.16
859.73	216.11
860.04	216.08
860.35	216.03
860.66	215.95
860.98	215.91
861.29	215.94
861.60	215.94
861.91	215.97
862.22	215.91
862.53	215.89
862.84	215.61
863.16	215.68
863.47	215.64
863.78	215.62
864.09	215.62
864.40	215.63
864.71	215.59
865.02	215.58
865.33	215.58
865.64	215.56
865.95	215.56
866.27	215.70
866.58	215.70
866.89	215.74
867.20	215.75
867.51	215.71
867.82	215.72
868.13	215.77
868.44	215.70
868.75	215.76
869.06	215.77
869.37	215.84
869.68	215.76
869.99	215.82
870.30	215.83
870.61	215.84
870.92	215.84
871.23	215.84
871.54	215.90
871.85	215.92
872.16	215.94
872.47	215.92
872.78	215.80
873.09	215.81
873.40	215.76
873.71	215.79
874.02	215.81
874.33	215.76
874.64	215.72
874.95	215.78
875.26	215.70
875.56	215.70
875.87	215.67
876.18	215.65
876.49	215.87
876.80	215.87
877.11	215.84
877.42	215.81
877.73	215.84
878.04	215.78
878.35	215.76
878.66	215.75
878.96	215.76
879.27	215.75
879.58	215.74
879.89	215.74
880.20	215.83
880.51	215.84
880.82	215.84
881.12	215.88
881.43	215.84
881.74	215.83
882.05	215.83
882.36	215.83
882.67	215.89
882.97	215.62
883.28	215.58
883.59	215.58
883.90	215.60
884.21	215.58
884.51	215.60
884.82	215.58
885.13	215.59
885.44	215.60
885.74	215.60
886.05	215.58
886.36	215.60
886.67	215.47
886.98	215.50
887.28	215.54
887.59	215.50
887.90	215.48
888.20	215.47
888.51	215.51
888.82	215.47
889.13	215.47
889.43	215.67
889.74	215.65
890.05	215.65
890.35	215.65
890.66	215.63
890.97	215.57
891.28	215.56
891.58	215.53
891.89	215.51
892.20	215.50
892.50	215.48
892.81	215.48
893.12	215.51
893.42	215.44
893.73	215.43
894.04	215.44
894.34	215.46
894.65	215.48
894.95	215.46
895.26	215.48
895.57	215.57
895.87	215.35
896.18	215.40
896.48	215.42
896.79	215.41
897.10	215.45
897.40	215.49
897.71	215.49
898.01	215.49
898.32	215.53
898.63	215.49
898.93	215.51
899.24	215.47
899.54	215.47
899.85	215.45
900.15	215.44
900.46	215.42
900.76	215.45
901.07	215.45
901.38	215.42
901.68	215.44
901.99	215.35
902.29	215.39
902.60	215.35
902.90	215.30
903.21	215.32
903.51	215.31
903.82	215.31
904.12	215.31
904.43	215.36
904.73	215.35
905.03	215.39
905.34	215.57
905.64	215.59
905.95	215.58
906.25	215.57
906.56	215.57
906.86	215.58
907.17	215.56
907.47	215.58
907.77	215.57
908.08	215.51
908.38	215.48
908.69	215.46
908.99	215.49
909.30	215.53
909.60	215.53
909.90	215.54
910.21	215.49
910.51	215.49
910.81	215.48
911.12	215.49
911.42	215.48
911.73	215.28
912.03	215.28
912.33	215.30
912.64	215.33
912.94	215.34
913.24	215.30
913.55	215.27
913.85	215.28
914.15	215.35
914.46	215.40
914.76	215.37
915.06	215.41
915.37	215.38
915.67	215.35
915.97	215.35
916.27	215.30
916.58	215.32
916.88	215.28
917.18	215.27
917.49	215.42
917.79	215.43
918.09	215.43
918.39	215.53
918.70	215.52
919.00	215.51
919.30	215.59
919.60	215.57
919.91	215.57
920.21	215.56
920.51	215.49
920.81	215.47
921.12	215.53
921.42	215.50
921.72	215.53
922.02	215.53
922.32	215.56
922.63	215.58
922.93	215.66
923.23	215.70
923.53	215.68
923.83	215.49
924.13	215.48
924.44	215.50
924.74	215.49
925.04	215.55
925.34	215.55
925.64	215.48
925.94	215.50
926.24	215.62
926.55	215.60
926.85	215.65
927.15	215.64
927.45	215.63
927.75	215.63
928.05	215.63
928.35	215.62
928.65	215.66
928.95	215.65
929.26	215.60
929.56	215.66
929.86	215.66
930.16	215.68
930.46	215.66
930.76	215.68
931.06	215.59
931.36	215.50
931.66	215.54
931.96	215.54
932.26	215.55
932.56	215.45
932.86	215.45
933.16	215.44
933.46	215.44
933.76	215.39
934.06	215.42
934.36	215.51
934.66	215.52
934.96	215.47
935.26	215.50
935.56	215.52
935.86	215.44
936.16	215.42
936.46	215.40
936.76	215.40
937.06	215.38
937.36	215.40
937.66	215.40
937.96	215.35
938.26	215.32
938.56	215.29
938.86	215.28
939.16	215.33
939.46	215.35
939.76	215.35
940.06	215.33
940.35	215.29
940.65	215.16
940.95	215.17
941.25	215.14
941.55	215.10
941.85	215.09
942.15	215.12
942.45	215.18
942.75	215.19
943.04	215.16
943.34	215.13
943.64	215.10
943.94	215.10
944.24	215.10
944.54	215.10
944.84	215.14
945.13	215.13
945.43	215.11
945.73	215.09
946.03	215.08
946.33	215.10
946.62	215.09
946.92	215.11
947.22	215.12
947.52	215.13
947.82	215.16
948.11	215.13
948.41	215.09
948.71	215.04
949.01	215.05
949.31	215.06
949.60	215.08
949.90	215.12
950.20	215.11
950.50	215.13
950.79	215.12
951.09	215.11
951.39	215.14
951.69	215.10
951.98	215.12
952.28	215.16
952.58	215.13
952.87	215.16
953.17	215.18
953.47	215.12
953.76	215.11
954.06	215.06
954.36	215.01
954.66	215.00
954.95	215.05
955.25	215.07
955.55	215.12
955.84	215.10
956.14	215.14
956.44	215.14
956.73	215.12
957.03	215.12
957.32	215.11
957.62	215.08
957.92	215.13
958.21	215.12
958.51	215.32
958.81	215.36
959.10	215.36
959.40	215.40
959.69	215.44
959.99	215.47
960.29	215.48
960.58	215.50
960.88	215.59
961.17	215.55
961.47	215.53
961.76	215.51
962.06	215.52
962.36	215.47
962.65	215.46
962.95	215.48
963.24	215.47
963.54	215.47
963.83	215.49
964.13	215.48
964.42	215.43
964.72	215.29
965.01	215.26
965.31	215.23
965.60	215.18
965.90	215.33
966.19	215.30
966.49	215.34
966.78	215.32
967.08	215.31
967.37	215.31
967.67	215.29
967.96	215.29
968.26	215.28
968.55	215.32
968.85	215.31
969.14	215.27
969.43	215.28
969.73	215.29
970.02	215.28
970.32	215.25
970.61	215.25
970.91	215.16
971.20	215.17
971.49	215.20
971.79	215.21
972.08	215.08
972.38	215.10
972.67	215.07
972.96	215.13
973.26	215.09
973.55	215.13
973.85	215.14
974.14	215.13
974.43	215.15
974.73	215.10
975.02	215.13
975.31	215.13
975.61	215.13
975.90	215.11
976.19	215.07
976.49	215.08
976.78	215.11
977.07	215.11
977.37	215.08
977.66	215.07
977.95	215.05
978.24	215.04
978.54	215.09
978.83	215.06
979.12	215.01
979.42	215.00
979.71	214.97
980.00	214.98
980.29	214.96
980.59	214.94
980.88	215.01
981.17	214.97
981.46	214.99
981.76	214.99
982.05	215.07
982.34	215.13
982.63	215.12
982.93	215.12
983.22	215.20
983.51	215.22
983.80	215.25
984.09	215.30
984.39	215.29
984.68	215.24
984.97	215.28
985.26	215.29
985.55	215.34
985.85	215.31
986.14	215.33
986.43	215.35
986.72	215.31
987.01	215.25
987.30	215.27
987.59	215.25
987.89	215.27
988.18	215.21
988.47	215.17
988.76	215.15
989.05	215.11
989.34	215.06
989.63	215.13
989.92	215.09
990.22	215.04
990.51	215.02
990.80	215.02
991.09	215.01
991.38	215.03
991.67	214.98
991.96	214.96
992.25	214.94
992.54	214.93
992.83	214.95
993.12	214.93
993.41	214.96
993.70	215.04
993.99	215.08
994.28	215.09
994.58	215.13
994.87	215.13
995.16	215.19
995.45	215.15
995.74	215.08
996.03	215.12
996.32	215.18
996.61	215.20
996.90	215.19
997.19	215.21
997.48	215.20
997.77	215.21
998.06	215.23
998.34	215.24
998.63	215.24
998.92	215.22
999.21	215.31
999.50	215.31
999.79	215.24
1000.08	215.20
1000.37	215.22
1000.66	215.17
1000.95	215.25
1001.24	215.21
1001.53	215.26
1001.82	215.22
1002.11	215.20
1002.40	215.16
1002.68	215.25
1002.97	215.40
1003.26	215.37
1003.55	215.32
1003.84	215.34
1004.13	215.41
1004.42	215.40
1004.71	215.40
1004.99	215.40
1005.28	215.43
1005.57	215.43
1005.86	215.42
1006.15	215.38
1006.44	215.32
1006.72	215.40
1007.01	215.33
1007.30	215.38
1007.59	215.33
1007.88	215.35
1008.17	215.34
1008.45	215.35
1008.74	215.25
1009.03	215.14
1009.32	215.11
1009.60	215.12
1009.89	215.09
1010.18	214.98
1010.47	214.97
1010.76	214.96
1011.04	214.98
1011.33	214.99
1011.62	214.95
1011.91	214.95
1012.19	214.98
1012.48	214.99
1012.77	214.93
1013.05	215.01
1013.34	214.98
1013.63	214.97
1013.92	214.98
1014.20	214.95
1014.49	214.92
1014.78	214.94
1015.06	214.87
1015.35	214.91
1015.64	214.95
1015.92	214.99
1016.21	215.00
1016.50	215.02
1016.78	215.01
1017.07	215.02
1017.36	214.95
1017.64	214.96
1017.93	214.98
1018.22	214.94
1018.50	214.94
1018.79	214.95
1019.08	214.85
1019.36	214.84
1019.65	214.84
1019.93	214.88
1020.22	214.91
1020.51	215.07
1020.79	215.04
1021.08	214.28
1021.36	214.75
1021.65	214.69
1021.94	214.81
1022.22	214.71
1022.51	214.45
1022.79	215.88
1023.08	214.95
1023.36	218.12
1023.65	214.43
>>>>>End Processed Spectral Data<<<<<
