SpectraSuite Data File
++++++++++++++++++++++++++++++++++++
Date: Tue Jan 29 16:29:14 EST 2013
User: group
Dark Spectrum Present: No
Reference Spectrum Present: No
Number of Sampled Component Spectra: 1
Spectrometers: USB2E7196
Integration Time (usec): 65000 (USB2E7196)
Spectra Averaged: 100 (USB2E7196)
Boxcar Smoothing: 10 (USB2E7196)
Correct for Electrical Dark: No (USB2E7196)
Strobe/Lamp Enabled: No (USB2E7196)
Correct for Detector Non-linearity: No (USB2E7196)
Correct for Stray Light: No (USB2E7196)
Number of Pixels in Processed Spectrum: 2048
>>>>>Begin Processed Spectral Data<<<<<
339.09	0.00
339.48	201.53
339.86	202.59
340.24	204.41
340.63	206.07
341.01	210.13
341.39	208.00
341.78	210.26
342.16	211.14
342.54	211.93
342.93	200.88
343.31	211.03
343.69	211.57
344.07	212.08
344.46	212.53
344.84	212.94
345.22	213.14
345.60	213.45
345.99	213.67
346.37	213.85
346.75	213.96
347.13	214.04
347.52	214.15
347.90	214.30
348.28	214.37
348.66	214.47
349.05	214.47
349.43	214.51
349.81	214.58
350.19	214.67
350.57	214.75
350.96	214.86
351.34	214.95
351.72	215.11
352.10	215.23
352.48	215.30
352.87	215.36
353.25	215.43
353.63	215.53
354.01	215.60
354.39	215.68
354.77	215.79
355.15	215.92
355.54	215.99
355.92	216.02
356.30	216.14
356.68	216.38
357.06	216.45
357.44	216.52
357.82	216.58
358.20	216.71
358.58	216.80
358.97	216.89
359.35	217.03
359.73	217.14
360.11	217.21
360.49	217.30
360.87	217.42
361.25	217.49
361.63	217.58
362.01	217.66
362.39	217.68
362.77	217.74
363.15	217.76
363.53	217.78
363.91	217.80
364.29	217.76
364.67	217.57
365.05	217.61
365.43	217.66
365.81	217.71
366.19	217.79
366.57	217.88
366.95	217.90
367.33	217.86
367.71	217.85
368.09	217.87
368.47	217.89
368.85	217.85
369.23	217.90
369.61	217.81
369.99	217.84
370.37	217.86
370.75	217.94
371.13	217.91
371.51	217.85
371.89	217.84
372.27	217.85
372.65	217.85
373.03	217.82
373.41	217.79
373.78	217.74
374.16	217.57
374.54	217.46
374.92	217.40
375.30	217.35
375.68	217.26
376.06	217.22
376.44	217.14
376.82	217.10
377.19	217.05
377.57	217.00
377.95	216.88
378.33	216.79
378.71	216.62
379.09	216.60
379.47	216.59
379.84	216.51
380.22	216.42
380.60	216.33
380.98	216.26
381.36	216.21
381.73	216.14
382.11	216.14
382.49	216.08
382.87	215.99
383.25	215.91
383.62	216.10
384.00	216.02
384.38	215.97
384.76	215.95
385.13	215.98
385.51	215.96
385.89	215.91
386.27	215.90
386.64	215.87
387.02	215.80
387.40	215.74
387.78	215.70
388.15	215.70
388.53	215.64
388.91	215.61
389.29	215.55
389.66	215.57
390.04	215.51
390.42	215.54
390.79	215.55
391.17	215.58
391.55	215.32
391.92	215.28
392.30	215.31
392.68	215.27
393.05	215.23
393.43	215.25
393.81	215.25
394.18	215.22
394.56	215.23
394.94	215.28
395.31	215.26
395.69	215.34
396.06	215.39
396.44	215.46
396.82	215.50
397.19	215.65
397.57	215.65
397.95	215.72
398.32	215.68
398.70	215.73
399.07	215.81
399.45	215.87
399.82	215.94
400.20	215.96
400.58	216.01
400.95	215.97
401.33	216.05
401.70	216.27
402.08	216.39
402.45	216.45
402.83	216.58
403.20	216.71
403.58	216.82
403.95	216.97
404.33	217.07
404.71	217.21
405.08	217.46
405.46	217.64
405.83	217.85
406.21	218.05
406.58	218.28
406.96	218.47
407.33	218.73
407.70	219.02
408.08	219.51
408.45	219.86
408.83	220.30
409.20	220.64
409.58	220.94
409.95	221.40
410.33	221.91
410.70	222.36
411.08	222.93
411.45	223.49
411.82	224.06
412.20	224.78
412.57	225.59
412.95	226.15
413.32	226.96
413.69	227.79
414.07	228.68
414.44	229.68
414.82	230.74
415.19	231.92
415.56	233.16
415.94	234.32
416.31	235.72
416.68	237.09
417.06	238.73
417.43	240.26
417.81	241.98
418.18	243.73
418.55	245.66
418.93	247.68
419.30	249.78
419.67	251.99
420.04	254.26
420.42	256.63
420.79	259.45
421.16	262.21
421.54	265.09
421.91	268.06
422.28	271.13
422.66	274.41
423.03	277.69
423.40	281.07
423.77	284.63
424.15	288.28
424.52	292.12
424.89	296.23
425.26	300.31
425.64	304.19
426.01	308.51
426.38	313.00
426.75	317.55
427.13	322.30
427.50	327.21
427.87	332.42
428.24	337.62
428.61	342.59
428.99	348.12
429.36	354.15
429.73	360.05
430.10	365.94
430.47	372.01
430.85	378.28
431.22	384.90
431.59	392.01
431.96	398.85
432.33	406.31
432.70	413.51
433.08	422.00
433.45	430.09
433.82	438.09
434.19	446.93
434.56	455.57
434.93	463.84
435.30	472.16
435.68	481.24
436.05	490.15
436.42	499.05
436.79	507.13
437.16	515.87
437.53	525.12
437.90	534.20
438.27	543.10
438.64	552.28
439.01	560.77
439.38	568.34
439.75	575.66
440.13	584.17
440.50	592.19
440.87	598.54
441.24	605.05
441.61	612.32
441.98	617.65
442.35	624.02
442.72	630.46
443.09	636.52
443.46	640.30
443.83	642.88
444.20	645.08
444.57	648.27
444.94	649.70
445.31	651.18
445.68	652.63
446.05	653.29
446.42	652.54
446.79	651.64
447.16	650.55
447.53	649.79
447.90	646.42
448.27	643.14
448.64	638.50
449.01	635.25
449.37	629.36
449.74	623.69
450.11	616.80
450.48	609.35
450.85	601.86
451.22	595.36
451.59	589.25
451.96	583.39
452.33	575.53
452.70	568.44
453.07	559.96
453.43	551.27
453.80	542.93
454.17	534.92
454.54	527.38
454.91	519.26
455.28	511.27
455.65	503.81
456.02	496.30
456.38	490.06
456.75	482.20
457.12	475.67
457.49	469.21
457.86	463.03
458.23	457.64
458.59	451.73
458.96	445.73
459.33	440.37
459.70	435.00
460.07	430.76
460.43	425.85
460.80	421.25
461.17	417.30
461.54	413.15
461.91	409.12
462.27	405.01
462.64	401.56
463.01	397.83
463.38	394.15
463.74	390.44
464.11	387.18
464.48	384.36
464.85	381.30
465.21	378.88
465.58	376.19
465.95	373.09
466.32	370.50
466.68	367.92
467.05	365.35
467.42	362.85
467.78	360.15
468.15	357.61
468.52	355.71
468.88	353.25
469.25	351.03
469.62	349.26
469.98	347.30
470.35	345.51
470.72	343.76
471.08	341.96
471.45	340.47
471.82	338.96
472.18	337.30
472.55	336.10
472.92	334.72
473.28	333.56
473.65	332.42
474.02	331.27
474.38	330.37
474.75	329.61
475.11	328.79
475.48	328.21
475.85	327.77
476.21	327.30
476.58	326.94
476.94	326.70
477.31	326.39
477.67	326.16
478.04	325.97
478.41	325.96
478.77	326.07
479.14	326.02
479.50	326.14
479.87	326.44
480.23	326.75
480.60	326.96
480.96	327.23
481.33	327.82
481.69	328.40
482.06	328.94
482.42	329.43
482.79	330.05
483.15	330.91
483.52	331.86
483.88	332.74
484.25	333.68
484.61	334.70
484.98	335.77
485.34	337.09
485.71	338.50
486.07	339.90
486.44	341.31
486.80	342.96
487.17	344.62
487.53	346.49
487.90	348.35
488.26	350.41
488.62	352.56
488.99	354.60
489.35	356.77
489.72	359.15
490.08	361.70
490.44	364.26
490.81	366.96
491.17	369.66
491.54	372.68
491.90	375.72
492.26	379.03
492.63	382.46
492.99	385.92
493.36	389.60
493.72	393.52
494.08	397.53
494.45	401.75
494.81	406.15
495.17	410.59
495.54	415.30
495.90	420.10
496.26	425.09
496.63	430.30
496.99	435.77
497.35	441.33
497.72	447.11
498.08	453.07
498.44	459.15
498.80	465.59
499.17	472.11
499.53	478.82
499.89	485.74
500.26	492.66
500.62	499.76
500.98	507.17
501.34	514.67
501.71	522.46
502.07	530.29
502.43	538.35
502.79	546.53
503.16	554.95
503.52	563.56
503.88	572.32
504.24	581.26
504.60	590.29
504.97	599.60
505.33	608.99
505.69	618.84
506.05	628.78
506.41	638.72
506.78	648.79
507.14	659.12
507.50	669.61
507.86	680.39
508.22	691.32
508.59	702.05
508.95	713.16
509.31	724.49
509.67	735.98
510.03	747.41
510.39	759.22
510.75	771.17
511.12	783.19
511.48	795.36
511.84	807.78
512.20	820.24
512.56	833.00
512.92	845.88
513.28	858.57
513.64	871.40
514.00	884.31
514.37	897.47
514.73	910.73
515.09	923.76
515.45	936.80
515.81	949.94
516.17	963.48
516.53	976.83
516.89	990.09
517.25	1003.36
517.61	1017.03
517.97	1030.52
518.33	1043.72
518.69	1057.37
519.05	1071.16
519.41	1084.97
519.77	1098.94
520.13	1112.33
520.49	1125.60
520.85	1139.23
521.21	1152.65
521.57	1166.46
521.93	1179.57
522.29	1193.36
522.65	1207.23
523.01	1221.03
523.37	1234.26
523.73	1247.68
524.09	1261.05
524.45	1274.59
524.81	1288.26
525.17	1301.76
525.53	1315.07
525.89	1328.52
526.25	1341.77
526.61	1354.76
526.97	1367.92
527.33	1381.06
527.68	1394.65
528.04	1408.34
528.40	1421.55
528.76	1435.12
529.12	1448.03
529.48	1461.50
529.84	1473.89
530.20	1486.76
530.56	1499.40
530.91	1512.85
531.27	1525.85
531.63	1538.65
531.99	1551.56
532.35	1563.78
532.71	1576.29
533.07	1589.36
533.42	1601.75
533.78	1614.04
534.14	1626.21
534.50	1637.55
534.86	1649.31
535.21	1660.32
535.57	1671.97
535.93	1683.34
536.29	1694.55
536.65	1706.23
537.00	1717.24
537.36	1728.87
537.72	1739.89
538.08	1751.38
538.44	1762.41
538.79	1773.56
539.15	1784.65
539.51	1795.54
539.87	1807.04
540.22	1817.96
540.58	1828.92
540.94	1839.87
541.29	1850.15
541.65	1860.01
542.01	1870.67
542.37	1880.72
542.72	1890.91
543.08	1900.63
543.44	1911.18
543.79	1920.56
544.15	1930.04
544.51	1940.26
544.87	1950.08
545.22	1959.40
545.58	1968.38
545.94	1977.48
546.29	1986.07
546.65	1994.49
547.01	2002.77
547.36	2010.59
547.72	2018.46
548.07	2026.02
548.43	2033.91
548.79	2041.84
549.14	2049.99
549.50	2058.53
549.86	2066.47
550.21	2074.03
550.57	2081.85
550.92	2088.72
551.28	2096.14
551.64	2103.52
551.99	2110.92
552.35	2118.17
552.70	2125.18
553.06	2131.83
553.41	2138.00
553.77	2144.53
554.13	2151.04
554.48	2158.09
554.84	2165.24
555.19	2171.81
555.55	2178.41
555.90	2184.79
556.26	2191.65
556.61	2197.85
556.97	2202.75
557.32	2208.62
557.68	2214.97
558.03	2220.84
558.39	2226.26
558.74	2232.38
559.10	2237.94
559.45	2243.56
559.81	2249.16
560.16	2254.67
560.52	2260.69
560.87	2267.13
561.23	2273.25
561.58	2279.86
561.94	2285.09
562.29	2289.84
562.64	2295.96
563.00	2301.71
563.35	2307.29
563.71	2313.21
564.06	2318.92
564.42	2324.89
564.77	2330.09
565.12	2335.52
565.48	2340.73
565.83	2346.26
566.19	2351.66
566.54	2357.03
566.89	2361.78
567.25	2366.40
567.60	2372.28
567.96	2377.49
568.31	2382.05
568.66	2386.17
569.02	2390.06
569.37	2393.78
569.72	2398.11
570.08	2401.66
570.43	2404.70
570.78	2407.92
571.14	2410.38
571.49	2413.59
571.84	2417.14
572.20	2419.99
572.55	2422.90
572.90	2425.06
573.26	2427.87
573.61	2430.52
573.96	2432.66
574.31	2434.45
574.67	2436.38
575.02	2437.02
575.37	2438.42
575.72	2439.21
576.08	2440.75
576.43	2440.92
576.78	2441.46
577.13	2443.18
577.49	2444.23
577.84	2445.19
578.19	2446.39
578.54	2446.92
578.90	2447.64
579.25	2447.38
579.60	2447.26
579.95	2446.60
580.30	2446.67
580.66	2446.03
581.01	2444.21
581.36	2441.96
581.71	2440.69
582.06	2439.51
582.42	2438.65
582.77	2436.32
583.12	2434.68
583.47	2433.23
583.82	2432.56
584.17	2431.25
584.53	2429.08
584.88	2427.08
585.23	2425.32
585.58	2423.07
585.93	2421.06
586.28	2418.81
586.63	2416.34
586.98	2414.22
587.34	2412.16
587.69	2409.84
588.04	2407.73
588.39	2406.42
588.74	2403.82
589.09	2401.13
589.44	2397.95
589.79	2395.45
590.14	2393.53
590.49	2390.59
590.84	2386.72
591.19	2383.55
591.54	2380.24
591.89	2376.15
592.25	2372.76
592.60	2368.55
592.95	2364.33
593.30	2360.16
593.65	2355.73
594.00	2351.30
594.35	2348.23
594.70	2343.60
595.05	2338.77
595.40	2333.19
595.75	2327.17
596.10	2323.60
596.45	2318.74
596.80	2314.05
597.15	2308.62
597.50	2302.65
597.85	2297.78
598.19	2292.53
598.54	2286.66
598.89	2281.51
599.24	2277.02
599.59	2270.84
599.94	2264.99
600.29	2258.99
600.64	2252.87
600.99	2246.03
601.34	2240.54
601.69	2233.39
602.04	2226.81
602.39	2220.14
602.74	2214.13
603.08	2208.72
603.43	2201.92
603.78	2194.90
604.13	2187.82
604.48	2180.55
604.83	2174.39
605.18	2168.15
605.53	2161.20
605.87	2154.20
606.22	2147.28
606.57	2139.25
606.92	2131.24
607.27	2124.27
607.62	2117.51
607.96	2110.55
608.31	2104.18
608.66	2096.43
609.01	2088.87
609.36	2081.72
609.70	2074.10
610.05	2066.30
610.40	2058.00
610.75	2049.84
611.10	2042.16
611.44	2033.23
611.79	2024.56
612.14	2014.63
612.49	2003.78
612.83	1994.40
613.18	1985.13
613.53	1975.76
613.88	1966.10
614.22	1957.46
614.57	1947.50
614.92	1936.86
615.27	1926.62
615.61	1916.30
615.96	1906.40
616.31	1896.67
616.65	1887.21
617.00	1877.21
617.35	1867.35
617.70	1857.38
618.04	1847.25
618.39	1836.99
618.74	1827.23
619.08	1817.44
619.43	1808.49
619.78	1800.12
620.12	1791.41
620.47	1781.79
620.82	1771.49
621.16	1761.59
621.51	1751.43
621.85	1741.49
622.20	1731.13
622.55	1720.56
622.89	1710.54
623.24	1700.83
623.59	1690.89
623.93	1680.73
624.28	1671.10
624.62	1661.00
624.97	1650.77
625.32	1640.95
625.66	1632.02
626.01	1623.31
626.35	1614.02
626.70	1603.95
627.04	1593.92
627.39	1583.77
627.73	1574.38
628.08	1565.35
628.43	1555.74
628.77	1546.59
629.12	1537.63
629.46	1529.75
629.81	1521.25
630.15	1511.71
630.50	1501.86
630.84	1491.41
631.19	1481.44
631.53	1472.13
631.88	1461.85
632.22	1451.72
632.57	1442.36
632.91	1432.14
633.26	1422.09
633.60	1412.44
633.95	1403.14
634.29	1393.65
634.64	1384.29
634.98	1374.30
635.32	1364.87
635.67	1356.34
636.01	1347.02
636.36	1337.23
636.70	1327.68
637.05	1318.33
637.39	1309.36
637.73	1300.68
638.08	1293.05
638.42	1284.84
638.77	1275.90
639.11	1267.61
639.45	1259.83
639.80	1251.10
640.14	1242.41
640.49	1233.50
640.83	1224.53
641.17	1216.27
641.52	1208.00
641.86	1199.43
642.20	1191.40
642.55	1182.69
642.89	1173.77
643.23	1165.00
643.58	1156.87
643.92	1147.68
644.26	1138.87
644.61	1130.33
644.95	1121.42
645.29	1112.13
645.64	1102.79
645.98	1094.18
646.32	1086.22
646.66	1077.59
647.01	1069.16
647.35	1060.87
647.69	1052.41
648.04	1044.07
648.38	1035.16
648.72	1026.20
649.06	1017.64
649.41	1009.42
649.75	1001.51
650.09	993.46
650.43	985.43
650.78	976.99
651.12	969.27
651.46	961.73
651.80	954.47
652.14	947.22
652.49	939.67
652.83	932.30
653.17	924.53
653.51	916.83
653.85	909.52
654.20	902.29
654.54	894.70
654.88	887.47
655.22	880.20
655.56	873.10
655.90	866.29
656.25	859.53
656.59	852.63
656.93	845.51
657.27	838.36
657.61	831.29
657.95	825.11
658.29	819.08
658.64	812.97
658.98	806.45
659.32	799.78
659.66	793.50
660.00	787.06
660.34	780.95
660.68	774.75
661.02	768.27
661.36	762.20
661.70	756.35
662.05	750.65
662.39	745.08
662.73	739.66
663.07	734.24
663.41	728.52
663.75	722.67
664.09	716.84
664.43	711.35
664.77	705.90
665.11	700.02
665.45	694.04
665.79	688.12
666.13	682.32
666.47	676.75
666.81	671.26
667.15	665.85
667.49	660.61
667.83	655.28
668.17	650.05
668.51	644.86
668.85	639.94
669.19	634.97
669.53	629.93
669.87	624.72
670.21	619.90
670.55	615.10
670.89	610.57
671.23	606.27
671.57	601.84
671.91	597.52
672.25	593.32
672.58	589.16
672.92	585.12
673.26	581.14
673.60	577.20
673.94	573.28
674.28	569.70
674.62	565.91
674.96	562.16
675.30	558.58
675.64	554.87
675.97	551.24
676.31	547.59
676.65	543.91
676.99	540.49
677.33	536.67
677.67	533.00
678.01	529.11
678.34	525.42
678.68	521.85
679.02	518.21
679.36	514.47
679.70	510.80
680.04	507.12
680.37	503.59
680.71	500.23
681.05	496.99
681.39	493.62
681.73	490.39
682.06	487.25
682.40	484.12
682.74	480.87
683.08	477.60
683.42	474.39
683.75	471.30
684.09	468.15
684.43	465.27
684.77	462.29
685.10	459.40
685.44	456.48
685.78	453.50
686.12	450.71
686.45	447.97
686.79	445.23
687.13	442.70
687.46	440.02
687.80	437.30
688.14	434.39
688.48	431.75
688.81	429.07
689.15	426.53
689.49	423.89
689.82	421.33
690.16	418.67
690.50	416.18
690.83	413.68
691.17	411.14
691.51	408.64
691.84	406.36
692.18	404.11
692.52	401.78
692.85	399.65
693.19	397.44
693.52	395.24
693.86	393.01
694.20	390.73
694.53	388.62
694.87	386.43
695.21	384.26
695.54	382.07
695.88	379.86
696.21	377.58
696.55	375.42
696.88	373.35
697.22	371.40
697.56	369.46
697.89	367.52
698.23	365.76
698.56	363.95
698.90	362.13
699.23	360.20
699.57	358.34
699.90	356.45
700.24	354.64
700.58	352.85
700.91	351.15
701.25	349.58
701.58	347.92
701.92	346.31
702.25	344.73
702.59	343.07
702.92	341.52
703.26	339.97
703.59	338.50
703.93	337.19
704.26	335.72
704.60	334.20
704.93	332.74
705.26	331.22
705.60	329.69
705.93	328.19
706.27	326.84
706.60	325.55
706.94	324.29
707.27	322.85
707.61	321.46
707.94	320.12
708.27	318.63
708.61	317.20
708.94	315.77
709.28	314.43
709.61	313.15
709.94	311.91
710.28	310.64
710.61	309.42
710.95	307.96
711.28	306.89
711.61	305.66
711.95	304.49
712.28	303.25
712.61	302.07
712.95	300.99
713.28	299.94
713.61	298.84
713.95	297.68
714.28	296.67
714.61	295.60
714.95	294.54
715.28	293.46
715.61	292.40
715.95	291.43
716.28	290.46
716.61	289.52
716.95	288.51
717.28	287.56
717.61	286.54
717.94	285.65
718.28	284.58
718.61	283.70
718.94	282.74
719.27	281.89
719.61	281.05
719.94	280.12
720.27	279.11
720.60	278.17
720.94	277.35
721.27	276.55
721.60	275.89
721.93	275.15
722.27	274.50
722.60	273.82
722.93	273.08
723.26	272.43
723.59	271.73
723.93	271.08
724.26	270.42
724.59	269.81
724.92	269.23
725.25	268.68
725.59	268.12
725.92	267.59
726.25	266.99
726.58	266.44
726.91	265.85
727.24	265.36
727.57	264.79
727.91	264.19
728.24	263.64
728.57	263.05
728.90	262.53
729.23	261.88
729.56	261.40
729.89	260.89
730.22	260.27
730.55	259.72
730.89	259.19
731.22	258.64
731.55	258.08
731.88	257.51
732.21	256.92
732.54	256.36
732.87	255.86
733.20	255.35
733.53	254.83
733.86	254.42
734.19	253.89
734.52	253.46
734.85	253.16
735.18	252.64
735.51	252.22
735.84	251.76
736.17	251.40
736.50	250.88
736.83	250.70
737.16	250.35
737.49	249.95
737.82	249.53
738.15	249.21
738.48	248.82
738.81	248.43
739.14	248.05
739.47	247.66
739.80	247.28
740.13	246.97
740.46	246.57
740.79	246.11
741.12	245.73
741.45	245.37
741.78	244.92
742.11	244.70
742.44	244.30
742.77	243.98
743.10	243.65
743.43	243.27
743.75	242.67
744.08	242.59
744.41	242.23
744.74	241.87
745.07	241.49
745.40	241.21
745.73	240.96
746.06	240.65
746.39	240.33
746.71	239.97
747.04	239.60
747.37	239.28
747.70	239.06
748.03	238.76
748.36	238.51
748.68	238.20
749.01	237.80
749.34	237.51
749.67	237.20
750.00	236.92
750.33	236.79
750.65	236.56
750.98	236.01
751.31	235.79
751.64	235.56
751.97	235.41
752.29	235.13
752.62	234.76
752.95	234.45
753.28	234.22
753.60	233.98
753.93	233.80
754.26	233.57
754.59	233.24
754.91	233.00
755.24	232.70
755.57	232.46
755.90	232.24
756.22	232.00
756.55	231.71
756.88	231.47
757.20	231.14
757.53	230.88
757.86	230.67
758.19	230.46
758.51	230.26
758.84	229.99
759.17	229.78
759.49	229.64
759.82	229.59
760.15	229.39
760.47	229.23
760.80	228.97
761.13	228.84
761.45	228.69
761.78	228.55
762.11	228.39
762.43	228.20
762.76	228.02
763.08	227.89
763.41	227.79
763.74	227.59
764.06	227.45
764.39	227.30
764.71	227.14
765.04	226.96
765.37	226.80
765.69	226.61
766.02	226.46
766.34	226.30
766.67	226.09
767.00	225.98
767.32	225.99
767.65	226.03
767.97	225.85
768.30	225.70
768.62	225.52
768.95	225.36
769.27	225.23
769.60	225.13
769.92	224.94
770.25	224.79
770.57	224.64
770.90	224.49
771.22	224.32
771.55	224.23
771.87	224.11
772.20	223.99
772.52	224.05
772.85	224.20
773.17	224.11
773.50	223.99
773.82	223.88
774.15	223.67
774.47	223.41
774.80	223.33
775.12	223.21
775.45	223.12
775.77	223.04
776.09	223.00
776.42	222.92
776.74	222.93
777.07	222.79
777.39	222.77
777.72	222.69
778.04	222.69
778.36	222.58
778.69	222.48
779.01	222.41
779.33	222.19
779.66	221.88
779.98	221.76
780.31	221.70
780.63	221.73
780.95	221.65
781.28	221.56
781.60	221.47
781.92	221.42
782.25	221.37
782.57	221.32
782.89	221.25
783.22	221.16
783.54	221.05
783.86	220.99
784.19	220.89
784.51	220.90
784.83	220.82
785.16	220.73
785.48	220.71
785.80	220.65
786.12	220.56
786.45	220.51
786.77	220.48
787.09	220.40
787.42	220.25
787.74	220.18
788.06	220.14
788.38	220.05
788.71	219.98
789.03	219.93
789.35	219.91
789.67	219.83
789.99	219.78
790.32	219.71
790.64	219.72
790.96	219.84
791.28	219.71
791.61	219.65
791.93	219.63
792.25	219.57
792.57	219.66
792.89	219.58
793.21	219.51
793.54	219.44
793.86	219.37
794.18	219.34
794.50	219.27
794.82	219.23
795.14	219.25
795.47	219.25
795.79	219.23
796.11	219.10
796.43	219.03
796.75	218.96
797.07	218.93
797.39	218.86
797.71	218.65
798.04	218.63
798.36	218.58
798.68	218.52
799.00	218.50
799.32	218.36
799.64	218.37
799.96	218.32
800.28	218.32
800.60	218.26
800.92	218.22
801.24	218.16
801.56	218.16
801.89	218.08
802.21	218.04
802.53	217.95
802.85	217.97
803.17	218.03
803.49	217.97
803.81	217.90
804.13	217.85
804.45	217.81
804.77	217.77
805.09	217.71
805.41	217.68
805.73	217.61
806.05	217.52
806.37	217.48
806.69	217.44
807.01	217.40
807.33	217.38
807.65	217.28
807.97	217.37
808.28	217.28
808.60	217.26
808.92	217.18
809.24	217.28
809.56	217.20
809.88	217.11
810.20	217.12
810.52	217.14
810.84	217.10
811.16	217.02
811.48	216.98
811.80	217.06
812.12	217.00
812.43	217.01
812.75	216.99
813.07	216.96
813.39	216.93
813.71	216.88
814.03	216.85
814.35	216.83
814.67	216.71
814.98	216.67
815.30	216.65
815.62	216.61
815.94	216.45
816.26	216.44
816.58	216.38
816.89	216.37
817.21	216.31
817.53	216.30
817.85	216.33
818.17	216.28
818.48	216.18
818.80	216.21
819.12	216.14
819.44	216.08
819.76	216.02
820.07	216.01
820.39	215.98
820.71	215.95
821.03	215.95
821.34	215.90
821.66	215.94
821.98	215.95
822.30	215.94
822.61	216.07
822.93	216.03
823.25	216.05
823.57	215.97
823.88	215.97
824.20	215.97
824.52	215.97
824.83	215.98
825.15	215.96
825.47	215.95
825.79	215.99
826.10	215.98
826.42	215.99
826.74	216.00
827.05	215.96
827.37	215.97
827.69	215.95
828.00	215.95
828.32	215.91
828.64	215.88
828.95	215.97
829.27	215.89
829.58	215.87
829.90	215.86
830.22	215.91
830.53	215.88
830.85	215.85
831.17	215.80
831.48	215.76
831.80	215.75
832.11	215.69
832.43	215.63
832.75	215.61
833.06	215.69
833.38	215.61
833.69	215.64
834.01	215.63
834.32	215.61
834.64	215.59
834.96	215.60
835.27	215.60
835.59	215.54
835.90	215.50
836.22	215.51
836.53	215.46
836.85	215.42
837.16	215.61
837.48	215.61
837.79	215.67
838.11	215.72
838.42	215.70
838.74	215.73
839.05	215.71
839.37	215.68
839.68	215.58
840.00	215.58
840.31	215.58
840.63	215.59
840.94	215.59
841.26	215.57
841.57	215.54
841.88	215.55
842.20	215.53
842.51	215.49
842.83	215.49
843.14	215.69
843.46	215.73
843.77	215.60
844.08	215.57
844.40	215.47
844.71	215.40
845.03	215.39
845.34	215.38
845.65	215.37
845.97	215.40
846.28	215.39
846.60	215.40
846.91	215.36
847.22	215.34
847.54	215.34
847.85	215.33
848.16	215.32
848.48	215.26
848.79	215.30
849.10	215.32
849.42	215.31
849.73	215.08
850.04	215.01
850.36	214.94
850.67	214.98
850.98	214.99
851.30	215.02
851.61	215.02
851.92	215.00
852.23	215.10
852.55	215.12
852.86	215.12
853.17	215.12
853.49	215.17
853.80	215.20
854.11	215.21
854.42	215.22
854.74	215.17
855.05	215.19
855.36	215.09
855.67	215.14
855.99	215.15
856.30	215.41
856.61	215.44
856.92	215.40
857.23	215.41
857.55	215.39
857.86	215.36
858.17	215.38
858.48	215.36
858.79	215.30
859.11	215.32
859.42	215.29
859.73	215.25
860.04	215.22
860.35	215.15
860.66	215.09
860.98	215.09
861.29	215.12
861.60	215.11
861.91	215.15
862.22	215.06
862.53	215.02
862.84	214.79
863.16	214.82
863.47	214.83
863.78	214.81
864.09	214.87
864.40	214.87
864.71	214.84
865.02	214.85
865.33	214.77
865.64	214.73
865.95	214.75
866.27	214.90
866.58	214.89
866.89	214.91
867.20	214.95
867.51	214.90
867.82	214.90
868.13	214.94
868.44	214.92
868.75	214.94
869.06	214.92
869.37	214.92
869.68	214.87
869.99	214.92
870.30	214.90
870.61	214.89
870.92	214.87
871.23	214.84
871.54	214.86
871.85	214.95
872.16	214.97
872.47	214.96
872.78	214.81
873.09	214.82
873.40	214.79
873.71	214.79
874.02	214.82
874.33	214.80
874.64	214.72
874.95	214.74
875.26	214.68
875.56	214.69
875.87	214.67
876.18	214.64
876.49	214.82
876.80	214.81
877.11	214.77
877.42	214.80
877.73	214.83
878.04	214.81
878.35	214.81
878.66	214.77
878.96	214.76
879.27	214.78
879.58	214.78
879.89	214.76
880.20	214.82
880.51	214.80
880.82	214.79
881.12	214.82
881.43	214.76
881.74	214.77
882.05	214.74
882.36	214.76
882.67	214.79
882.97	214.54
883.28	214.55
883.59	214.55
883.90	214.55
884.21	214.60
884.51	214.58
884.82	214.55
885.13	214.58
885.44	214.58
885.74	214.55
886.05	214.55
886.36	214.57
886.67	214.48
886.98	214.62
887.28	214.64
887.59	214.63
887.90	214.66
888.20	214.65
888.51	214.71
888.82	214.71
889.13	214.72
889.43	214.91
889.74	214.89
890.05	214.88
890.35	214.86
890.66	214.79
890.97	214.79
891.28	214.81
891.58	214.79
891.89	214.81
892.20	214.83
892.50	214.80
892.81	214.79
893.12	214.80
893.42	214.67
893.73	214.67
894.04	214.65
894.34	214.67
894.65	214.69
894.95	214.66
895.26	214.65
895.57	214.75
895.87	214.56
896.18	214.58
896.48	214.57
896.79	214.58
897.10	214.65
897.40	214.65
897.71	214.64
898.01	214.62
898.32	214.62
898.63	214.58
898.93	214.60
899.24	214.59
899.54	214.58
899.85	214.58
900.15	214.57
900.46	214.60
900.76	214.61
901.07	214.60
901.38	214.62
901.68	214.66
901.99	214.55
902.29	214.59
902.60	214.58
902.90	214.58
903.21	214.56
903.51	214.52
903.82	214.57
904.12	214.58
904.43	214.59
904.73	214.59
905.03	214.61
905.34	214.81
905.64	214.83
905.95	214.81
906.25	214.82
906.56	214.83
906.86	214.82
907.17	214.79
907.47	214.78
907.77	214.77
908.08	214.71
908.38	214.69
908.69	214.69
908.99	214.72
909.30	214.75
909.60	214.77
909.90	214.76
910.21	214.70
910.51	214.64
910.81	214.66
911.12	214.67
911.42	214.68
911.73	214.46
912.03	214.46
912.33	214.51
912.64	214.47
912.94	214.46
913.24	214.44
913.55	214.42
913.85	214.41
914.15	214.43
914.46	214.47
914.76	214.46
915.06	214.44
915.37	214.40
915.67	214.38
915.97	214.36
916.27	214.31
916.58	214.33
916.88	214.32
917.18	214.32
917.49	214.45
917.79	214.46
918.09	214.49
918.39	214.52
918.70	214.50
919.00	214.53
919.30	214.63
919.60	214.62
919.91	214.59
920.21	214.62
920.51	214.59
920.81	214.56
921.12	214.60
921.42	214.56
921.72	214.57
922.02	214.58
922.32	214.59
922.63	214.61
922.93	214.68
923.23	214.71
923.53	214.66
923.83	214.49
924.13	214.50
924.44	214.50
924.74	214.52
925.04	214.58
925.34	214.54
925.64	214.44
925.94	214.43
926.24	214.57
926.55	214.49
926.85	214.54
927.15	214.55
927.45	214.55
927.75	214.57
928.05	214.58
928.35	214.57
928.65	214.61
928.95	214.63
929.26	214.58
929.56	214.57
929.86	214.62
930.16	214.61
930.46	214.56
930.76	214.56
931.06	214.49
931.36	214.45
931.66	214.50
931.96	214.53
932.26	214.57
932.56	214.46
932.86	214.54
933.16	214.51
933.46	214.50
933.76	214.48
934.06	214.54
934.36	214.63
934.66	214.59
934.96	214.60
935.26	214.62
935.56	214.65
935.86	214.64
936.16	214.61
936.46	214.59
936.76	214.61
937.06	214.58
937.36	214.59
937.66	214.62
937.96	214.62
938.26	214.56
938.56	214.51
938.86	214.55
939.16	214.57
939.46	214.63
939.76	214.65
940.06	214.66
940.35	214.59
940.65	214.46
940.95	214.54
941.25	214.47
941.55	214.41
941.85	214.39
942.15	214.42
942.45	214.48
942.75	214.52
943.04	214.52
943.34	214.56
943.64	214.55
943.94	214.49
944.24	214.48
944.54	214.49
944.84	214.54
945.13	214.51
945.43	214.47
945.73	214.44
946.03	214.41
946.33	214.37
946.62	214.37
946.92	214.38
947.22	214.35
947.52	214.38
947.82	214.41
948.11	214.39
948.41	214.33
948.71	214.29
949.01	214.27
949.31	214.26
949.60	214.25
949.90	214.29
950.20	214.28
950.50	214.28
950.79	214.28
951.09	214.32
951.39	214.29
951.69	214.26
951.98	214.28
952.28	214.29
952.58	214.29
952.87	214.28
953.17	214.30
953.47	214.28
953.76	214.24
954.06	214.22
954.36	214.18
954.66	214.19
954.95	214.24
955.25	214.24
955.55	214.28
955.84	214.26
956.14	214.27
956.44	214.32
956.73	214.28
957.03	214.28
957.32	214.26
957.62	214.26
957.92	214.33
958.21	214.31
958.51	214.57
958.81	214.57
959.10	214.58
959.40	214.65
959.69	214.65
959.99	214.70
960.29	214.70
960.58	214.72
960.88	214.79
961.17	214.76
961.47	214.77
961.76	214.74
962.06	214.76
962.36	214.72
962.65	214.68
962.95	214.69
963.24	214.67
963.54	214.65
963.83	214.66
964.13	214.65
964.42	214.58
964.72	214.36
965.01	214.40
965.31	214.41
965.60	214.33
965.90	214.46
966.19	214.43
966.49	214.48
966.78	214.45
967.08	214.43
967.37	214.43
967.67	214.42
967.96	214.42
968.26	214.40
968.55	214.44
968.85	214.44
969.14	214.42
969.43	214.42
969.73	214.40
970.02	214.39
970.32	214.35
970.61	214.37
970.91	214.35
971.20	214.30
971.49	214.29
971.79	214.33
972.08	214.21
972.38	214.24
972.67	214.18
972.96	214.22
973.26	214.18
973.55	214.24
973.85	214.19
974.14	214.17
974.43	214.20
974.73	214.15
975.02	214.15
975.31	214.18
975.61	214.18
975.90	214.18
976.19	214.19
976.49	214.22
976.78	214.22
977.07	214.21
977.37	214.21
977.66	214.21
977.95	214.15
978.24	214.16
978.54	214.16
978.83	214.19
979.12	214.14
979.42	214.18
979.71	214.12
980.00	214.17
980.29	214.21
980.59	214.17
980.88	214.24
981.17	214.24
981.46	214.18
981.76	214.20
982.05	214.27
982.34	214.28
982.63	214.28
982.93	214.27
983.22	214.33
983.51	214.33
983.80	214.39
984.09	214.46
984.39	214.44
984.68	214.43
984.97	214.39
985.26	214.38
985.55	214.36
985.85	214.34
986.14	214.36
986.43	214.38
986.72	214.37
987.01	214.29
987.30	214.31
987.59	214.32
987.89	214.31
988.18	214.22
988.47	214.19
988.76	214.19
989.05	214.21
989.34	214.18
989.63	214.23
989.92	214.18
990.22	214.12
990.51	214.14
990.80	214.12
991.09	214.16
991.38	214.19
991.67	214.16
991.96	214.14
992.25	214.15
992.54	214.07
992.83	214.06
993.12	214.08
993.41	214.07
993.70	214.18
993.99	214.22
994.28	214.28
994.58	214.34
994.87	214.31
995.16	214.29
995.45	214.26
995.74	214.20
996.03	214.22
996.32	214.24
996.61	214.27
996.90	214.24
997.19	214.22
997.48	214.23
997.77	214.26
998.06	214.28
998.34	214.23
998.63	214.24
998.92	214.28
999.21	214.30
999.50	214.33
999.79	214.24
1000.08	214.21
1000.37	214.21
1000.66	214.16
1000.95	214.26
1001.24	214.26
1001.53	214.29
1001.82	214.30
1002.11	214.27
1002.40	214.30
1002.68	214.37
1002.97	214.53
1003.26	214.51
1003.55	214.49
1003.84	214.50
1004.13	214.57
1004.42	214.58
1004.71	214.58
1004.99	214.57
1005.28	214.61
1005.57	214.57
1005.86	214.55
1006.15	214.55
1006.44	214.50
1006.72	214.53
1007.01	214.46
1007.30	214.46
1007.59	214.45
1007.88	214.42
1008.17	214.40
1008.45	214.36
1008.74	214.25
1009.03	214.16
1009.32	214.16
1009.60	214.14
1009.89	214.12
1010.18	214.01
1010.47	214.03
1010.76	214.03
1011.04	213.99
1011.33	213.99
1011.62	214.02
1011.91	214.05
1012.19	214.06
1012.48	214.05
1012.77	214.03
1013.05	214.12
1013.34	214.14
1013.63	214.13
1013.92	214.17
1014.20	214.18
1014.49	214.16
1014.78	214.21
1015.06	214.12
1015.35	214.13
1015.64	214.15
1015.92	214.18
1016.21	214.20
1016.50	214.22
1016.78	214.25
1017.07	214.29
1017.36	214.26
1017.64	214.26
1017.93	214.28
1018.22	214.27
1018.50	214.29
1018.79	214.30
1019.08	214.21
1019.36	214.20
1019.65	214.19
1019.93	214.24
1020.22	214.27
1020.51	214.38
1020.79	214.36
1021.08	214.26
1021.36	214.12
1021.65	214.31
1021.94	214.13
1022.22	214.13
1022.51	214.12
1022.79	215.51
1023.08	214.23
1023.36	216.48
1023.65	214.22
>>>>>End Processed Spectral Data<<<<<
