SpectraSuite Data File
++++++++++++++++++++++++++++++++++++
Date: Tue Jan 29 16:57:55 EST 2013
User: group
Dark Spectrum Present: No
Reference Spectrum Present: No
Number of Sampled Component Spectra: 1
Spectrometers: USB2E7196
Integration Time (usec): 65000 (USB2E7196)
Spectra Averaged: 100 (USB2E7196)
Boxcar Smoothing: 10 (USB2E7196)
Correct for Electrical Dark: No (USB2E7196)
Strobe/Lamp Enabled: No (USB2E7196)
Correct for Detector Non-linearity: No (USB2E7196)
Correct for Stray Light: No (USB2E7196)
Number of Pixels in Processed Spectrum: 2048
>>>>>Begin Processed Spectral Data<<<<<
339.09	0.00
339.48	201.39
339.86	203.09
340.24	204.52
340.63	206.18
341.01	210.06
341.39	209.28
341.78	209.36
342.16	211.82
342.54	210.86
342.93	200.87
343.31	211.05
343.69	211.60
344.07	212.07
344.46	212.53
344.84	212.92
345.22	213.12
345.60	213.36
345.99	213.60
346.37	213.73
346.75	213.89
347.13	214.01
347.52	214.09
347.90	214.22
348.28	214.24
348.66	214.31
349.05	214.24
349.43	214.29
349.81	214.33
350.19	214.37
350.57	214.44
350.96	214.50
351.34	214.56
351.72	214.67
352.10	214.77
352.48	214.84
352.87	214.88
353.25	214.94
353.63	215.01
354.01	215.05
354.39	215.13
354.77	215.18
355.15	215.29
355.54	215.30
355.92	215.29
356.30	215.37
356.68	215.55
357.06	215.64
357.44	215.66
357.82	215.74
358.20	215.83
358.58	215.87
358.97	215.95
359.35	216.04
359.73	216.14
360.11	216.15
360.49	216.21
360.87	216.24
361.25	216.31
361.63	216.38
362.01	216.44
362.39	216.45
362.77	216.47
363.15	216.47
363.53	216.53
363.91	216.54
364.29	216.56
364.67	216.36
365.05	216.38
365.43	216.44
365.81	216.45
366.19	216.52
366.57	216.61
366.95	216.59
367.33	216.55
367.71	216.50
368.09	216.55
368.47	216.55
368.85	216.54
369.23	216.56
369.61	216.52
369.99	216.60
370.37	216.60
370.75	216.71
371.13	216.66
371.51	216.59
371.89	216.65
372.27	216.61
372.65	216.63
373.03	216.59
373.41	216.56
373.78	216.52
374.16	216.39
374.54	216.27
374.92	216.27
375.30	216.22
375.68	216.17
376.06	216.12
376.44	216.06
376.82	216.02
377.19	215.96
377.57	215.91
377.95	215.78
378.33	215.70
378.71	215.52
379.09	215.52
379.47	215.53
379.84	215.42
380.22	215.36
380.60	215.29
380.98	215.26
381.36	215.20
381.73	215.19
382.11	215.19
382.49	215.18
382.87	215.09
383.25	215.08
383.62	215.27
384.00	215.23
384.38	215.20
384.76	215.24
385.13	215.27
385.51	215.21
385.89	215.15
386.27	215.16
386.64	215.17
387.02	215.11
387.40	215.07
387.78	215.07
388.15	215.09
388.53	215.07
388.91	215.06
389.29	215.01
389.66	215.02
390.04	215.01
390.42	215.03
390.79	215.02
391.17	214.97
391.55	214.73
391.92	214.71
392.30	214.73
392.68	214.66
393.05	214.66
393.43	214.66
393.81	214.70
394.18	214.67
394.56	214.67
394.94	214.72
395.31	214.70
395.69	214.74
396.06	214.75
396.44	214.78
396.82	214.76
397.19	214.93
397.57	214.89
397.95	214.93
398.32	214.86
398.70	214.93
399.07	215.02
399.45	215.07
399.82	215.13
400.20	215.16
400.58	215.23
400.95	215.19
401.33	215.29
401.70	215.49
402.08	215.60
402.45	215.70
402.83	215.81
403.20	215.92
403.58	216.02
403.95	216.16
404.33	216.31
404.71	216.49
405.08	216.69
405.46	216.89
405.83	217.11
406.21	217.33
406.58	217.55
406.96	217.80
407.33	218.07
407.70	218.35
408.08	218.80
408.45	219.15
408.83	219.56
409.20	219.92
409.58	220.19
409.95	220.64
410.33	221.13
410.70	221.59
411.08	222.15
411.45	222.75
411.82	223.35
412.20	224.02
412.57	224.83
412.95	225.40
413.32	226.26
413.69	227.10
414.07	228.01
414.44	228.98
414.82	230.00
415.19	231.18
415.56	232.40
415.94	233.63
416.31	235.05
416.68	236.44
417.06	238.04
417.43	239.59
417.81	241.32
418.18	243.11
418.55	245.09
418.93	247.17
419.30	249.28
419.67	251.49
420.04	253.81
420.42	256.23
420.79	259.08
421.16	261.87
421.54	264.78
421.91	267.80
422.28	270.96
422.66	274.28
423.03	277.52
423.40	280.92
423.77	284.53
424.15	288.22
424.52	292.08
424.89	296.28
425.26	300.40
425.64	304.32
426.01	308.62
426.38	313.06
426.75	317.60
427.13	322.40
427.50	327.45
427.87	332.67
428.24	337.88
428.61	342.90
428.99	348.42
429.36	354.47
429.73	360.38
430.10	366.24
430.47	372.33
430.85	378.67
431.22	385.33
431.59	392.44
431.96	399.30
432.33	406.78
432.70	414.07
433.08	422.59
433.45	430.67
433.82	438.73
434.19	447.64
434.56	456.39
434.93	464.77
435.30	473.02
435.68	482.23
436.05	491.27
436.42	500.22
436.79	508.43
437.16	517.25
437.53	526.60
437.90	535.79
438.27	544.86
438.64	554.09
439.01	562.70
439.38	570.30
439.75	577.72
440.13	586.24
440.50	594.23
440.87	600.68
441.24	607.39
441.61	614.79
441.98	620.24
442.35	626.61
442.72	632.88
443.09	639.05
443.46	642.81
443.83	645.36
444.20	647.55
444.57	650.73
444.94	652.14
445.31	653.57
445.68	655.03
446.05	655.60
446.42	654.93
446.79	654.04
447.16	653.06
447.53	652.27
447.90	648.98
448.27	645.77
448.64	641.20
449.01	637.91
449.37	632.02
449.74	626.43
450.11	619.48
450.48	612.14
450.85	604.66
451.22	598.21
451.59	592.06
451.96	586.28
452.33	578.37
452.70	571.32
453.07	562.86
453.43	554.23
453.80	545.86
454.17	537.78
454.54	530.15
454.91	521.88
455.28	513.78
455.65	506.27
456.02	498.65
456.38	492.22
456.75	484.22
457.12	477.55
457.49	470.90
457.86	464.67
458.23	459.24
458.59	453.24
458.96	447.15
459.33	441.77
459.70	436.33
460.07	432.02
460.43	427.02
460.80	422.36
461.17	418.33
461.54	414.13
461.91	410.08
462.27	405.97
462.64	402.53
463.01	398.75
463.38	395.03
463.74	391.31
464.11	388.08
464.48	385.30
464.85	382.21
465.21	379.76
465.58	377.13
465.95	373.95
466.32	371.31
466.68	368.67
467.05	366.04
467.42	363.48
467.78	360.80
468.15	358.24
468.52	356.32
468.88	353.76
469.25	351.54
469.62	349.68
469.98	347.65
470.35	345.79
470.72	344.11
471.08	342.29
471.45	340.75
471.82	339.17
472.18	337.42
472.55	336.20
472.92	334.75
473.28	333.52
473.65	332.37
474.02	331.25
474.38	330.33
474.75	329.59
475.11	328.72
475.48	328.12
475.85	327.60
476.21	327.08
476.58	326.73
476.94	326.46
477.31	326.17
477.67	325.94
478.04	325.78
478.41	325.67
478.77	325.80
479.14	325.76
479.50	325.86
479.87	326.13
480.23	326.40
480.60	326.65
480.96	326.85
481.33	327.35
481.69	327.84
482.06	328.31
482.42	328.67
482.79	329.25
483.15	329.98
483.52	330.93
483.88	331.76
484.25	332.59
484.61	333.51
484.98	334.52
485.34	335.76
485.71	337.09
486.07	338.51
486.44	339.79
486.80	341.32
487.17	342.98
487.53	344.78
487.90	346.59
488.26	348.60
488.62	350.76
488.99	352.79
489.35	354.97
489.72	357.35
490.08	359.92
490.44	362.49
490.81	365.19
491.17	367.85
491.54	370.88
491.90	373.91
492.26	377.24
492.63	380.65
492.99	384.13
493.36	387.77
493.72	391.68
494.08	395.68
494.45	399.95
494.81	404.33
495.17	408.77
495.54	413.54
495.90	418.34
496.26	423.33
496.63	428.57
496.99	433.98
497.35	439.57
497.72	445.42
498.08	451.30
498.44	457.43
498.80	463.89
499.17	470.39
499.53	477.12
499.89	483.96
500.26	490.90
500.62	498.01
500.98	505.42
501.34	512.83
501.71	520.62
502.07	528.39
502.43	536.32
502.79	544.44
503.16	552.76
503.52	561.36
503.88	569.99
504.24	578.95
504.60	588.03
504.97	597.28
505.33	606.52
505.69	616.35
506.05	626.11
506.41	636.00
506.78	646.04
507.14	656.32
507.50	666.76
507.86	677.52
508.22	688.26
508.59	698.88
508.95	709.96
509.31	721.15
509.67	732.53
510.03	743.93
510.39	755.65
510.75	767.44
511.12	779.24
511.48	791.30
511.84	803.56
512.20	815.76
512.56	828.32
512.92	841.00
513.28	853.63
513.64	866.36
514.00	879.13
514.37	892.14
514.73	905.13
515.09	918.13
515.45	930.94
515.81	943.93
516.17	957.25
516.53	970.42
516.89	983.51
517.25	996.74
517.61	1010.22
517.97	1023.62
518.33	1036.70
518.69	1050.26
519.05	1064.01
519.41	1077.58
519.77	1091.51
520.13	1104.75
520.49	1117.96
520.85	1131.35
521.21	1144.72
521.57	1158.30
521.93	1171.18
522.29	1184.92
522.65	1198.42
523.01	1212.14
523.37	1225.38
523.73	1238.72
524.09	1251.88
524.45	1265.28
524.81	1278.70
525.17	1292.04
525.53	1305.21
525.89	1318.67
526.25	1331.80
526.61	1344.63
526.97	1357.76
527.33	1370.80
527.68	1384.31
528.04	1397.81
528.40	1410.98
528.76	1424.37
529.12	1437.30
529.48	1450.76
529.84	1463.06
530.20	1475.95
530.56	1488.44
530.91	1501.63
531.27	1514.50
531.63	1527.10
531.99	1539.92
532.35	1552.22
532.71	1564.59
533.07	1577.51
533.42	1589.76
533.78	1601.88
534.14	1613.91
534.50	1625.13
534.86	1636.68
535.21	1647.61
535.57	1659.21
535.93	1670.33
536.29	1681.29
536.65	1692.80
537.00	1703.62
537.36	1714.89
537.72	1725.65
538.08	1736.88
538.44	1747.74
538.79	1758.77
539.15	1769.71
539.51	1780.24
539.87	1791.27
540.22	1801.94
540.58	1812.65
540.94	1823.38
541.29	1833.42
541.65	1843.04
542.01	1853.30
542.37	1863.07
542.72	1873.01
543.08	1882.51
543.44	1893.01
543.79	1902.33
544.15	1911.68
544.51	1921.73
544.87	1931.61
545.22	1940.96
545.58	1950.00
545.94	1958.99
546.29	1967.59
546.65	1976.24
547.01	1984.68
547.36	1992.63
547.72	2000.66
548.07	2008.36
548.43	2016.25
548.79	2024.45
549.14	2032.96
549.50	2041.84
549.86	2050.09
550.21	2057.75
550.57	2065.78
550.92	2072.81
551.28	2080.46
551.64	2087.78
551.99	2095.40
552.35	2102.82
552.70	2109.98
553.06	2116.82
553.41	2123.27
553.77	2129.81
554.13	2136.32
554.48	2143.50
554.84	2150.81
555.19	2157.53
555.55	2164.12
555.90	2170.47
556.26	2177.24
556.61	2183.50
556.97	2188.22
557.32	2194.04
557.68	2200.45
558.03	2206.19
558.39	2211.57
558.74	2217.46
559.10	2222.98
559.45	2228.41
559.81	2233.95
560.16	2239.46
560.52	2245.23
560.87	2251.52
561.23	2257.42
561.58	2263.96
561.94	2269.14
562.29	2273.55
562.64	2279.31
563.00	2284.97
563.35	2290.43
563.71	2296.12
564.06	2301.68
564.42	2307.56
564.77	2312.51
565.12	2317.67
565.48	2322.60
565.83	2327.98
566.19	2333.19
566.54	2338.49
566.89	2343.14
567.25	2347.57
567.60	2353.12
567.96	2357.95
568.31	2362.33
568.66	2366.53
569.02	2370.28
569.37	2373.92
569.72	2378.34
570.08	2381.70
570.43	2384.75
570.78	2387.90
571.14	2390.12
571.49	2393.00
571.84	2396.27
572.20	2399.03
572.55	2401.92
572.90	2404.27
573.26	2406.77
573.61	2409.41
573.96	2411.48
574.31	2413.39
574.67	2415.12
575.02	2415.64
575.37	2417.08
575.72	2417.61
576.08	2418.84
576.43	2418.81
576.78	2418.95
577.13	2420.11
577.49	2421.10
577.84	2421.73
578.19	2422.51
578.54	2422.93
578.90	2423.21
579.25	2422.90
579.60	2422.53
579.95	2421.55
580.30	2421.16
580.66	2420.35
581.01	2418.41
581.36	2415.62
581.71	2413.91
582.06	2412.52
582.42	2411.49
582.77	2408.88
583.12	2406.99
583.47	2405.34
583.82	2404.47
584.17	2402.89
584.53	2400.80
584.88	2398.60
585.23	2396.57
585.58	2394.20
585.93	2392.05
586.28	2389.73
586.63	2387.13
586.98	2384.73
587.34	2382.49
587.69	2379.69
588.04	2377.28
588.39	2375.55
588.74	2373.02
589.09	2370.12
589.44	2366.66
589.79	2363.84
590.14	2361.63
590.49	2358.58
590.84	2354.44
591.19	2351.07
591.54	2347.88
591.89	2343.59
592.25	2340.20
592.60	2336.02
592.95	2331.79
593.30	2327.65
593.65	2323.14
594.00	2318.61
594.35	2315.51
594.70	2310.87
595.05	2306.52
595.40	2301.26
595.75	2295.36
596.10	2291.68
596.45	2286.73
596.80	2282.10
597.15	2277.05
597.50	2271.30
597.85	2266.51
598.19	2261.61
598.54	2255.84
598.89	2250.53
599.24	2245.95
599.59	2239.78
599.94	2233.63
600.29	2227.60
600.64	2221.54
600.99	2214.75
601.34	2209.24
601.69	2202.24
602.04	2195.85
602.39	2189.04
602.74	2182.78
603.08	2177.20
603.43	2170.82
603.78	2163.92
604.13	2156.94
604.48	2149.41
604.83	2143.25
605.18	2137.03
605.53	2129.96
605.87	2122.81
606.22	2115.82
606.57	2107.63
606.92	2099.35
607.27	2092.16
607.62	2085.37
607.96	2078.22
608.31	2071.59
608.66	2063.63
609.01	2055.76
609.36	2048.39
609.70	2040.64
610.05	2032.61
610.40	2024.26
610.75	2015.66
611.10	2007.79
611.44	1998.52
611.79	1989.75
612.14	1979.80
612.49	1968.98
612.83	1959.48
613.18	1950.18
613.53	1940.91
613.88	1931.50
614.22	1923.12
614.57	1913.57
614.92	1903.25
615.27	1893.05
615.61	1882.96
615.96	1873.58
616.31	1864.30
616.65	1855.09
617.00	1845.63
617.35	1836.33
617.70	1826.77
618.04	1817.03
618.39	1807.26
618.74	1798.06
619.08	1788.62
619.43	1779.96
619.78	1771.90
620.12	1763.56
620.47	1754.32
620.82	1744.19
621.16	1734.60
621.51	1724.87
621.85	1715.31
622.20	1705.10
622.55	1694.91
622.89	1685.24
623.24	1675.70
623.59	1666.07
623.93	1656.06
624.28	1646.35
624.62	1636.35
624.97	1626.30
625.32	1616.53
625.66	1607.47
626.01	1598.84
626.35	1589.74
626.70	1580.04
627.04	1570.21
627.39	1560.06
627.73	1550.83
628.08	1542.09
628.43	1532.75
628.77	1523.71
629.12	1514.81
629.46	1507.13
629.81	1498.93
630.15	1489.84
630.50	1480.16
630.84	1469.79
631.19	1460.03
631.53	1451.06
631.88	1441.13
632.22	1431.33
632.57	1422.08
632.91	1412.39
633.26	1402.70
633.60	1393.35
633.95	1384.13
634.29	1374.72
634.64	1365.66
634.98	1355.91
635.32	1346.91
635.67	1338.59
636.01	1329.48
636.36	1320.05
636.70	1310.67
637.05	1301.36
637.39	1292.38
637.73	1283.92
638.08	1276.47
638.42	1268.62
638.77	1259.91
639.11	1251.74
639.45	1244.12
639.80	1235.94
640.14	1227.27
640.49	1218.65
640.83	1209.81
641.17	1201.59
641.52	1193.67
641.86	1185.31
642.20	1177.53
642.55	1168.89
642.89	1160.19
643.23	1151.66
643.58	1143.59
643.92	1134.74
644.26	1126.17
644.61	1117.94
644.95	1109.16
645.29	1100.02
645.64	1090.82
645.98	1082.31
646.32	1074.41
646.66	1065.88
647.01	1057.65
647.35	1049.61
647.69	1041.38
648.04	1033.35
648.38	1024.80
648.72	1016.08
649.06	1007.72
649.41	999.68
649.75	991.93
650.09	984.17
650.43	976.26
650.78	968.06
651.12	960.27
651.46	952.86
651.80	945.66
652.14	938.43
652.49	931.08
652.83	923.81
653.17	916.27
653.51	908.77
653.85	901.66
654.20	894.45
654.54	887.19
654.88	879.90
655.22	872.69
655.56	865.76
655.90	859.02
656.25	852.30
656.59	845.53
656.93	838.59
657.27	831.49
657.61	824.52
657.95	818.42
658.29	812.55
658.64	806.54
658.98	800.14
659.32	793.85
659.66	787.68
660.00	781.50
660.34	775.49
660.68	769.45
661.02	763.05
661.36	756.99
661.70	751.18
662.05	745.65
662.39	740.21
662.73	734.81
663.07	729.48
663.41	724.00
663.75	718.22
664.09	712.50
664.43	707.02
664.77	701.72
665.11	695.99
665.45	690.17
665.79	684.39
666.13	678.70
666.47	673.09
666.81	667.63
667.15	662.23
667.49	656.96
667.83	651.73
668.17	646.61
668.51	641.59
668.85	636.57
669.19	631.65
669.53	626.55
669.87	621.45
670.21	616.65
670.55	611.97
670.89	607.59
671.23	603.26
671.57	598.86
671.91	594.61
672.25	590.46
672.58	586.34
672.92	582.34
673.26	578.39
673.60	574.54
673.94	570.71
674.28	567.11
674.62	563.40
674.96	559.68
675.30	556.20
675.64	552.56
675.97	549.02
676.31	545.41
676.65	541.89
676.99	538.49
677.33	534.67
677.67	531.01
678.01	527.08
678.34	523.40
678.68	519.93
679.02	516.35
679.36	512.69
679.70	509.08
680.04	505.47
680.37	502.03
680.71	498.63
681.05	495.47
681.39	492.14
681.73	489.02
682.06	485.99
682.40	482.82
682.74	479.61
683.08	476.39
683.42	473.17
683.75	470.11
684.09	466.97
684.43	464.13
684.77	461.20
685.10	458.36
685.44	455.42
685.78	452.56
686.12	449.76
686.45	446.99
686.79	444.35
687.13	441.81
687.46	439.20
687.80	436.60
688.14	433.73
688.48	431.07
688.81	428.29
689.15	425.65
689.49	423.01
689.82	420.51
690.16	417.83
690.50	415.41
690.83	412.94
691.17	410.45
691.51	407.97
691.84	405.60
692.18	403.36
692.52	401.20
692.85	398.97
693.19	396.80
693.52	394.58
693.86	392.30
694.20	390.07
694.53	387.83
694.87	385.60
695.21	383.42
695.54	381.23
695.88	379.06
696.21	376.86
696.55	374.75
696.88	372.64
697.22	370.73
697.56	368.77
697.89	366.79
698.23	365.02
698.56	363.21
698.90	361.42
699.23	359.46
699.57	357.60
699.90	355.71
700.24	353.86
700.58	352.12
700.91	350.41
701.25	348.82
701.58	347.24
701.92	345.61
702.25	344.01
702.59	342.39
702.92	340.81
703.26	339.19
703.59	337.63
703.93	336.28
704.26	334.76
704.60	333.26
704.93	331.82
705.26	330.24
705.60	328.72
705.93	327.18
706.27	325.88
706.60	324.47
706.94	323.20
707.27	321.78
707.61	320.42
707.94	319.02
708.27	317.54
708.61	316.02
708.94	314.65
709.28	313.32
709.61	312.06
709.94	310.86
710.28	309.65
710.61	308.50
710.95	307.09
711.28	306.03
711.61	304.82
711.95	303.66
712.28	302.46
712.61	301.30
712.95	300.29
713.28	299.23
713.61	298.14
713.95	296.99
714.28	295.97
714.61	294.96
714.95	293.92
715.28	292.86
715.61	291.86
715.95	290.89
716.28	289.92
716.61	288.93
716.95	287.95
717.28	286.99
717.61	286.00
717.94	285.08
718.28	284.05
718.61	283.10
718.94	282.19
719.27	281.38
719.61	280.58
719.94	279.69
720.27	278.69
720.60	277.83
720.94	277.02
721.27	276.25
721.60	275.44
721.93	274.72
722.27	274.08
722.60	273.44
722.93	272.71
723.26	272.05
723.59	271.34
723.93	270.70
724.26	270.05
724.59	269.38
724.92	268.78
725.25	268.26
725.59	267.70
725.92	267.17
726.25	266.59
726.58	265.96
726.91	265.35
727.24	264.82
727.57	264.27
727.91	263.63
728.24	263.05
728.57	262.51
728.90	261.98
729.23	261.36
729.56	260.91
729.89	260.35
730.22	259.78
730.55	259.23
730.89	258.65
731.22	258.14
731.55	257.64
731.88	257.12
732.21	256.52
732.54	256.01
732.87	255.46
733.20	254.93
733.53	254.42
733.86	253.93
734.19	253.44
734.52	253.01
734.85	252.75
735.18	252.27
735.51	251.91
735.84	251.46
736.17	251.06
736.50	250.52
736.83	250.36
737.16	249.95
737.49	249.61
737.82	249.20
738.15	248.80
738.48	248.38
738.81	248.00
739.14	247.54
739.47	247.13
739.80	246.76
740.13	246.39
740.46	246.00
740.79	245.61
741.12	245.24
741.45	244.83
741.78	244.36
742.11	244.09
742.44	243.65
742.77	243.34
743.10	242.98
743.43	242.60
743.75	242.05
744.08	241.95
744.41	241.55
744.74	241.20
745.07	240.84
745.40	240.59
745.73	240.33
746.06	240.05
746.39	239.74
746.71	239.38
747.04	239.02
747.37	238.74
747.70	238.49
748.03	238.20
748.36	237.92
748.68	237.59
749.01	237.25
749.34	236.98
749.67	236.69
750.00	236.42
750.33	236.29
750.65	236.05
750.98	235.52
751.31	235.31
751.64	235.08
751.97	234.93
752.29	234.61
752.62	234.26
752.95	234.00
753.28	233.73
753.60	233.49
753.93	233.34
754.26	233.11
754.59	232.83
754.91	232.57
755.24	232.31
755.57	232.08
755.90	231.80
756.22	231.57
756.55	231.27
756.88	231.03
757.20	230.70
757.53	230.40
757.86	230.18
758.19	229.96
758.51	229.77
758.84	229.46
759.17	229.26
759.49	229.10
759.82	229.01
760.15	228.85
760.47	228.64
760.80	228.41
761.13	228.25
761.45	228.02
761.78	227.84
762.11	227.66
762.43	227.45
762.76	227.28
763.08	227.13
763.41	226.99
763.74	226.82
764.06	226.64
764.39	226.50
764.71	226.35
765.04	226.16
765.37	225.98
765.69	225.83
766.02	225.70
766.34	225.53
766.67	225.31
767.00	225.19
767.32	225.19
767.65	225.16
767.97	224.99
768.30	224.92
768.62	224.78
768.95	224.63
769.27	224.56
769.60	224.49
769.92	224.33
770.25	224.18
770.57	224.04
770.90	223.91
771.22	223.79
771.55	223.70
771.87	223.62
772.20	223.49
772.52	223.55
772.85	223.69
773.17	223.56
773.50	223.46
773.82	223.29
774.15	223.08
774.47	222.88
774.80	222.77
775.12	222.62
775.45	222.57
775.77	222.50
776.09	222.40
776.42	222.29
776.74	222.26
777.07	222.17
777.39	222.07
777.72	221.97
778.04	221.91
778.36	221.80
778.69	221.71
779.01	221.66
779.33	221.41
779.66	221.06
779.98	220.98
780.31	220.92
780.63	220.90
780.95	220.86
781.28	220.76
781.60	220.68
781.92	220.61
782.25	220.53
782.57	220.46
782.89	220.39
783.22	220.34
783.54	220.20
783.86	220.12
784.19	220.08
784.51	220.08
784.83	219.98
785.16	219.91
785.48	219.85
785.80	219.79
786.12	219.75
786.45	219.69
786.77	219.65
787.09	219.55
787.42	219.42
787.74	219.35
788.06	219.32
788.38	219.24
788.71	219.16
789.03	219.08
789.35	219.04
789.67	218.95
789.99	218.90
790.32	218.84
790.64	218.83
790.96	218.95
791.28	218.80
791.61	218.76
791.93	218.70
792.25	218.62
792.57	218.67
792.89	218.56
793.21	218.53
793.54	218.48
793.86	218.44
794.18	218.41
794.50	218.32
794.82	218.29
795.14	218.32
795.47	218.32
795.79	218.28
796.11	218.20
796.43	218.12
796.75	218.08
797.07	218.04
797.39	217.99
797.71	217.77
798.04	217.78
798.36	217.73
798.68	217.74
799.00	217.73
799.32	217.61
799.64	217.64
799.96	217.61
800.28	217.56
800.60	217.51
800.92	217.53
801.24	217.50
801.56	217.48
801.89	217.42
802.21	217.40
802.53	217.33
802.85	217.36
803.17	217.45
803.49	217.35
803.81	217.36
804.13	217.30
804.45	217.27
804.77	217.26
805.09	217.20
805.41	217.13
805.73	217.07
806.05	216.99
806.37	216.95
806.69	216.91
807.01	216.89
807.33	216.88
807.65	216.76
807.97	216.83
808.28	216.76
808.60	216.73
808.92	216.65
809.24	216.81
809.56	216.75
809.88	216.64
810.20	216.66
810.52	216.66
810.84	216.64
811.16	216.59
811.48	216.55
811.80	216.65
812.12	216.58
812.43	216.60
812.75	216.60
813.07	216.58
813.39	216.56
813.71	216.45
814.03	216.40
814.35	216.40
814.67	216.30
814.98	216.25
815.30	216.19
815.62	216.11
815.94	215.93
816.26	215.92
816.58	215.88
816.89	215.85
817.21	215.76
817.53	215.76
817.85	215.75
818.17	215.75
818.48	215.64
818.80	215.69
819.12	215.64
819.44	215.60
819.76	215.56
820.07	215.53
820.39	215.58
820.71	215.59
821.03	215.57
821.34	215.54
821.66	215.58
821.98	215.62
822.30	215.64
822.61	215.73
822.93	215.69
823.25	215.68
823.57	215.64
823.88	215.69
824.20	215.71
824.52	215.71
824.83	215.68
825.15	215.62
825.47	215.62
825.79	215.65
826.10	215.61
826.42	215.59
826.74	215.61
827.05	215.59
827.37	215.57
827.69	215.56
828.00	215.56
828.32	215.51
828.64	215.46
828.95	215.54
829.27	215.48
829.58	215.48
829.90	215.52
830.22	215.52
830.53	215.46
830.85	215.37
831.17	215.32
831.48	215.32
831.80	215.30
832.11	215.26
832.43	215.23
832.75	215.22
833.06	215.33
833.38	215.25
833.69	215.22
834.01	215.23
834.32	215.23
834.64	215.21
834.96	215.21
835.27	215.21
835.59	215.15
835.90	215.07
836.22	215.02
836.53	214.96
836.85	214.96
837.16	215.15
837.48	215.14
837.79	215.19
838.11	215.17
838.42	215.17
838.74	215.17
839.05	215.11
839.37	215.08
839.68	214.93
840.00	214.89
840.31	214.91
840.63	214.89
840.94	214.87
841.26	214.82
841.57	214.83
841.88	214.84
842.20	214.78
842.51	214.79
842.83	214.78
843.14	214.96
843.46	214.92
843.77	214.78
844.08	214.77
844.40	214.69
844.71	214.65
845.03	214.63
845.34	214.59
845.65	214.60
845.97	214.58
846.28	214.61
846.60	214.66
846.91	214.61
847.22	214.60
847.54	214.63
847.85	214.64
848.16	214.57
848.48	214.50
848.79	214.62
849.10	214.62
849.42	214.64
849.73	214.42
850.04	214.43
850.36	214.36
850.67	214.43
850.98	214.43
851.30	214.46
851.61	214.47
851.92	214.49
852.23	214.52
852.55	214.54
852.86	214.52
853.17	214.51
853.49	214.55
853.80	214.57
854.11	214.58
854.42	214.61
854.74	214.60
855.05	214.62
855.36	214.46
855.67	214.44
855.99	214.43
856.30	214.68
856.61	214.67
856.92	214.65
857.23	214.57
857.55	214.57
857.86	214.52
858.17	214.60
858.48	214.55
858.79	214.54
859.11	214.54
859.42	214.57
859.73	214.52
860.04	214.51
860.35	214.41
860.66	214.36
860.98	214.30
861.29	214.34
861.60	214.33
861.91	214.38
862.22	214.35
862.53	214.34
862.84	214.10
863.16	214.13
863.47	214.11
863.78	214.11
864.09	214.09
864.40	214.11
864.71	214.04
865.02	214.06
865.33	214.01
865.64	213.98
865.95	213.96
866.27	214.12
866.58	214.10
866.89	214.17
867.20	214.15
867.51	214.14
867.82	214.12
868.13	214.17
868.44	214.13
868.75	214.17
869.06	214.16
869.37	214.20
869.68	214.13
869.99	214.17
870.30	214.18
870.61	214.19
870.92	214.17
871.23	214.15
871.54	214.21
871.85	214.25
872.16	214.26
872.47	214.27
872.78	214.14
873.09	214.16
873.40	214.11
873.71	214.12
874.02	214.12
874.33	214.10
874.64	214.04
874.95	214.08
875.26	214.05
875.56	214.05
875.87	214.02
876.18	214.02
876.49	214.27
876.80	214.26
877.11	214.24
877.42	214.25
877.73	214.25
878.04	214.17
878.35	214.20
878.66	214.16
878.96	214.14
879.27	214.11
879.58	214.08
879.89	214.07
880.20	214.12
880.51	214.12
880.82	214.15
881.12	214.17
881.43	214.15
881.74	214.12
882.05	214.13
882.36	214.13
882.67	214.14
882.97	213.87
883.28	213.85
883.59	213.86
883.90	213.87
884.21	213.91
884.51	213.93
884.82	213.87
885.13	213.93
885.44	213.91
885.74	213.92
886.05	213.91
886.36	213.92
886.67	213.85
886.98	213.95
887.28	213.97
887.59	213.98
887.90	213.96
888.20	213.96
888.51	213.96
888.82	213.94
889.13	213.97
889.43	214.18
889.74	214.19
890.05	214.19
890.35	214.20
890.66	214.16
890.97	214.12
891.28	214.14
891.58	214.10
891.89	214.09
892.20	214.09
892.50	214.11
892.81	214.11
893.12	214.14
893.42	214.02
893.73	214.01
894.04	214.00
894.34	214.01
894.65	214.00
894.95	213.99
895.26	214.02
895.57	214.07
895.87	213.85
896.18	213.85
896.48	213.85
896.79	213.83
897.10	213.87
897.40	213.88
897.71	213.92
898.01	213.91
898.32	213.95
898.63	213.92
898.93	213.90
899.24	213.92
899.54	213.89
899.85	213.94
900.15	213.93
900.46	213.93
900.76	213.93
901.07	213.93
901.38	213.94
901.68	213.94
901.99	213.85
902.29	213.85
902.60	213.84
902.90	213.83
903.21	213.85
903.51	213.82
903.82	213.89
904.12	213.85
904.43	213.84
904.73	213.85
905.03	213.86
905.34	214.06
905.64	214.03
905.95	214.03
906.25	213.98
906.56	213.96
906.86	213.95
907.17	213.93
907.47	213.95
907.77	213.91
908.08	213.89
908.38	213.93
908.69	213.93
908.99	213.99
909.30	214.01
909.60	213.97
909.90	213.96
910.21	213.87
910.51	213.81
910.81	213.86
911.12	213.85
911.42	213.83
911.73	213.62
912.03	213.64
912.33	213.69
912.64	213.71
912.94	213.69
913.24	213.66
913.55	213.64
913.85	213.62
914.15	213.68
914.46	213.70
914.76	213.67
915.06	213.66
915.37	213.60
915.67	213.55
915.97	213.55
916.27	213.53
916.58	213.55
916.88	213.57
917.18	213.55
917.49	213.67
917.79	213.71
918.09	213.76
918.39	213.80
918.70	213.76
919.00	213.74
919.30	213.84
919.60	213.82
919.91	213.79
920.21	213.81
920.51	213.73
920.81	213.69
921.12	213.73
921.42	213.73
921.72	213.75
922.02	213.82
922.32	213.87
922.63	213.88
922.93	213.98
923.23	213.97
923.53	213.94
923.83	213.83
924.13	213.80
924.44	213.78
924.74	213.80
925.04	213.85
925.34	213.86
925.64	213.79
925.94	213.81
926.24	213.96
926.55	213.94
926.85	214.01
927.15	214.04
927.45	214.01
927.75	214.02
928.05	214.03
928.35	213.99
928.65	214.00
928.95	214.03
929.26	213.99
929.56	214.06
929.86	214.07
930.16	214.05
930.46	214.07
930.76	214.08
931.06	213.98
931.36	213.95
931.66	213.95
931.96	214.00
932.26	214.01
932.56	213.90
932.86	213.93
933.16	213.92
933.46	213.92
933.76	213.92
934.06	213.92
934.36	213.99
934.66	213.95
934.96	213.93
935.26	213.93
935.56	213.92
935.86	213.86
936.16	213.82
936.46	213.81
936.76	213.78
937.06	213.76
937.36	213.78
937.66	213.77
937.96	213.78
938.26	213.70
938.56	213.71
938.86	213.71
939.16	213.71
939.46	213.71
939.76	213.71
940.06	213.69
940.35	213.69
940.65	213.59
940.95	213.66
941.25	213.61
941.55	213.55
941.85	213.53
942.15	213.58
942.45	213.64
942.75	213.62
943.04	213.61
943.34	213.68
943.64	213.66
943.94	213.61
944.24	213.62
944.54	213.61
944.84	213.60
945.13	213.59
945.43	213.59
945.73	213.57
946.03	213.52
946.33	213.52
946.62	213.48
946.92	213.46
947.22	213.44
947.52	213.48
947.82	213.54
948.11	213.54
948.41	213.48
948.71	213.40
949.01	213.42
949.31	213.44
949.60	213.39
949.90	213.42
950.20	213.39
950.50	213.38
950.79	213.39
951.09	213.41
951.39	213.42
951.69	213.39
951.98	213.44
952.28	213.46
952.58	213.47
952.87	213.49
953.17	213.53
953.47	213.50
953.76	213.48
954.06	213.43
954.36	213.39
954.66	213.38
954.95	213.47
955.25	213.48
955.55	213.50
955.84	213.46
956.14	213.49
956.44	213.56
956.73	213.52
957.03	213.54
957.32	213.56
957.62	213.55
957.92	213.59
958.21	213.54
958.51	213.78
958.81	213.82
959.10	213.84
959.40	213.88
959.69	213.91
959.99	213.92
960.29	213.94
960.58	213.96
960.88	214.05
961.17	214.04
961.47	214.07
961.76	214.06
962.06	214.12
962.36	214.07
962.65	214.06
962.95	214.11
963.24	214.09
963.54	214.07
963.83	214.07
964.13	214.05
964.42	214.01
964.72	213.84
965.01	213.81
965.31	213.78
965.60	213.71
965.90	213.84
966.19	213.80
966.49	213.81
966.78	213.78
967.08	213.77
967.37	213.75
967.67	213.71
967.96	213.74
968.26	213.74
968.55	213.77
968.85	213.77
969.14	213.77
969.43	213.75
969.73	213.68
970.02	213.66
970.32	213.67
970.61	213.68
970.91	213.63
971.20	213.62
971.49	213.59
971.79	213.62
972.08	213.48
972.38	213.52
972.67	213.50
972.96	213.53
973.26	213.48
973.55	213.52
973.85	213.52
974.14	213.48
974.43	213.50
974.73	213.49
975.02	213.45
975.31	213.46
975.61	213.48
975.90	213.51
976.19	213.50
976.49	213.50
976.78	213.54
977.07	213.54
977.37	213.57
977.66	213.63
977.95	213.60
978.24	213.63
978.54	213.67
978.83	213.67
979.12	213.64
979.42	213.66
979.71	213.61
980.00	213.59
980.29	213.62
980.59	213.55
980.88	213.57
981.17	213.56
981.46	213.57
981.76	213.59
982.05	213.65
982.34	213.69
982.63	213.68
982.93	213.66
983.22	213.69
983.51	213.70
983.80	213.71
984.09	213.71
984.39	213.67
984.68	213.64
984.97	213.63
985.26	213.63
985.55	213.67
985.85	213.63
986.14	213.67
986.43	213.68
986.72	213.70
987.01	213.66
987.30	213.67
987.59	213.65
987.89	213.64
988.18	213.58
988.47	213.56
988.76	213.54
989.05	213.52
989.34	213.50
989.63	213.54
989.92	213.49
990.22	213.48
990.51	213.51
990.80	213.50
991.09	213.51
991.38	213.57
991.67	213.52
991.96	213.50
992.25	213.52
992.54	213.47
992.83	213.47
993.12	213.45
993.41	213.50
993.70	213.58
993.99	213.60
994.28	213.61
994.58	213.63
994.87	213.61
995.16	213.60
995.45	213.58
995.74	213.50
996.03	213.53
996.32	213.59
996.61	213.64
996.90	213.61
997.19	213.62
997.48	213.62
997.77	213.58
998.06	213.64
998.34	213.61
998.63	213.61
998.92	213.60
999.21	213.65
999.50	213.64
999.79	213.56
1000.08	213.57
1000.37	213.59
1000.66	213.54
1000.95	213.58
1001.24	213.61
1001.53	213.63
1001.82	213.63
1002.11	213.59
1002.40	213.57
1002.68	213.60
1002.97	213.77
1003.26	213.74
1003.55	213.70
1003.84	213.73
1004.13	213.78
1004.42	213.78
1004.71	213.79
1004.99	213.78
1005.28	213.83
1005.57	213.80
1005.86	213.78
1006.15	213.75
1006.44	213.70
1006.72	213.76
1007.01	213.74
1007.30	213.75
1007.59	213.73
1007.88	213.73
1008.17	213.74
1008.45	213.71
1008.74	213.63
1009.03	213.53
1009.32	213.54
1009.60	213.55
1009.89	213.53
1010.18	213.42
1010.47	213.40
1010.76	213.39
1011.04	213.40
1011.33	213.51
1011.62	213.52
1011.91	213.55
1012.19	213.56
1012.48	213.56
1012.77	213.56
1013.05	213.68
1013.34	213.66
1013.63	213.65
1013.92	213.63
1014.20	213.62
1014.49	213.61
1014.78	213.64
1015.06	213.54
1015.35	213.54
1015.64	213.57
1015.92	213.60
1016.21	213.62
1016.50	213.58
1016.78	213.60
1017.07	213.60
1017.36	213.41
1017.64	213.37
1017.93	213.39
1018.22	213.40
1018.50	213.41
1018.79	213.37
1019.08	213.26
1019.36	213.25
1019.65	213.23
1019.93	213.33
1020.22	213.35
1020.51	213.48
1020.79	213.44
1021.08	213.58
1021.36	213.49
1021.65	212.91
1021.94	213.50
1022.22	213.09
1022.51	212.95
1022.79	214.38
1023.08	213.63
1023.36	216.39
1023.65	212.73
>>>>>End Processed Spectral Data<<<<<
