SpectraSuite Data File
++++++++++++++++++++++++++++++++++++
Date: Tue Jan 29 15:58:24 EST 2013
User: group
Dark Spectrum Present: No
Reference Spectrum Present: No
Number of Sampled Component Spectra: 1
Spectrometers: USB2E7196
Integration Time (usec): 65000 (USB2E7196)
Spectra Averaged: 100 (USB2E7196)
Boxcar Smoothing: 10 (USB2E7196)
Correct for Electrical Dark: No (USB2E7196)
Strobe/Lamp Enabled: No (USB2E7196)
Correct for Detector Non-linearity: No (USB2E7196)
Correct for Stray Light: No (USB2E7196)
Number of Pixels in Processed Spectrum: 2048
>>>>>Begin Processed Spectral Data<<<<<
339.09	0.00
339.48	203.14
339.86	203.92
340.24	205.54
340.63	206.92
341.01	211.67
341.39	209.91
341.78	211.74
342.16	213.56
342.54	213.03
342.93	202.12
343.31	212.34
343.69	212.87
344.07	213.33
344.46	213.80
344.84	214.19
345.22	214.36
345.60	214.64
345.99	214.81
346.37	214.92
346.75	215.04
347.13	215.12
347.52	215.19
347.90	215.31
348.28	215.36
348.66	215.43
349.05	215.39
349.43	215.47
349.81	215.54
350.19	215.62
350.57	215.67
350.96	215.77
351.34	215.85
351.72	215.95
352.10	216.09
352.48	216.15
352.87	216.21
353.25	216.26
353.63	216.31
354.01	216.36
354.39	216.43
354.77	216.50
355.15	216.62
355.54	216.67
355.92	216.68
356.30	216.76
356.68	216.92
357.06	217.00
357.44	217.01
357.82	217.03
358.20	217.13
358.58	217.21
358.97	217.27
359.35	217.37
359.73	217.46
360.11	217.50
360.49	217.54
360.87	217.61
361.25	217.69
361.63	217.81
362.01	217.88
362.39	217.88
362.77	217.92
363.15	217.91
363.53	217.97
363.91	218.00
364.29	218.02
364.67	217.89
365.05	217.89
365.43	217.92
365.81	217.98
366.19	218.07
366.57	218.17
366.95	218.17
367.33	218.12
367.71	218.12
368.09	218.15
368.47	218.15
368.85	218.11
369.23	218.14
369.61	218.05
369.99	218.08
370.37	218.10
370.75	218.19
371.13	218.16
371.51	218.08
371.89	218.07
372.27	218.06
372.65	218.05
373.03	218.05
373.41	218.01
373.78	217.94
374.16	217.74
374.54	217.67
374.92	217.63
375.30	217.59
375.68	217.52
376.06	217.49
376.44	217.44
376.82	217.40
377.19	217.35
377.57	217.32
377.95	217.20
378.33	217.15
378.71	216.97
379.09	216.96
379.47	216.96
379.84	216.90
380.22	216.84
380.60	216.76
380.98	216.71
381.36	216.70
381.73	216.64
382.11	216.68
382.49	216.63
382.87	216.57
383.25	216.52
383.62	216.73
384.00	216.68
384.38	216.68
384.76	216.71
385.13	216.72
385.51	216.75
385.89	216.75
386.27	216.73
386.64	216.72
387.02	216.65
387.40	216.63
387.78	216.61
388.15	216.58
388.53	216.53
388.91	216.52
389.29	216.46
389.66	216.49
390.04	216.44
390.42	216.46
390.79	216.45
391.17	216.45
391.55	216.17
391.92	216.14
392.30	216.13
392.68	216.03
393.05	216.04
393.43	216.01
393.81	215.98
394.18	215.95
394.56	215.97
394.94	216.04
395.31	215.96
395.69	216.01
396.06	216.08
396.44	216.15
396.82	216.10
397.19	216.22
397.57	216.23
397.95	216.27
398.32	216.24
398.70	216.31
399.07	216.37
399.45	216.41
399.82	216.47
400.20	216.50
400.58	216.60
400.95	216.56
401.33	216.64
401.70	216.89
402.08	216.96
402.45	217.04
402.83	217.18
403.20	217.37
403.58	217.43
403.95	217.54
404.33	217.66
404.71	217.82
405.08	218.05
405.46	218.22
405.83	218.45
406.21	218.63
406.58	218.85
406.96	219.07
407.33	219.36
407.70	219.68
408.08	220.10
408.45	220.46
408.83	220.84
409.20	221.16
409.58	221.41
409.95	221.88
410.33	222.31
410.70	222.72
411.08	223.24
411.45	223.81
411.82	224.36
412.20	225.04
412.57	225.87
412.95	226.41
413.32	227.19
413.69	227.96
414.07	228.86
414.44	229.81
414.82	230.82
415.19	231.95
415.56	233.06
415.94	234.20
416.31	235.52
416.68	236.86
417.06	238.41
417.43	239.88
417.81	241.53
418.18	243.26
418.55	245.10
418.93	247.01
419.30	249.03
419.67	251.17
420.04	253.37
420.42	255.64
420.79	258.39
421.16	261.05
421.54	263.84
421.91	266.66
422.28	269.66
422.66	272.78
423.03	275.91
423.40	279.12
423.77	282.56
424.15	286.08
424.52	289.77
424.89	293.82
425.26	297.73
425.64	301.49
426.01	305.65
426.38	309.93
426.75	314.31
427.13	318.86
427.50	323.68
427.87	328.66
428.24	333.64
428.61	338.44
428.99	343.73
429.36	349.52
429.73	355.21
430.10	360.83
430.47	366.72
430.85	372.78
431.22	379.30
431.59	386.10
431.96	392.67
432.33	399.84
432.70	406.76
433.08	414.97
433.45	422.73
433.82	430.44
434.19	439.01
434.56	447.40
434.93	455.40
435.30	463.33
435.68	472.11
436.05	480.70
436.42	489.25
436.79	497.04
437.16	505.45
437.53	514.37
437.90	523.15
438.27	531.70
438.64	540.55
439.01	548.74
439.38	556.07
439.75	563.10
440.13	571.21
440.50	578.80
440.87	584.94
441.24	591.32
441.61	598.32
441.98	603.41
442.35	609.48
442.72	615.56
443.09	621.34
443.46	624.90
443.83	627.37
444.20	629.37
444.57	632.46
444.94	633.87
445.31	635.18
445.68	636.46
446.05	637.05
446.42	636.29
446.79	635.29
447.16	634.27
447.53	633.55
447.90	630.29
448.27	627.17
448.64	622.69
449.01	619.44
449.37	613.76
449.74	608.32
450.11	601.64
450.48	594.49
450.85	587.35
451.22	581.16
451.59	575.23
451.96	569.74
452.33	562.18
452.70	555.40
453.07	547.31
453.43	539.11
453.80	531.17
454.17	523.48
454.54	516.21
454.91	508.34
455.28	500.69
455.65	493.63
456.02	486.47
456.38	480.44
456.75	472.96
457.12	466.65
457.49	460.47
457.86	454.61
458.23	449.54
458.59	443.89
458.96	438.16
459.33	433.14
459.70	427.95
460.07	423.89
460.43	419.16
460.80	414.79
461.17	411.00
461.54	406.94
461.91	403.12
462.27	399.25
462.64	395.96
463.01	392.33
463.38	388.80
463.74	385.20
464.11	382.09
464.48	379.35
464.85	376.42
465.21	374.09
465.58	371.56
465.95	368.51
466.32	366.00
466.68	363.50
467.05	361.04
467.42	358.57
467.78	356.02
468.15	353.62
468.52	351.77
468.88	349.37
469.25	347.27
469.62	345.54
469.98	343.72
470.35	342.02
470.72	340.38
471.08	338.69
471.45	337.29
471.82	335.84
472.18	334.28
472.55	333.14
472.92	331.84
473.28	330.67
473.65	329.58
474.02	328.54
474.38	327.72
474.75	327.00
475.11	326.28
475.48	325.74
475.85	325.27
476.21	324.86
476.58	324.53
476.94	324.36
477.31	324.10
477.67	323.85
478.04	323.71
478.41	323.74
478.77	323.88
479.14	323.86
479.50	324.06
479.87	324.32
480.23	324.67
480.60	324.93
480.96	325.26
481.33	325.90
481.69	326.44
482.06	326.90
482.42	327.38
482.79	328.00
483.15	328.78
483.52	329.78
483.88	330.70
484.25	331.69
484.61	332.68
484.98	333.69
485.34	334.98
485.71	336.34
486.07	337.72
486.44	339.06
486.80	340.65
487.17	342.31
487.53	344.13
487.90	345.98
488.26	347.98
488.62	350.16
488.99	352.17
489.35	354.33
489.72	356.75
490.08	359.28
490.44	361.80
490.81	364.49
491.17	367.17
491.54	370.14
491.90	373.17
492.26	376.42
492.63	379.86
492.99	383.32
493.36	387.06
493.72	390.94
494.08	394.96
494.45	399.18
494.81	403.51
495.17	407.97
495.54	412.71
495.90	417.56
496.26	422.46
496.63	427.63
496.99	433.01
497.35	438.56
497.72	444.38
498.08	450.33
498.44	456.42
498.80	462.82
499.17	469.29
499.53	475.93
499.89	482.86
500.26	489.74
500.62	496.82
500.98	504.18
501.34	511.66
501.71	519.44
502.07	527.17
502.43	535.11
502.79	543.14
503.16	551.47
503.52	560.01
503.88	568.70
504.24	577.72
504.60	586.77
504.97	596.07
505.33	605.31
505.69	615.10
506.05	624.92
506.41	634.78
506.78	644.79
507.14	654.98
507.50	665.31
507.86	676.02
508.22	686.76
508.59	697.33
508.95	708.35
509.31	719.52
509.67	730.97
510.03	742.46
510.39	754.31
510.75	766.09
511.12	777.99
511.48	790.04
511.84	802.09
512.20	814.30
512.56	826.72
512.92	839.39
513.28	851.94
513.64	864.57
514.00	877.17
514.37	889.95
514.73	902.93
515.09	915.85
515.45	928.59
515.81	941.55
516.17	954.81
516.53	967.82
516.89	980.73
517.25	993.75
517.61	1006.93
517.97	1020.11
518.33	1033.02
518.69	1046.34
519.05	1059.86
519.41	1073.30
519.77	1087.04
520.13	1100.14
520.49	1113.14
520.85	1126.47
521.21	1139.67
521.57	1153.34
521.93	1166.37
522.29	1180.07
522.65	1193.40
523.01	1206.84
523.37	1219.66
523.73	1232.71
524.09	1245.69
524.45	1258.89
524.81	1272.14
525.17	1285.36
525.53	1298.15
525.89	1311.19
526.25	1324.00
526.61	1336.53
526.97	1349.43
527.33	1361.98
527.68	1375.11
528.04	1388.34
528.40	1400.98
528.76	1414.05
529.12	1426.48
529.48	1439.36
529.84	1451.25
530.20	1463.75
530.56	1476.16
530.91	1489.33
531.27	1501.82
531.63	1514.31
531.99	1526.78
532.35	1538.71
532.71	1550.84
533.07	1563.35
533.42	1575.21
533.78	1587.07
534.14	1598.86
534.50	1609.80
534.86	1621.17
535.21	1631.79
535.57	1642.81
535.93	1653.99
536.29	1664.78
536.65	1675.91
537.00	1686.58
537.36	1697.51
537.72	1708.12
538.08	1718.93
538.44	1729.38
538.79	1740.09
539.15	1750.52
539.51	1760.81
539.87	1771.80
540.22	1782.20
540.58	1792.82
540.94	1803.38
541.29	1813.29
541.65	1822.68
542.01	1832.88
542.37	1842.62
542.72	1852.55
543.08	1862.19
543.44	1872.24
543.79	1881.28
544.15	1890.42
544.51	1900.24
544.87	1909.78
545.22	1918.52
545.58	1927.21
545.94	1935.83
546.29	1944.12
546.65	1952.29
547.01	1960.18
547.36	1967.49
547.72	1974.92
548.07	1982.29
548.43	1989.79
548.79	1997.35
549.14	2005.15
549.50	2013.19
549.86	2020.56
550.21	2027.66
550.57	2034.77
550.92	2041.23
551.28	2048.33
551.64	2055.46
551.99	2062.56
552.35	2069.55
552.70	2076.48
553.06	2082.95
553.41	2088.91
553.77	2095.29
554.13	2101.48
554.48	2108.45
554.84	2115.40
555.19	2121.86
555.55	2128.27
555.90	2134.57
556.26	2141.25
556.61	2147.00
556.97	2151.88
557.32	2157.74
557.68	2164.03
558.03	2169.88
558.39	2174.98
558.74	2180.84
559.10	2186.30
559.45	2191.78
559.81	2197.34
560.16	2202.86
560.52	2208.70
560.87	2215.16
561.23	2221.04
561.58	2227.71
561.94	2232.91
562.29	2237.73
562.64	2243.82
563.00	2249.24
563.35	2254.89
563.71	2260.80
564.06	2266.58
564.42	2272.45
564.77	2277.76
565.12	2282.95
565.48	2288.11
565.83	2293.75
566.19	2299.36
566.54	2304.74
566.89	2309.54
567.25	2314.23
567.60	2319.83
567.96	2325.07
568.31	2329.73
568.66	2334.03
569.02	2337.84
569.37	2341.52
569.72	2345.95
570.08	2349.46
570.43	2352.77
570.78	2355.71
571.14	2358.28
571.49	2361.61
571.84	2365.29
572.20	2368.23
572.55	2371.34
572.90	2373.66
573.26	2376.93
573.61	2379.40
573.96	2381.66
574.31	2383.67
574.67	2385.66
575.02	2386.80
575.37	2388.26
575.72	2389.26
576.08	2390.94
576.43	2391.45
576.78	2392.58
577.13	2394.54
577.49	2395.82
577.84	2397.39
578.19	2399.16
578.54	2400.19
578.90	2401.49
579.25	2401.66
579.60	2401.81
579.95	2401.40
580.30	2402.10
580.66	2401.49
581.01	2400.18
581.36	2398.32
581.71	2397.34
582.06	2396.43
582.42	2395.86
582.77	2394.03
583.12	2392.60
583.47	2391.64
583.82	2391.38
584.17	2390.16
584.53	2388.05
584.88	2386.45
585.23	2384.65
585.58	2382.54
585.93	2380.36
586.28	2378.22
586.63	2376.14
586.98	2374.23
587.34	2372.56
587.69	2370.30
588.04	2368.40
588.39	2367.08
588.74	2364.80
589.09	2362.46
589.44	2359.70
589.79	2357.28
590.14	2355.72
590.49	2353.04
590.84	2349.38
591.19	2346.61
591.54	2343.52
591.89	2339.91
592.25	2336.85
592.60	2332.77
592.95	2328.83
593.30	2324.89
593.65	2320.64
594.00	2316.40
594.35	2313.41
594.70	2308.94
595.05	2304.39
595.40	2299.17
595.75	2293.76
596.10	2290.18
596.45	2285.26
596.80	2280.76
597.15	2275.71
597.50	2269.86
597.85	2264.99
598.19	2259.84
598.54	2254.09
598.89	2249.19
599.24	2244.72
599.59	2238.65
599.94	2233.24
600.29	2227.51
600.64	2221.89
600.99	2215.42
601.34	2210.06
601.69	2203.10
602.04	2196.78
602.39	2190.41
602.74	2184.52
603.08	2179.11
603.43	2172.61
603.78	2165.97
604.13	2158.98
604.48	2151.92
604.83	2146.06
605.18	2139.90
605.53	2133.02
605.87	2125.94
606.22	2119.20
606.57	2111.26
606.92	2103.52
607.27	2096.47
607.62	2089.96
607.96	2082.95
608.31	2076.43
608.66	2068.70
609.01	2061.28
609.36	2054.22
609.70	2046.57
610.05	2038.86
610.40	2030.75
610.75	2022.68
611.10	2015.19
611.44	2006.54
611.79	1997.65
612.14	1987.58
612.49	1977.28
612.83	1968.32
613.18	1959.25
613.53	1949.88
613.88	1940.38
614.22	1931.77
614.57	1921.89
614.92	1911.28
615.27	1901.30
615.61	1891.27
615.96	1881.58
616.31	1872.11
616.65	1862.73
617.00	1852.80
617.35	1843.09
617.70	1833.29
618.04	1823.17
618.39	1812.68
618.74	1802.95
619.08	1793.59
619.43	1784.89
619.78	1776.67
620.12	1767.77
620.47	1758.01
620.82	1747.70
621.16	1738.04
621.51	1727.98
621.85	1718.05
622.20	1707.61
622.55	1696.86
622.89	1687.05
623.24	1677.31
623.59	1667.57
623.93	1657.45
624.28	1647.84
624.62	1637.61
624.97	1627.23
625.32	1617.55
625.66	1608.89
626.01	1599.93
626.35	1590.43
626.70	1580.17
627.04	1569.89
627.39	1559.82
627.73	1550.55
628.08	1541.52
628.43	1531.79
628.77	1522.58
629.12	1513.72
629.46	1505.83
629.81	1497.37
630.15	1487.79
630.50	1477.97
630.84	1467.51
631.19	1457.61
631.53	1448.08
631.88	1437.95
632.22	1428.00
632.57	1418.52
632.91	1408.24
633.26	1398.40
633.60	1388.88
633.95	1379.65
634.29	1370.27
634.64	1360.89
634.98	1351.07
635.32	1341.78
635.67	1333.26
636.01	1323.97
636.36	1314.12
636.70	1304.51
637.05	1295.24
637.39	1286.13
637.73	1277.40
638.08	1269.73
638.42	1261.48
638.77	1252.66
639.11	1244.38
639.45	1236.52
639.80	1227.88
640.14	1219.19
640.49	1210.26
640.83	1201.40
641.17	1193.30
641.52	1184.99
641.86	1176.41
642.20	1168.29
642.55	1159.63
642.89	1150.80
643.23	1142.10
643.58	1134.12
643.92	1125.13
644.26	1116.49
644.61	1108.07
644.95	1099.39
645.29	1090.04
645.64	1080.94
645.98	1072.67
646.32	1064.73
646.66	1056.17
647.01	1047.78
647.35	1039.57
647.69	1031.16
648.04	1022.80
648.38	1013.84
648.72	1005.08
649.06	996.63
649.41	988.58
649.75	980.59
650.09	972.70
650.43	964.69
650.78	956.36
651.12	948.63
651.46	941.14
651.80	933.96
652.14	926.63
652.49	919.19
652.83	911.80
653.17	904.18
653.51	896.57
653.85	889.35
654.20	882.07
654.54	874.62
654.88	867.61
655.22	860.45
655.56	853.49
655.90	846.69
656.25	840.09
656.59	833.09
656.93	826.17
657.27	818.98
657.61	812.05
657.95	806.03
658.29	800.14
658.64	794.07
658.98	787.55
659.32	780.96
659.66	774.74
660.00	768.44
660.34	762.29
660.68	756.26
661.02	750.01
661.36	744.19
661.70	738.48
662.05	732.76
662.39	727.32
662.73	722.03
663.07	716.66
663.41	711.05
663.75	705.46
664.09	699.97
664.43	694.63
664.77	689.32
665.11	683.47
665.45	677.67
665.79	671.93
666.13	666.32
666.47	660.93
666.81	655.57
667.15	650.27
667.49	645.21
667.83	639.96
668.17	634.72
668.51	629.61
668.85	624.70
669.19	619.87
669.53	614.90
669.87	609.85
670.21	605.18
670.55	600.48
670.89	596.16
671.23	591.87
671.57	587.65
671.91	583.42
672.25	579.38
672.58	575.31
672.92	571.30
673.26	567.45
673.60	563.64
673.94	559.85
674.28	556.18
674.62	552.46
674.96	548.80
675.30	545.38
675.64	541.78
675.97	538.28
676.31	534.77
676.65	531.23
676.99	527.81
677.33	524.02
677.67	520.46
678.01	516.67
678.34	513.02
678.68	509.52
679.02	505.97
679.36	502.29
679.70	498.71
680.04	495.22
680.37	491.84
680.71	488.58
681.05	485.44
681.39	482.35
681.73	479.20
682.06	476.22
682.40	473.13
682.74	469.97
683.08	466.81
683.42	463.67
683.75	460.72
684.09	457.73
684.43	455.00
684.77	452.13
685.10	449.36
685.44	446.47
685.78	443.56
686.12	440.92
686.45	438.24
686.79	435.66
687.13	433.21
687.46	430.62
687.80	427.95
688.14	425.18
688.48	422.62
688.81	420.01
689.15	417.50
689.49	414.98
689.82	412.55
690.16	410.01
690.50	407.63
690.83	405.15
691.17	402.69
691.51	400.28
691.84	398.09
692.18	395.87
692.52	393.78
692.85	391.74
693.19	389.58
693.52	387.50
693.86	385.32
694.20	383.15
694.53	381.03
694.87	378.90
695.21	376.87
695.54	374.74
695.88	372.58
696.21	370.41
696.55	368.33
696.88	366.36
697.22	364.48
697.56	362.60
697.89	360.81
698.23	359.09
698.56	357.37
698.90	355.60
699.23	353.69
699.57	351.83
699.90	349.99
700.24	348.26
700.58	346.55
700.91	344.96
701.25	343.44
701.58	341.95
701.92	340.41
702.25	338.83
702.59	337.25
702.92	335.83
703.26	334.36
703.59	332.93
703.93	331.69
704.26	330.26
704.60	328.79
704.93	327.36
705.26	325.88
705.60	324.42
705.93	323.01
706.27	321.76
706.60	320.52
706.94	319.28
707.27	317.87
707.61	316.58
707.94	315.25
708.27	313.76
708.61	312.28
708.94	310.96
709.28	309.72
709.61	308.51
709.94	307.33
710.28	306.17
710.61	305.01
710.95	303.59
711.28	302.52
711.61	301.35
711.95	300.29
712.28	299.15
712.61	298.03
712.95	296.99
713.28	296.00
713.61	294.91
713.95	293.81
714.28	292.86
714.61	291.83
714.95	290.88
715.28	289.90
715.61	288.97
715.95	288.02
716.28	287.07
716.61	286.17
716.95	285.17
717.28	284.27
717.61	283.36
717.94	282.48
718.28	281.52
718.61	280.72
718.94	279.82
719.27	279.00
719.61	278.20
719.94	277.36
720.27	276.40
720.60	275.58
720.94	274.86
721.27	274.14
721.60	273.51
721.93	272.79
722.27	272.21
722.60	271.59
722.93	270.93
723.26	270.32
723.59	269.61
723.93	269.01
724.26	268.35
724.59	267.74
724.92	267.18
725.25	266.64
725.59	266.07
725.92	265.55
726.25	265.03
726.58	264.45
726.91	263.86
727.24	263.38
727.57	262.85
727.91	262.22
728.24	261.69
728.57	261.09
728.90	260.57
729.23	259.94
729.56	259.50
729.89	258.99
730.22	258.45
730.55	257.99
730.89	257.48
731.22	257.02
731.55	256.50
731.88	256.01
732.21	255.48
732.54	254.98
732.87	254.46
733.20	253.97
733.53	253.54
733.86	253.10
734.19	252.61
734.52	252.22
734.85	251.96
735.18	251.52
735.51	251.17
735.84	250.75
736.17	250.37
736.50	249.86
736.83	249.70
737.16	249.30
737.49	248.91
737.82	248.50
738.15	248.13
738.48	247.75
738.81	247.36
739.14	247.01
739.47	246.64
739.80	246.30
740.13	245.98
740.46	245.57
740.79	245.21
741.12	244.86
741.45	244.51
741.78	244.08
742.11	243.78
742.44	243.39
742.77	243.08
743.10	242.76
743.43	242.42
743.75	241.87
744.08	241.82
744.41	241.47
744.74	241.16
745.07	240.81
745.40	240.54
745.73	240.30
746.06	239.98
746.39	239.70
746.71	239.36
747.04	238.97
747.37	238.70
747.70	238.42
748.03	238.15
748.36	237.84
748.68	237.55
749.01	237.22
749.34	236.93
749.67	236.70
750.00	236.42
750.33	236.29
750.65	236.06
750.98	235.54
751.31	235.32
751.64	235.13
751.97	235.01
752.29	234.76
752.62	234.44
752.95	234.18
753.28	233.91
753.60	233.70
753.93	233.57
754.26	233.35
754.59	233.07
754.91	232.85
755.24	232.63
755.57	232.41
755.90	232.20
756.22	232.01
756.55	231.74
756.88	231.51
757.20	231.17
757.53	230.93
757.86	230.76
758.19	230.58
758.51	230.35
758.84	230.06
759.17	229.84
759.49	229.69
759.82	229.64
760.15	229.49
760.47	229.29
760.80	229.08
761.13	228.90
761.45	228.71
761.78	228.52
762.11	228.35
762.43	228.17
762.76	227.99
763.08	227.83
763.41	227.67
763.74	227.57
764.06	227.42
764.39	227.28
764.71	227.11
765.04	226.94
765.37	226.79
765.69	226.65
766.02	226.49
766.34	226.35
766.67	226.12
767.00	226.04
767.32	226.03
767.65	225.99
767.97	225.88
768.30	225.79
768.62	225.71
768.95	225.58
769.27	225.45
769.60	225.37
769.92	225.24
770.25	225.09
770.57	224.93
770.90	224.80
771.22	224.63
771.55	224.54
771.87	224.42
772.20	224.29
772.52	224.33
772.85	224.49
773.17	224.37
773.50	224.26
773.82	224.09
774.15	223.85
774.47	223.65
774.80	223.55
775.12	223.42
775.45	223.31
775.77	223.24
776.09	223.17
776.42	223.08
776.74	223.06
777.07	222.94
777.39	222.86
777.72	222.77
778.04	222.74
778.36	222.68
778.69	222.60
779.01	222.55
779.33	222.30
779.66	221.97
779.98	221.89
780.31	221.82
780.63	221.81
780.95	221.79
781.28	221.71
781.60	221.60
781.92	221.54
782.25	221.48
782.57	221.38
782.89	221.29
783.22	221.18
783.54	221.07
783.86	221.06
784.19	221.01
784.51	221.02
784.83	220.93
785.16	220.85
785.48	220.79
785.80	220.70
786.12	220.66
786.45	220.62
786.77	220.58
787.09	220.53
787.42	220.43
787.74	220.37
788.06	220.33
788.38	220.30
788.71	220.24
789.03	220.18
789.35	220.16
789.67	220.10
789.99	220.09
790.32	220.01
790.64	219.98
790.96	220.06
791.28	219.94
791.61	219.89
791.93	219.84
792.25	219.77
792.57	219.91
792.89	219.83
793.21	219.82
793.54	219.74
793.86	219.66
794.18	219.62
794.50	219.58
794.82	219.52
795.14	219.48
795.47	219.50
795.79	219.48
796.11	219.40
796.43	219.35
796.75	219.31
797.07	219.29
797.39	219.26
797.71	219.08
798.04	219.05
798.36	219.04
798.68	219.03
799.00	219.05
799.32	218.89
799.64	218.92
799.96	218.89
800.28	218.91
800.60	218.90
800.92	218.89
801.24	218.81
801.56	218.78
801.89	218.77
802.21	218.73
802.53	218.63
802.85	218.67
803.17	218.72
803.49	218.66
803.81	218.59
804.13	218.54
804.45	218.51
804.77	218.50
805.09	218.44
805.41	218.35
805.73	218.24
806.05	218.16
806.37	218.11
806.69	218.03
807.01	217.98
807.33	217.96
807.65	217.85
807.97	217.93
808.28	217.86
808.60	217.81
808.92	217.74
809.24	217.86
809.56	217.80
809.88	217.73
810.20	217.69
810.52	217.75
810.84	217.69
811.16	217.65
811.48	217.60
811.80	217.65
812.12	217.64
812.43	217.65
812.75	217.64
813.07	217.61
813.39	217.63
813.71	217.57
814.03	217.50
814.35	217.51
814.67	217.42
814.98	217.44
815.30	217.44
815.62	217.42
815.94	217.27
816.26	217.23
816.58	217.17
816.89	217.19
817.21	217.09
817.53	217.11
817.85	217.06
818.17	217.03
818.48	216.95
818.80	216.96
819.12	216.91
819.44	216.86
819.76	216.82
820.07	216.76
820.39	216.75
820.71	216.76
821.03	216.76
821.34	216.73
821.66	216.70
821.98	216.72
822.30	216.69
822.61	216.79
822.93	216.75
823.25	216.72
823.57	216.68
823.88	216.75
824.20	216.70
824.52	216.74
824.83	216.76
825.15	216.69
825.47	216.68
825.79	216.69
826.10	216.66
826.42	216.64
826.74	216.66
827.05	216.66
827.37	216.64
827.69	216.63
828.00	216.64
828.32	216.62
828.64	216.55
828.95	216.67
829.27	216.58
829.58	216.58
829.90	216.62
830.22	216.62
830.53	216.56
830.85	216.54
831.17	216.50
831.48	216.46
831.80	216.47
832.11	216.43
832.43	216.41
832.75	216.42
833.06	216.56
833.38	216.50
833.69	216.45
834.01	216.43
834.32	216.40
834.64	216.35
834.96	216.37
835.27	216.36
835.59	216.27
835.90	216.24
836.22	216.21
836.53	216.15
836.85	216.08
837.16	216.26
837.48	216.25
837.79	216.28
838.11	216.32
838.42	216.33
838.74	216.34
839.05	216.30
839.37	216.29
839.68	216.10
840.00	216.07
840.31	216.11
840.63	216.11
840.94	216.07
841.26	216.07
841.57	216.06
841.88	216.08
842.20	216.07
842.51	216.01
842.83	216.02
843.14	216.19
843.46	216.25
843.77	216.14
844.08	216.11
844.40	216.07
844.71	216.00
845.03	215.98
845.34	215.94
845.65	215.98
845.97	215.96
846.28	215.98
846.60	216.01
846.91	215.96
847.22	215.95
847.54	215.99
847.85	215.98
848.16	215.95
848.48	215.89
848.79	215.92
849.10	215.97
849.42	216.01
849.73	215.81
850.04	215.80
850.36	215.70
850.67	215.74
850.98	215.72
851.30	215.76
851.61	215.77
851.92	215.77
852.23	215.83
852.55	215.84
852.86	215.82
853.17	215.84
853.49	215.89
853.80	215.95
854.11	215.98
854.42	216.01
854.74	215.96
855.05	215.95
855.36	215.87
855.67	215.85
855.99	215.82
856.30	216.06
856.61	216.01
856.92	216.06
857.23	216.02
857.55	215.99
857.86	215.95
858.17	215.97
858.48	215.95
858.79	215.90
859.11	215.94
859.42	215.95
859.73	215.90
860.04	215.88
860.35	215.79
860.66	215.73
860.98	215.68
861.29	215.73
861.60	215.74
861.91	215.80
862.22	215.75
862.53	215.75
862.84	215.52
863.16	215.56
863.47	215.49
863.78	215.49
864.09	215.54
864.40	215.59
864.71	215.58
865.02	215.59
865.33	215.51
865.64	215.48
865.95	215.47
866.27	215.61
866.58	215.58
866.89	215.62
867.20	215.60
867.51	215.59
867.82	215.59
868.13	215.63
868.44	215.58
868.75	215.64
869.06	215.62
869.37	215.63
869.68	215.57
869.99	215.61
870.30	215.62
870.61	215.63
870.92	215.56
871.23	215.51
871.54	215.54
871.85	215.62
872.16	215.63
872.47	215.61
872.78	215.49
873.09	215.53
873.40	215.52
873.71	215.56
874.02	215.57
874.33	215.52
874.64	215.50
874.95	215.53
875.26	215.51
875.56	215.50
875.87	215.50
876.18	215.50
876.49	215.71
876.80	215.68
877.11	215.64
877.42	215.68
877.73	215.70
878.04	215.68
878.35	215.66
878.66	215.68
878.96	215.66
879.27	215.69
879.58	215.67
879.89	215.66
880.20	215.71
880.51	215.71
880.82	215.74
881.12	215.73
881.43	215.66
881.74	215.62
882.05	215.60
882.36	215.62
882.67	215.61
882.97	215.40
883.28	215.39
883.59	215.37
883.90	215.36
884.21	215.39
884.51	215.38
884.82	215.37
885.13	215.36
885.44	215.38
885.74	215.34
886.05	215.33
886.36	215.32
886.67	215.25
886.98	215.36
887.28	215.37
887.59	215.38
887.90	215.40
888.20	215.40
888.51	215.47
888.82	215.43
889.13	215.45
889.43	215.57
889.74	215.57
890.05	215.57
890.35	215.59
890.66	215.55
890.97	215.52
891.28	215.52
891.58	215.53
891.89	215.55
892.20	215.52
892.50	215.50
892.81	215.49
893.12	215.48
893.42	215.39
893.73	215.35
894.04	215.35
894.34	215.37
894.65	215.36
894.95	215.29
895.26	215.32
895.57	215.43
895.87	215.26
896.18	215.30
896.48	215.31
896.79	215.30
897.10	215.34
897.40	215.38
897.71	215.42
898.01	215.37
898.32	215.35
898.63	215.36
898.93	215.35
899.24	215.35
899.54	215.35
899.85	215.33
900.15	215.35
900.46	215.34
900.76	215.36
901.07	215.37
901.38	215.41
901.68	215.38
901.99	215.26
902.29	215.29
902.60	215.28
902.90	215.25
903.21	215.23
903.51	215.18
903.82	215.19
904.12	215.16
904.43	215.21
904.73	215.21
905.03	215.20
905.34	215.40
905.64	215.39
905.95	215.38
906.25	215.37
906.56	215.34
906.86	215.33
907.17	215.32
907.47	215.31
907.77	215.27
908.08	215.27
908.38	215.26
908.69	215.29
908.99	215.31
909.30	215.33
909.60	215.32
909.90	215.38
910.21	215.33
910.51	215.29
910.81	215.27
911.12	215.28
911.42	215.28
911.73	215.07
912.03	215.10
912.33	215.13
912.64	215.12
912.94	215.12
913.24	215.10
913.55	215.06
913.85	215.05
914.15	215.10
914.46	215.13
914.76	215.13
915.06	215.08
915.37	215.03
915.67	215.02
915.97	215.03
916.27	214.97
916.58	214.97
916.88	214.96
917.18	214.94
917.49	215.07
917.79	215.06
918.09	215.08
918.39	215.13
918.70	215.12
919.00	215.14
919.30	215.24
919.60	215.25
919.91	215.22
920.21	215.26
920.51	215.21
920.81	215.21
921.12	215.27
921.42	215.26
921.72	215.32
922.02	215.32
922.32	215.37
922.63	215.35
922.93	215.41
923.23	215.46
923.53	215.43
923.83	215.29
924.13	215.31
924.44	215.32
924.74	215.33
925.04	215.36
925.34	215.38
925.64	215.28
925.94	215.27
926.24	215.40
926.55	215.39
926.85	215.42
927.15	215.41
927.45	215.38
927.75	215.39
928.05	215.38
928.35	215.38
928.65	215.39
928.95	215.40
929.26	215.35
929.56	215.39
929.86	215.42
930.16	215.42
930.46	215.42
930.76	215.43
931.06	215.32
931.36	215.26
931.66	215.29
931.96	215.35
932.26	215.36
932.56	215.29
932.86	215.24
933.16	215.23
933.46	215.22
933.76	215.19
934.06	215.25
934.36	215.30
934.66	215.29
934.96	215.27
935.26	215.30
935.56	215.34
935.86	215.27
936.16	215.24
936.46	215.23
936.76	215.19
937.06	215.17
937.36	215.21
937.66	215.22
937.96	215.18
938.26	215.09
938.56	215.06
938.86	215.03
939.16	215.09
939.46	215.11
939.76	215.12
940.06	215.14
940.35	215.04
940.65	214.94
940.95	214.96
941.25	214.90
941.55	214.88
941.85	214.85
942.15	214.90
942.45	214.99
942.75	214.97
943.04	214.97
943.34	215.01
943.64	214.98
943.94	214.96
944.24	214.97
944.54	215.03
944.84	215.05
945.13	215.03
945.43	215.01
945.73	215.00
946.03	214.97
946.33	214.92
946.62	214.93
946.92	214.92
947.22	214.92
947.52	214.92
947.82	214.91
948.11	214.91
948.41	214.88
948.71	214.80
949.01	214.83
949.31	214.83
949.60	214.77
949.90	214.79
950.20	214.78
950.50	214.78
950.79	214.74
951.09	214.77
951.39	214.79
951.69	214.78
951.98	214.78
952.28	214.78
952.58	214.77
952.87	214.77
953.17	214.82
953.47	214.79
953.76	214.81
954.06	214.78
954.36	214.74
954.66	214.72
954.95	214.78
955.25	214.77
955.55	214.81
955.84	214.81
956.14	214.87
956.44	214.89
956.73	214.83
957.03	214.83
957.32	214.79
957.62	214.77
957.92	214.78
958.21	214.78
958.51	215.04
958.81	215.09
959.10	215.11
959.40	215.13
959.69	215.16
959.99	215.19
960.29	215.23
960.58	215.21
960.88	215.31
961.17	215.28
961.47	215.33
961.76	215.30
962.06	215.34
962.36	215.28
962.65	215.28
962.95	215.31
963.24	215.31
963.54	215.34
963.83	215.37
964.13	215.37
964.42	215.30
964.72	215.12
965.01	215.12
965.31	215.11
965.60	215.05
965.90	215.20
966.19	215.15
966.49	215.14
966.78	215.14
967.08	215.12
967.37	215.12
967.67	215.06
967.96	215.08
968.26	215.04
968.55	215.09
968.85	215.11
969.14	215.11
969.43	215.13
969.73	215.10
970.02	215.07
970.32	215.08
970.61	215.10
970.91	215.05
971.20	215.04
971.49	215.03
971.79	215.06
972.08	214.89
972.38	214.92
972.67	214.90
972.96	214.92
973.26	214.84
973.55	214.91
973.85	214.92
974.14	214.88
974.43	214.90
974.73	214.87
975.02	214.82
975.31	214.82
975.61	214.79
975.90	214.79
976.19	214.78
976.49	214.80
976.78	214.80
977.07	214.78
977.37	214.77
977.66	214.79
977.95	214.76
978.24	214.77
978.54	214.78
978.83	214.80
979.12	214.80
979.42	214.80
979.71	214.75
980.00	214.71
980.29	214.76
980.59	214.75
980.88	214.79
981.17	214.78
981.46	214.77
981.76	214.78
982.05	214.87
982.34	214.86
982.63	214.87
982.93	214.88
983.22	214.95
983.51	215.00
983.80	215.02
984.09	215.04
984.39	215.03
984.68	215.01
984.97	215.06
985.26	215.04
985.55	215.08
985.85	215.01
986.14	215.07
986.43	215.08
986.72	215.07
987.01	215.01
987.30	215.01
987.59	215.00
987.89	215.03
988.18	214.97
988.47	214.98
988.76	214.95
989.05	214.93
989.34	214.88
989.63	214.92
989.92	214.91
990.22	214.91
990.51	214.87
990.80	214.85
991.09	214.82
991.38	214.86
991.67	214.84
991.96	214.86
992.25	214.83
992.54	214.79
992.83	214.79
993.12	214.81
993.41	214.86
993.70	214.98
993.99	214.98
994.28	215.00
994.58	215.04
994.87	215.00
995.16	214.98
995.45	214.93
995.74	214.81
996.03	214.83
996.32	214.84
996.61	214.89
996.90	214.87
997.19	214.85
997.48	214.88
997.77	214.85
998.06	214.86
998.34	214.84
998.63	214.83
998.92	214.80
999.21	214.82
999.50	214.82
999.79	214.77
1000.08	214.78
1000.37	214.76
1000.66	214.71
1000.95	214.80
1001.24	214.83
1001.53	214.90
1001.82	214.93
1002.11	214.91
1002.40	214.92
1002.68	214.99
1002.97	215.17
1003.26	215.15
1003.55	215.10
1003.84	215.13
1004.13	215.19
1004.42	215.20
1004.71	215.24
1004.99	215.28
1005.28	215.32
1005.57	215.27
1005.86	215.21
1006.15	215.17
1006.44	215.13
1006.72	215.15
1007.01	215.10
1007.30	215.11
1007.59	215.06
1007.88	215.06
1008.17	215.05
1008.45	215.02
1008.74	214.95
1009.03	214.86
1009.32	214.91
1009.60	214.90
1009.89	214.87
1010.18	214.80
1010.47	214.79
1010.76	214.76
1011.04	214.74
1011.33	214.72
1011.62	214.78
1011.91	214.82
1012.19	214.84
1012.48	214.86
1012.77	214.86
1013.05	214.94
1013.34	214.94
1013.63	214.95
1013.92	214.99
1014.20	215.00
1014.49	215.00
1014.78	215.01
1015.06	214.92
1015.35	214.88
1015.64	214.91
1015.92	214.94
1016.21	215.01
1016.50	215.01
1016.78	215.04
1017.07	215.04
1017.36	215.03
1017.64	214.99
1017.93	214.96
1018.22	214.95
1018.50	214.94
1018.79	214.93
1019.08	214.85
1019.36	214.88
1019.65	214.86
1019.93	214.88
1020.22	214.93
1020.51	215.04
1020.79	215.02
1021.08	214.81
1021.36	214.30
1021.65	214.67
1021.94	214.94
1022.22	215.61
1022.51	214.23
1022.79	215.57
1023.08	215.87
1023.36	217.55
1023.65	214.35
>>>>>End Processed Spectral Data<<<<<
