SpectraSuite Data File
++++++++++++++++++++++++++++++++++++
Date: Tue Jan 29 16:19:19 EST 2013
User: group
Dark Spectrum Present: No
Reference Spectrum Present: No
Number of Sampled Component Spectra: 1
Spectrometers: USB2E7196
Integration Time (usec): 65000 (USB2E7196)
Spectra Averaged: 100 (USB2E7196)
Boxcar Smoothing: 10 (USB2E7196)
Correct for Electrical Dark: No (USB2E7196)
Strobe/Lamp Enabled: No (USB2E7196)
Correct for Detector Non-linearity: No (USB2E7196)
Correct for Stray Light: No (USB2E7196)
Number of Pixels in Processed Spectrum: 2048
>>>>>Begin Processed Spectral Data<<<<<
339.09	0.00
339.48	202.41
339.86	203.72
340.24	204.79
340.63	206.85
341.01	211.17
341.39	209.44
341.78	210.52
342.16	211.98
342.54	211.91
342.93	201.34
343.31	211.48
343.69	212.01
344.07	212.47
344.46	212.93
344.84	213.30
345.22	213.45
345.60	213.68
345.99	213.90
346.37	214.04
346.75	214.15
347.13	214.27
347.52	214.35
347.90	214.47
348.28	214.50
348.66	214.61
349.05	214.59
349.43	214.69
349.81	214.73
350.19	214.76
350.57	214.82
350.96	214.94
351.34	215.07
351.72	215.16
352.10	215.28
352.48	215.30
352.87	215.34
353.25	215.40
353.63	215.50
354.01	215.56
354.39	215.65
354.77	215.75
355.15	215.90
355.54	215.92
355.92	215.93
356.30	216.01
356.68	216.21
357.06	216.28
357.44	216.29
357.82	216.38
358.20	216.50
358.58	216.58
358.97	216.65
359.35	216.75
359.73	216.89
360.11	216.95
360.49	217.06
360.87	217.14
361.25	217.22
361.63	217.33
362.01	217.38
362.39	217.41
362.77	217.49
363.15	217.50
363.53	217.55
363.91	217.61
364.29	217.63
364.67	217.45
365.05	217.50
365.43	217.56
365.81	217.57
366.19	217.66
366.57	217.74
366.95	217.76
367.33	217.72
367.71	217.70
368.09	217.75
368.47	217.77
368.85	217.78
369.23	217.84
369.61	217.76
369.99	217.85
370.37	217.87
370.75	217.92
371.13	217.86
371.51	217.86
371.89	217.85
372.27	217.87
372.65	217.88
373.03	217.85
373.41	217.79
373.78	217.79
374.16	217.67
374.54	217.56
374.92	217.52
375.30	217.47
375.68	217.38
376.06	217.33
376.44	217.27
376.82	217.25
377.19	217.19
377.57	217.15
377.95	216.99
378.33	216.92
378.71	216.77
379.09	216.76
379.47	216.73
379.84	216.64
380.22	216.57
380.60	216.48
380.98	216.44
381.36	216.42
381.73	216.33
382.11	216.32
382.49	216.31
382.87	216.24
383.25	216.24
383.62	216.44
384.00	216.36
384.38	216.32
384.76	216.32
385.13	216.33
385.51	216.30
385.89	216.25
386.27	216.23
386.64	216.26
387.02	216.22
387.40	216.18
387.78	216.16
388.15	216.16
388.53	216.18
388.91	216.15
389.29	216.10
389.66	216.11
390.04	216.07
390.42	216.08
390.79	216.08
391.17	216.03
391.55	215.82
391.92	215.81
392.30	215.84
392.68	215.76
393.05	215.71
393.43	215.71
393.81	215.73
394.18	215.66
394.56	215.63
394.94	215.68
395.31	215.64
395.69	215.72
396.06	215.75
396.44	215.75
396.82	215.74
397.19	215.84
397.57	215.85
397.95	215.90
398.32	215.85
398.70	215.89
399.07	215.95
399.45	215.95
399.82	215.98
400.20	216.01
400.58	216.08
400.95	216.10
401.33	216.22
401.70	216.45
402.08	216.56
402.45	216.66
402.83	216.76
403.20	216.91
403.58	217.00
403.95	217.13
404.33	217.28
404.71	217.43
405.08	217.71
405.46	217.90
405.83	218.10
406.21	218.30
406.58	218.56
406.96	218.82
407.33	219.11
407.70	219.45
408.08	219.91
408.45	220.25
408.83	220.64
409.20	220.97
409.58	221.22
409.95	221.68
410.33	222.14
410.70	222.59
411.08	223.12
411.45	223.65
411.82	224.21
412.20	224.88
412.57	225.69
412.95	226.23
413.32	227.01
413.69	227.83
414.07	228.74
414.44	229.69
414.82	230.67
415.19	231.75
415.56	232.90
415.94	234.01
416.31	235.39
416.68	236.74
417.06	238.29
417.43	239.80
417.81	241.52
418.18	243.25
418.55	245.14
418.93	247.12
419.30	249.17
419.67	251.34
420.04	253.53
420.42	255.85
420.79	258.62
421.16	261.35
421.54	264.15
421.91	267.08
422.28	270.08
422.66	273.30
423.03	276.52
423.40	279.82
423.77	283.38
424.15	286.96
424.52	290.71
424.89	294.75
425.26	298.77
425.64	302.57
426.01	306.80
426.38	311.13
426.75	315.57
427.13	320.25
427.50	325.12
427.87	330.26
428.24	335.38
428.61	340.24
428.99	345.64
429.36	351.57
429.73	357.33
430.10	363.10
430.47	369.03
430.85	375.27
431.22	381.79
431.59	388.75
431.96	395.41
432.33	402.78
432.70	409.90
433.08	418.19
433.45	426.09
433.82	433.91
434.19	442.64
434.56	451.15
434.93	459.34
435.30	467.45
435.68	476.38
436.05	485.13
436.42	493.85
436.79	501.85
437.16	510.37
437.53	519.47
437.90	528.44
438.27	537.21
438.64	546.16
439.01	554.53
439.38	561.87
439.75	569.07
440.13	577.32
440.50	585.11
440.87	591.37
441.24	597.86
441.61	605.04
441.98	610.35
442.35	616.47
442.72	622.65
443.09	628.57
443.46	632.19
443.83	634.64
444.20	636.78
444.57	639.78
444.94	641.23
445.31	642.62
445.68	643.87
446.05	644.42
446.42	643.68
446.79	642.71
447.16	641.76
447.53	640.98
447.90	637.75
448.27	634.48
448.64	629.99
449.01	626.70
449.37	620.92
449.74	615.30
450.11	608.59
450.48	601.30
450.85	593.97
451.22	587.70
451.59	581.75
451.96	576.02
452.33	568.37
452.70	561.38
453.07	553.05
453.43	544.77
453.80	536.70
454.17	528.87
454.54	521.49
454.91	513.46
455.28	505.71
455.65	498.39
456.02	491.13
456.38	484.96
456.75	477.28
457.12	470.86
457.49	464.54
457.86	458.57
458.23	453.36
458.59	447.56
458.96	441.63
459.33	436.49
459.70	431.27
460.07	427.11
460.43	422.40
460.80	417.97
461.17	413.97
461.54	409.87
461.91	405.93
462.27	401.93
462.64	398.56
463.01	394.80
463.38	391.22
463.74	387.58
464.11	384.38
464.48	381.61
464.85	378.59
465.21	376.21
465.58	373.60
465.95	370.50
466.32	368.01
466.68	365.46
467.05	362.90
467.42	360.43
467.78	357.85
468.15	355.36
468.52	353.49
468.88	351.12
469.25	348.98
469.62	347.25
469.98	345.34
470.35	343.57
470.72	341.93
471.08	340.16
471.45	338.76
471.82	337.28
472.18	335.66
472.55	334.49
472.92	333.12
473.28	331.91
473.65	330.82
474.02	329.70
474.38	328.83
474.75	328.09
475.11	327.28
475.48	326.71
475.85	326.24
476.21	325.80
476.58	325.47
476.94	325.27
477.31	324.98
477.67	324.76
478.04	324.61
478.41	324.60
478.77	324.81
479.14	324.69
479.50	324.84
479.87	325.16
480.23	325.51
480.60	325.79
480.96	326.08
481.33	326.65
481.69	327.22
482.06	327.78
482.42	328.30
482.79	328.95
483.15	329.75
483.52	330.68
483.88	331.48
484.25	332.42
484.61	333.39
484.98	334.46
485.34	335.81
485.71	337.16
486.07	338.61
486.44	339.90
486.80	341.55
487.17	343.23
487.53	345.06
487.90	346.91
488.26	348.96
488.62	351.13
488.99	353.18
489.35	355.42
489.72	357.83
490.08	360.34
490.44	362.88
490.81	365.61
491.17	368.35
491.54	371.33
491.90	374.35
492.26	377.62
492.63	381.02
492.99	384.47
493.36	388.17
493.72	392.07
494.08	396.08
494.45	400.28
494.81	404.63
495.17	409.04
495.54	413.76
495.90	418.55
496.26	423.50
496.63	428.75
496.99	434.13
497.35	439.71
497.72	445.49
498.08	451.45
498.44	457.48
498.80	463.88
499.17	470.40
499.53	477.15
499.89	484.07
500.26	491.05
500.62	498.15
500.98	505.56
501.34	512.94
501.71	520.74
502.07	528.59
502.43	536.62
502.79	544.83
503.16	553.25
503.52	561.84
503.88	570.55
504.24	579.46
504.60	588.50
504.97	597.72
505.33	607.05
505.69	616.88
506.05	626.84
506.41	636.70
506.78	646.84
507.14	657.05
507.50	667.44
507.86	678.12
508.22	688.89
508.59	699.49
508.95	710.62
509.31	721.95
509.67	733.40
510.03	744.78
510.39	756.48
510.75	768.32
511.12	780.35
511.48	792.47
511.84	804.76
512.20	817.10
512.56	829.73
512.92	842.49
513.28	855.12
513.64	867.87
514.00	880.78
514.37	893.69
514.73	906.83
515.09	919.93
515.45	932.87
515.81	946.04
516.17	959.42
516.53	972.66
516.89	985.66
517.25	998.82
517.61	1012.36
517.97	1025.73
518.33	1038.77
518.69	1052.23
519.05	1065.95
519.41	1079.63
519.77	1093.52
520.13	1106.80
520.49	1119.90
520.85	1133.29
521.21	1146.53
521.57	1160.17
521.93	1173.23
522.29	1186.93
522.65	1200.43
523.01	1214.01
523.37	1227.03
523.73	1240.35
524.09	1253.43
524.45	1266.85
524.81	1280.28
525.17	1293.63
525.53	1306.78
525.89	1319.95
526.25	1332.99
526.61	1345.65
526.97	1358.66
527.33	1371.44
527.68	1384.78
528.04	1398.24
528.40	1411.22
528.76	1424.37
529.12	1437.09
529.48	1450.29
529.84	1462.45
530.20	1475.11
530.56	1487.45
530.91	1500.66
531.27	1513.33
531.63	1525.95
531.99	1538.48
532.35	1550.67
532.71	1562.95
533.07	1575.66
533.42	1587.95
533.78	1599.94
534.14	1611.92
534.50	1622.98
534.86	1634.48
535.21	1645.27
535.57	1656.69
535.93	1667.83
536.29	1678.91
536.65	1690.29
537.00	1701.03
537.36	1712.30
537.72	1723.08
538.08	1734.38
538.44	1745.13
538.79	1756.20
539.15	1767.01
539.51	1777.61
539.87	1788.71
540.22	1799.38
540.58	1810.09
540.94	1820.75
541.29	1830.83
541.65	1840.45
542.01	1850.76
542.37	1860.70
542.72	1870.62
543.08	1880.13
543.44	1890.57
543.79	1899.78
544.15	1909.02
544.51	1918.96
544.87	1928.53
545.22	1937.69
545.58	1946.56
545.94	1955.38
546.29	1963.64
546.65	1971.81
547.01	1979.94
547.36	1987.48
547.72	1995.01
548.07	2002.67
548.43	2010.32
548.79	2018.16
549.14	2026.20
549.50	2034.57
549.86	2042.40
550.21	2049.79
550.57	2057.47
550.92	2063.98
551.28	2071.30
551.64	2078.47
551.99	2085.95
552.35	2093.08
552.70	2099.92
553.06	2106.37
553.41	2112.65
553.77	2119.27
554.13	2125.65
554.48	2132.66
554.84	2139.76
555.19	2146.28
555.55	2152.56
555.90	2158.80
556.26	2165.54
556.61	2171.58
556.97	2176.45
557.32	2182.13
557.68	2188.52
558.03	2194.25
558.39	2199.69
558.74	2205.70
559.10	2211.12
559.45	2216.60
559.81	2222.09
560.16	2227.60
560.52	2233.50
560.87	2239.76
561.23	2245.61
561.58	2252.34
561.94	2257.63
562.29	2262.29
562.64	2268.49
563.00	2274.38
563.35	2279.99
563.71	2285.76
564.06	2291.51
564.42	2297.50
564.77	2302.66
565.12	2307.93
565.48	2313.07
565.83	2318.71
566.19	2324.19
566.54	2329.77
566.89	2334.35
567.25	2339.18
567.60	2344.98
567.96	2350.21
568.31	2354.96
568.66	2359.38
569.02	2363.33
569.37	2367.09
569.72	2371.63
570.08	2375.20
570.43	2378.22
570.78	2381.39
571.14	2384.05
571.49	2387.39
571.84	2391.11
572.20	2394.10
572.55	2397.24
572.90	2399.83
573.26	2402.80
573.61	2405.48
573.96	2407.79
574.31	2410.08
574.67	2412.08
575.02	2412.98
575.37	2414.60
575.72	2415.49
576.08	2416.90
576.43	2417.20
576.78	2417.83
577.13	2419.57
577.49	2420.79
577.84	2422.02
578.19	2423.57
578.54	2424.19
578.90	2424.98
579.25	2424.93
579.60	2425.10
579.95	2424.50
580.30	2424.50
580.66	2423.79
581.01	2422.28
581.36	2420.08
581.71	2418.76
582.06	2417.68
582.42	2417.03
582.77	2414.87
583.12	2413.34
583.47	2412.24
583.82	2411.80
584.17	2410.69
584.53	2408.71
584.88	2406.85
585.23	2405.19
585.58	2403.05
585.93	2401.23
586.28	2399.31
586.63	2397.07
586.98	2394.94
587.34	2393.11
587.69	2390.94
588.04	2389.09
588.39	2387.97
588.74	2385.73
589.09	2383.32
589.44	2380.28
589.79	2377.77
590.14	2376.04
590.49	2373.36
590.84	2369.67
591.19	2366.80
591.54	2363.79
591.89	2359.93
592.25	2356.81
592.60	2352.86
592.95	2348.84
593.30	2344.91
593.65	2340.55
594.00	2336.20
594.35	2333.28
594.70	2328.91
595.05	2324.47
595.40	2319.03
595.75	2313.30
596.10	2309.74
596.45	2304.96
596.80	2300.46
597.15	2295.55
597.50	2289.70
597.85	2284.77
598.19	2279.54
598.54	2273.52
598.89	2268.39
599.24	2263.75
599.59	2257.67
599.94	2251.77
600.29	2245.91
600.64	2240.00
600.99	2233.17
601.34	2227.73
601.69	2220.83
602.04	2214.37
602.39	2207.71
602.74	2201.78
603.08	2196.26
603.43	2189.90
603.78	2183.00
604.13	2176.06
604.48	2168.73
604.83	2162.77
605.18	2156.56
605.53	2149.70
605.87	2142.93
606.22	2136.09
606.57	2128.41
606.92	2120.55
607.27	2113.51
607.62	2106.93
607.96	2099.85
608.31	2093.40
608.66	2085.70
609.01	2078.06
609.36	2070.93
609.70	2063.37
610.05	2055.57
610.40	2047.24
610.75	2038.72
611.10	2031.06
611.44	2022.17
611.79	2013.47
612.14	2003.32
612.49	1992.57
612.83	1983.27
613.18	1973.99
613.53	1964.81
613.88	1955.10
614.22	1946.37
614.57	1936.53
614.92	1925.89
615.27	1915.65
615.61	1905.56
615.96	1895.85
616.31	1886.21
616.65	1876.70
617.00	1866.87
617.35	1857.11
617.70	1847.24
618.04	1837.15
618.39	1826.92
618.74	1817.30
619.08	1807.59
619.43	1798.93
619.78	1790.79
620.12	1782.07
620.47	1772.32
620.82	1761.82
621.16	1752.05
621.51	1742.03
621.85	1732.09
622.20	1721.59
622.55	1711.04
622.89	1701.08
623.24	1691.28
623.59	1681.44
623.93	1671.32
624.28	1661.45
624.62	1651.32
624.97	1641.02
625.32	1631.15
625.66	1622.21
626.01	1613.27
626.35	1603.74
626.70	1593.59
627.04	1583.40
627.39	1573.25
627.73	1563.90
628.08	1554.86
628.43	1545.25
628.77	1535.93
629.12	1527.06
629.46	1519.32
629.81	1510.79
630.15	1501.21
630.50	1491.26
630.84	1480.72
631.19	1470.69
631.53	1461.41
631.88	1451.18
632.22	1441.11
632.57	1431.70
632.91	1421.47
633.26	1411.56
633.60	1401.95
633.95	1392.67
634.29	1383.15
634.64	1373.82
634.98	1363.76
635.32	1354.42
635.67	1345.90
636.01	1336.62
636.36	1326.77
636.70	1317.09
637.05	1307.75
637.39	1298.74
637.73	1290.18
638.08	1282.53
638.42	1274.25
638.77	1265.32
639.11	1256.99
639.45	1249.10
639.80	1240.41
640.14	1231.58
640.49	1222.69
640.83	1213.84
641.17	1205.55
641.52	1197.35
641.86	1188.65
642.20	1180.72
642.55	1171.99
642.89	1162.85
643.23	1154.17
643.58	1146.07
643.92	1136.91
644.26	1128.21
644.61	1119.71
644.95	1110.74
645.29	1101.55
645.64	1092.46
645.98	1083.94
646.32	1075.98
646.66	1067.39
647.01	1059.07
647.35	1050.91
647.69	1042.49
648.04	1034.16
648.38	1025.20
648.72	1016.28
649.06	1007.74
649.41	999.45
649.75	991.61
650.09	983.76
650.43	975.65
650.78	967.24
651.12	959.49
651.46	951.96
651.80	944.66
652.14	937.37
652.49	929.73
652.83	922.23
653.17	914.42
653.51	906.77
653.85	899.51
654.20	892.15
654.54	884.69
654.88	877.41
655.22	870.17
655.56	863.18
655.90	856.34
656.25	849.66
656.59	842.79
656.93	835.65
657.27	828.43
657.61	821.46
657.95	815.40
658.29	809.47
658.64	803.38
658.98	796.94
659.32	790.35
659.66	784.10
660.00	777.81
660.34	771.78
660.68	765.62
661.02	759.31
661.36	753.42
661.70	747.57
662.05	741.94
662.39	736.40
662.73	731.01
663.07	725.64
663.41	720.03
663.75	714.28
664.09	708.54
664.43	703.17
664.77	697.85
665.11	692.01
665.45	686.10
665.79	680.21
666.13	674.47
666.47	668.97
666.81	663.53
667.15	658.13
667.49	652.93
667.83	647.71
668.17	642.41
668.51	637.28
668.85	632.33
669.19	627.38
669.53	622.39
669.87	617.23
670.21	612.44
670.55	607.73
670.89	603.28
671.23	598.95
671.57	594.57
671.91	590.21
672.25	585.98
672.58	581.85
672.92	577.83
673.26	573.87
673.60	569.97
673.94	566.15
674.28	562.53
674.62	558.76
674.96	555.00
675.30	551.49
675.64	547.83
675.97	544.30
676.31	540.75
676.65	537.19
676.99	533.81
677.33	530.03
677.67	526.40
678.01	522.55
678.34	518.98
678.68	515.46
679.02	511.87
679.36	508.23
679.70	504.54
680.04	500.96
680.37	497.56
680.71	494.27
681.05	491.10
681.39	487.82
681.73	484.69
682.06	481.68
682.40	478.61
682.74	475.43
683.08	472.18
683.42	468.95
683.75	465.86
684.09	462.83
684.43	460.03
684.77	457.06
685.10	454.27
685.44	451.35
685.78	448.43
686.12	445.69
686.45	442.95
686.79	440.35
687.13	437.85
687.46	435.21
687.80	432.51
688.14	429.67
688.48	427.01
688.81	424.28
689.15	421.64
689.49	419.04
689.82	416.55
690.16	413.96
690.50	411.50
690.83	409.05
691.17	406.50
691.51	404.04
691.84	401.85
692.18	399.63
692.52	397.46
692.85	395.36
693.19	393.21
693.52	391.04
693.86	388.86
694.20	386.64
694.53	384.50
694.87	382.36
695.21	380.25
695.54	378.19
695.88	376.06
696.21	373.92
696.55	371.81
696.88	369.72
697.22	367.78
697.56	365.95
697.89	364.12
698.23	362.36
698.56	360.56
698.90	358.75
699.23	356.87
699.57	354.97
699.90	353.09
700.24	351.27
700.58	349.53
700.91	347.84
701.25	346.31
701.58	344.73
701.92	343.16
702.25	341.53
702.59	339.87
702.92	338.36
703.26	336.82
703.59	335.36
703.93	334.14
704.26	332.70
704.60	331.18
704.93	329.68
705.26	328.22
705.60	326.80
705.93	325.26
706.27	323.95
706.60	322.74
706.94	321.54
707.27	320.17
707.61	318.88
707.94	317.56
708.27	316.05
708.61	314.63
708.94	313.24
709.28	311.97
709.61	310.78
709.94	309.57
710.28	308.35
710.61	307.15
710.95	305.71
711.28	304.64
711.61	303.49
711.95	302.35
712.28	301.15
712.61	299.95
712.95	298.95
713.28	297.93
713.61	296.78
713.95	295.60
714.28	294.60
714.61	293.56
714.95	292.53
715.28	291.54
715.61	290.54
715.95	289.60
716.28	288.68
716.61	287.75
716.95	286.73
717.28	285.81
717.61	284.89
717.94	283.96
718.28	282.96
718.61	282.06
718.94	281.20
719.27	280.40
719.61	279.59
719.94	278.69
720.27	277.71
720.60	276.85
720.94	276.08
721.27	275.33
721.60	274.61
721.93	273.88
722.27	273.21
722.60	272.54
722.93	271.81
723.26	271.14
723.59	270.42
723.93	269.84
724.26	269.18
724.59	268.53
724.92	267.98
725.25	267.45
725.59	266.89
725.92	266.37
726.25	265.79
726.58	265.24
726.91	264.72
727.24	264.20
727.57	263.63
727.91	263.05
728.24	262.51
728.57	261.92
728.90	261.39
729.23	260.81
729.56	260.36
729.89	259.83
730.22	259.29
730.55	258.78
730.89	258.24
731.22	257.73
731.55	257.21
731.88	256.68
732.21	256.12
732.54	255.58
732.87	255.07
733.20	254.57
733.53	254.10
733.86	253.61
734.19	253.10
734.52	252.69
734.85	252.39
735.18	251.93
735.51	251.57
735.84	251.15
736.17	250.78
736.50	250.28
736.83	250.12
737.16	249.73
737.49	249.36
737.82	248.94
738.15	248.60
738.48	248.24
738.81	247.84
739.14	247.43
739.47	247.07
739.80	246.69
740.13	246.34
740.46	245.94
740.79	245.58
741.12	245.25
741.45	244.89
741.78	244.45
742.11	244.19
742.44	243.82
742.77	243.54
743.10	243.19
743.43	242.84
743.75	242.30
744.08	242.21
744.41	241.82
744.74	241.48
745.07	241.10
745.40	240.79
745.73	240.57
746.06	240.29
746.39	240.00
746.71	239.67
747.04	239.33
747.37	239.04
747.70	238.74
748.03	238.41
748.36	238.11
748.68	237.83
749.01	237.46
749.34	237.14
749.67	236.83
750.00	236.55
750.33	236.43
750.65	236.20
750.98	235.70
751.31	235.45
751.64	235.22
751.97	235.08
752.29	234.80
752.62	234.44
752.95	234.19
753.28	233.88
753.60	233.65
753.93	233.48
754.26	233.24
754.59	232.99
754.91	232.76
755.24	232.50
755.57	232.23
755.90	232.01
756.22	231.78
756.55	231.53
756.88	231.29
757.20	230.93
757.53	230.64
757.86	230.44
758.19	230.29
758.51	230.08
758.84	229.77
759.17	229.57
759.49	229.39
759.82	229.31
760.15	229.20
760.47	228.99
760.80	228.73
761.13	228.59
761.45	228.39
761.78	228.22
762.11	228.12
762.43	227.92
762.76	227.72
763.08	227.59
763.41	227.47
763.74	227.31
764.06	227.18
764.39	227.04
764.71	226.90
765.04	226.71
765.37	226.55
765.69	226.43
766.02	226.29
766.34	226.16
766.67	225.94
767.00	225.83
767.32	225.83
767.65	225.84
767.97	225.68
768.30	225.56
768.62	225.43
768.95	225.24
769.27	225.12
769.60	225.05
769.92	224.89
770.25	224.71
770.57	224.57
770.90	224.43
771.22	224.28
771.55	224.12
771.87	224.07
772.20	223.96
772.52	224.00
772.85	224.15
773.17	224.03
773.50	223.96
773.82	223.85
774.15	223.63
774.47	223.44
774.80	223.34
775.12	223.25
775.45	223.17
775.77	223.12
776.09	223.06
776.42	222.96
776.74	222.92
777.07	222.84
777.39	222.76
777.72	222.68
778.04	222.66
778.36	222.61
778.69	222.51
779.01	222.45
779.33	222.19
779.66	221.84
779.98	221.80
780.31	221.68
780.63	221.67
780.95	221.64
781.28	221.54
781.60	221.47
781.92	221.41
782.25	221.35
782.57	221.27
782.89	221.16
783.22	221.09
783.54	221.00
783.86	220.92
784.19	220.84
784.51	220.83
784.83	220.72
785.16	220.65
785.48	220.58
785.80	220.52
786.12	220.48
786.45	220.48
786.77	220.41
787.09	220.34
787.42	220.21
787.74	220.15
788.06	220.11
788.38	220.01
788.71	219.93
789.03	219.86
789.35	219.85
789.67	219.78
789.99	219.76
790.32	219.68
790.64	219.68
790.96	219.83
791.28	219.72
791.61	219.69
791.93	219.65
792.25	219.60
792.57	219.72
792.89	219.64
793.21	219.56
793.54	219.50
793.86	219.45
794.18	219.40
794.50	219.29
794.82	219.23
795.14	219.25
795.47	219.24
795.79	219.25
796.11	219.15
796.43	219.14
796.75	219.08
797.07	219.05
797.39	219.00
797.71	218.76
798.04	218.71
798.36	218.64
798.68	218.60
799.00	218.60
799.32	218.46
799.64	218.47
799.96	218.42
800.28	218.40
800.60	218.36
800.92	218.34
801.24	218.31
801.56	218.29
801.89	218.23
802.21	218.21
802.53	218.14
802.85	218.14
803.17	218.19
803.49	218.13
803.81	218.07
804.13	218.04
804.45	218.02
804.77	218.05
805.09	218.02
805.41	217.96
805.73	217.87
806.05	217.78
806.37	217.74
806.69	217.73
807.01	217.69
807.33	217.68
807.65	217.61
807.97	217.69
808.28	217.63
808.60	217.59
808.92	217.51
809.24	217.64
809.56	217.59
809.88	217.51
810.20	217.47
810.52	217.50
810.84	217.41
811.16	217.36
811.48	217.31
811.80	217.36
812.12	217.34
812.43	217.39
812.75	217.39
813.07	217.33
813.39	217.30
813.71	217.26
814.03	217.21
814.35	217.18
814.67	217.07
814.98	217.06
815.30	217.05
815.62	217.05
815.94	216.82
816.26	216.79
816.58	216.73
816.89	216.74
817.21	216.68
817.53	216.68
817.85	216.68
818.17	216.64
818.48	216.57
818.80	216.54
819.12	216.46
819.44	216.39
819.76	216.37
820.07	216.38
820.39	216.33
820.71	216.33
821.03	216.29
821.34	216.24
821.66	216.27
821.98	216.27
822.30	216.19
822.61	216.33
822.93	216.33
823.25	216.31
823.57	216.29
823.88	216.32
824.20	216.29
824.52	216.31
824.83	216.31
825.15	216.27
825.47	216.30
825.79	216.32
826.10	216.29
826.42	216.26
826.74	216.25
827.05	216.28
827.37	216.27
827.69	216.28
828.00	216.31
828.32	216.26
828.64	216.21
828.95	216.35
829.27	216.27
829.58	216.25
829.90	216.27
830.22	216.26
830.53	216.19
830.85	216.18
831.17	216.11
831.48	216.06
831.80	216.08
832.11	216.06
832.43	216.01
832.75	216.00
833.06	216.08
833.38	216.01
833.69	215.97
834.01	215.98
834.32	215.97
834.64	215.92
834.96	215.94
835.27	215.94
835.59	215.86
835.90	215.80
836.22	215.76
836.53	215.70
836.85	215.71
837.16	215.89
837.48	215.86
837.79	215.95
838.11	215.97
838.42	215.95
838.74	215.93
839.05	215.91
839.37	215.90
839.68	215.78
840.00	215.75
840.31	215.78
840.63	215.76
840.94	215.71
841.26	215.67
841.57	215.62
841.88	215.63
842.20	215.58
842.51	215.58
842.83	215.57
843.14	215.77
843.46	215.76
843.77	215.66
844.08	215.68
844.40	215.57
844.71	215.55
845.03	215.54
845.34	215.53
845.65	215.53
845.97	215.52
846.28	215.55
846.60	215.60
846.91	215.54
847.22	215.54
847.54	215.56
847.85	215.60
848.16	215.58
848.48	215.52
848.79	215.60
849.10	215.61
849.42	215.62
849.73	215.39
850.04	215.37
850.36	215.30
850.67	215.35
850.98	215.35
851.30	215.35
851.61	215.30
851.92	215.27
852.23	215.31
852.55	215.31
852.86	215.32
853.17	215.29
853.49	215.36
853.80	215.40
854.11	215.42
854.42	215.39
854.74	215.37
855.05	215.40
855.36	215.29
855.67	215.29
855.99	215.28
856.30	215.53
856.61	215.52
856.92	215.53
857.23	215.47
857.55	215.46
857.86	215.44
858.17	215.50
858.48	215.50
858.79	215.47
859.11	215.49
859.42	215.45
859.73	215.44
860.04	215.44
860.35	215.38
860.66	215.31
860.98	215.33
861.29	215.35
861.60	215.32
861.91	215.36
862.22	215.34
862.53	215.29
862.84	215.04
863.16	215.09
863.47	215.06
863.78	215.04
864.09	215.05
864.40	215.04
864.71	215.03
865.02	215.01
865.33	214.99
865.64	214.97
865.95	214.98
866.27	215.10
866.58	215.03
866.89	215.03
867.20	215.07
867.51	215.03
867.82	215.03
868.13	215.11
868.44	215.06
868.75	215.11
869.06	215.14
869.37	215.16
869.68	215.09
869.99	215.10
870.30	215.14
870.61	215.16
870.92	215.17
871.23	215.20
871.54	215.25
871.85	215.27
872.16	215.27
872.47	215.25
872.78	215.15
873.09	215.17
873.40	215.16
873.71	215.14
874.02	215.17
874.33	215.15
874.64	215.12
874.95	215.20
875.26	215.17
875.56	215.18
875.87	215.16
876.18	215.17
876.49	215.37
876.80	215.32
877.11	215.28
877.42	215.27
877.73	215.25
878.04	215.21
878.35	215.23
878.66	215.20
878.96	215.23
879.27	215.20
879.58	215.21
879.89	215.20
880.20	215.27
880.51	215.25
880.82	215.23
881.12	215.24
881.43	215.18
881.74	215.11
882.05	215.10
882.36	215.12
882.67	215.11
882.97	214.89
883.28	214.86
883.59	214.88
883.90	214.89
884.21	214.88
884.51	214.88
884.82	214.84
885.13	214.87
885.44	214.82
885.74	214.82
886.05	214.82
886.36	214.84
886.67	214.75
886.98	214.85
887.28	214.87
887.59	214.82
887.90	214.82
888.20	214.81
888.51	214.83
888.82	214.79
889.13	214.82
889.43	214.99
889.74	214.98
890.05	214.98
890.35	214.99
890.66	214.97
890.97	214.95
891.28	214.93
891.58	214.94
891.89	214.97
892.20	214.94
892.50	214.89
892.81	214.86
893.12	214.88
893.42	214.78
893.73	214.77
894.04	214.78
894.34	214.78
894.65	214.83
894.95	214.81
895.26	214.83
895.57	214.93
895.87	214.72
896.18	214.78
896.48	214.77
896.79	214.74
897.10	214.76
897.40	214.79
897.71	214.81
898.01	214.80
898.32	214.82
898.63	214.82
898.93	214.82
899.24	214.86
899.54	214.85
899.85	214.85
900.15	214.88
900.46	214.91
900.76	214.95
901.07	214.94
901.38	214.92
901.68	214.97
901.99	214.85
902.29	214.91
902.60	214.90
902.90	214.90
903.21	214.91
903.51	214.88
903.82	214.89
904.12	214.91
904.43	214.92
904.73	214.88
905.03	214.90
905.34	215.10
905.64	215.05
905.95	215.05
906.25	215.03
906.56	214.98
906.86	214.91
907.17	214.89
907.47	214.89
907.77	214.88
908.08	214.82
908.38	214.80
908.69	214.78
908.99	214.79
909.30	214.79
909.60	214.79
909.90	214.82
910.21	214.79
910.51	214.74
910.81	214.75
911.12	214.75
911.42	214.74
911.73	214.54
912.03	214.56
912.33	214.59
912.64	214.62
912.94	214.62
913.24	214.64
913.55	214.60
913.85	214.58
914.15	214.64
914.46	214.67
914.76	214.65
915.06	214.64
915.37	214.60
915.67	214.59
915.97	214.59
916.27	214.55
916.58	214.55
916.88	214.56
917.18	214.56
917.49	214.70
917.79	214.73
918.09	214.74
918.39	214.82
918.70	214.79
919.00	214.79
919.30	214.87
919.60	214.85
919.91	214.81
920.21	214.81
920.51	214.74
920.81	214.71
921.12	214.78
921.42	214.80
921.72	214.81
922.02	214.83
922.32	214.84
922.63	214.84
922.93	214.94
923.23	214.96
923.53	214.90
923.83	214.75
924.13	214.77
924.44	214.77
924.74	214.82
925.04	214.85
925.34	214.88
925.64	214.80
925.94	214.82
926.24	214.95
926.55	214.93
926.85	215.02
927.15	215.04
927.45	215.01
927.75	214.99
928.05	215.00
928.35	214.96
928.65	214.99
928.95	215.00
929.26	214.89
929.56	214.91
929.86	214.95
930.16	214.96
930.46	214.90
930.76	214.91
931.06	214.79
931.36	214.74
931.66	214.74
931.96	214.75
932.26	214.73
932.56	214.67
932.86	214.71
933.16	214.65
933.46	214.63
933.76	214.61
934.06	214.65
934.36	214.72
934.66	214.71
934.96	214.69
935.26	214.71
935.56	214.74
935.86	214.68
936.16	214.66
936.46	214.66
936.76	214.69
937.06	214.67
937.36	214.72
937.66	214.73
937.96	214.70
938.26	214.67
938.56	214.67
938.86	214.66
939.16	214.65
939.46	214.66
939.76	214.68
940.06	214.67
940.35	214.63
940.65	214.54
940.95	214.56
941.25	214.51
941.55	214.46
941.85	214.44
942.15	214.50
942.45	214.54
942.75	214.54
943.04	214.52
943.34	214.56
943.64	214.48
943.94	214.46
944.24	214.49
944.54	214.50
944.84	214.51
945.13	214.49
945.43	214.48
945.73	214.49
946.03	214.46
946.33	214.43
946.62	214.41
946.92	214.40
947.22	214.42
947.52	214.45
947.82	214.53
948.11	214.52
948.41	214.45
948.71	214.40
949.01	214.40
949.31	214.38
949.60	214.37
949.90	214.43
950.20	214.40
950.50	214.39
950.79	214.36
951.09	214.37
951.39	214.36
951.69	214.34
951.98	214.35
952.28	214.37
952.58	214.37
952.87	214.38
953.17	214.42
953.47	214.37
953.76	214.39
954.06	214.33
954.36	214.32
954.66	214.35
954.95	214.38
955.25	214.37
955.55	214.35
955.84	214.30
956.14	214.30
956.44	214.32
956.73	214.28
957.03	214.31
957.32	214.31
957.62	214.31
957.92	214.36
958.21	214.35
958.51	214.58
958.81	214.61
959.10	214.62
959.40	214.67
959.69	214.72
959.99	214.72
960.29	214.73
960.58	214.71
960.88	214.78
961.17	214.78
961.47	214.84
961.76	214.87
962.06	214.91
962.36	214.88
962.65	214.88
962.95	214.91
963.24	214.87
963.54	214.90
963.83	214.90
964.13	214.88
964.42	214.83
964.72	214.66
965.01	214.66
965.31	214.65
965.60	214.56
965.90	214.69
966.19	214.61
966.49	214.63
966.78	214.62
967.08	214.60
967.37	214.60
967.67	214.54
967.96	214.56
968.26	214.55
968.55	214.59
968.85	214.60
969.14	214.57
969.43	214.57
969.73	214.55
970.02	214.57
970.32	214.54
970.61	214.56
970.91	214.50
971.20	214.46
971.49	214.46
971.79	214.51
972.08	214.39
972.38	214.42
972.67	214.43
972.96	214.47
973.26	214.40
973.55	214.44
973.85	214.45
974.14	214.44
974.43	214.48
974.73	214.44
975.02	214.42
975.31	214.45
975.61	214.45
975.90	214.43
976.19	214.39
976.49	214.43
976.78	214.42
977.07	214.42
977.37	214.45
977.66	214.46
977.95	214.43
978.24	214.40
978.54	214.42
978.83	214.40
979.12	214.37
979.42	214.38
979.71	214.39
980.00	214.37
980.29	214.40
980.59	214.34
980.88	214.37
981.17	214.37
981.46	214.37
981.76	214.38
982.05	214.47
982.34	214.49
982.63	214.48
982.93	214.49
983.22	214.53
983.51	214.55
983.80	214.59
984.09	214.63
984.39	214.64
984.68	214.63
984.97	214.64
985.26	214.65
985.55	214.68
985.85	214.62
986.14	214.63
986.43	214.64
986.72	214.66
987.01	214.62
987.30	214.62
987.59	214.58
987.89	214.57
988.18	214.51
988.47	214.49
988.76	214.50
989.05	214.47
989.34	214.45
989.63	214.49
989.92	214.41
990.22	214.37
990.51	214.36
990.80	214.33
991.09	214.36
991.38	214.36
991.67	214.34
991.96	214.33
992.25	214.35
992.54	214.30
992.83	214.28
993.12	214.29
993.41	214.33
993.70	214.41
993.99	214.45
994.28	214.46
994.58	214.51
994.87	214.46
995.16	214.48
995.45	214.47
995.74	214.40
996.03	214.44
996.32	214.50
996.61	214.54
996.90	214.54
997.19	214.51
997.48	214.54
997.77	214.52
998.06	214.52
998.34	214.48
998.63	214.50
998.92	214.48
999.21	214.47
999.50	214.45
999.79	214.41
1000.08	214.40
1000.37	214.40
1000.66	214.36
1000.95	214.46
1001.24	214.46
1001.53	214.50
1001.82	214.49
1002.11	214.44
1002.40	214.42
1002.68	214.45
1002.97	214.58
1003.26	214.57
1003.55	214.55
1003.84	214.58
1004.13	214.67
1004.42	214.67
1004.71	214.65
1004.99	214.68
1005.28	214.75
1005.57	214.77
1005.86	214.75
1006.15	214.73
1006.44	214.69
1006.72	214.70
1007.01	214.63
1007.30	214.61
1007.59	214.57
1007.88	214.56
1008.17	214.60
1008.45	214.58
1008.74	214.48
1009.03	214.43
1009.32	214.44
1009.60	214.44
1009.89	214.42
1010.18	214.33
1010.47	214.32
1010.76	214.35
1011.04	214.31
1011.33	214.47
1011.62	214.45
1011.91	214.49
1012.19	214.52
1012.48	214.54
1012.77	214.56
1013.05	214.68
1013.34	214.68
1013.63	214.70
1013.92	214.74
1014.20	214.74
1014.49	214.73
1014.78	214.80
1015.06	214.73
1015.35	214.71
1015.64	214.75
1015.92	214.78
1016.21	214.78
1016.50	214.82
1016.78	214.85
1017.07	214.87
1017.36	214.68
1017.64	214.68
1017.93	214.66
1018.22	214.63
1018.50	214.60
1018.79	214.57
1019.08	214.46
1019.36	214.48
1019.65	214.44
1019.93	214.47
1020.22	214.48
1020.51	214.59
1020.79	214.56
1021.08	214.13
1021.36	213.31
1021.65	214.42
1021.94	214.25
1022.22	214.24
1022.51	214.12
1022.79	215.07
1023.08	214.89
1023.36	216.96
1023.65	214.27
>>>>>End Processed Spectral Data<<<<<
