SpectraSuite Data File
++++++++++++++++++++++++++++++++++++
Date: Tue Jan 29 16:57:35 EST 2013
User: group
Dark Spectrum Present: No
Reference Spectrum Present: No
Number of Sampled Component Spectra: 1
Spectrometers: USB2E7196
Integration Time (usec): 65000 (USB2E7196)
Spectra Averaged: 100 (USB2E7196)
Boxcar Smoothing: 10 (USB2E7196)
Correct for Electrical Dark: No (USB2E7196)
Strobe/Lamp Enabled: No (USB2E7196)
Correct for Detector Non-linearity: No (USB2E7196)
Correct for Stray Light: No (USB2E7196)
Number of Pixels in Processed Spectrum: 2048
>>>>>Begin Processed Spectral Data<<<<<
339.09	0.00
339.48	201.96
339.86	203.00
340.24	204.17
340.63	206.03
341.01	210.67
341.39	208.30
341.78	210.32
342.16	210.79
342.54	212.07
342.93	200.78
343.31	210.92
343.69	211.47
344.07	211.95
344.46	212.42
344.84	212.79
345.22	212.97
345.60	213.26
345.99	213.45
346.37	213.59
346.75	213.67
347.13	213.71
347.52	213.81
347.90	213.95
348.28	214.00
348.66	214.11
349.05	214.08
349.43	214.13
349.81	214.18
350.19	214.23
350.57	214.29
350.96	214.39
351.34	214.48
351.72	214.55
352.10	214.66
352.48	214.69
352.87	214.75
353.25	214.80
353.63	214.83
354.01	214.89
354.39	215.01
354.77	215.09
355.15	215.23
355.54	215.25
355.92	215.24
356.30	215.29
356.68	215.47
357.06	215.56
357.44	215.59
357.82	215.66
358.20	215.74
358.58	215.79
358.97	215.84
359.35	215.94
359.73	216.06
360.11	216.10
360.49	216.16
360.87	216.20
361.25	216.29
361.63	216.41
362.01	216.47
362.39	216.46
362.77	216.53
363.15	216.57
363.53	216.60
363.91	216.64
364.29	216.65
364.67	216.46
365.05	216.44
365.43	216.48
365.81	216.53
366.19	216.62
366.57	216.70
366.95	216.73
367.33	216.69
367.71	216.66
368.09	216.67
368.47	216.68
368.85	216.67
369.23	216.69
369.61	216.59
369.99	216.64
370.37	216.64
370.75	216.72
371.13	216.64
371.51	216.61
371.89	216.61
372.27	216.63
372.65	216.64
373.03	216.63
373.41	216.58
373.78	216.53
374.16	216.44
374.54	216.37
374.92	216.32
375.30	216.29
375.68	216.22
376.06	216.19
376.44	216.13
376.82	216.11
377.19	216.07
377.57	216.01
377.95	215.88
378.33	215.82
378.71	215.62
379.09	215.61
379.47	215.59
379.84	215.51
380.22	215.44
380.60	215.39
380.98	215.34
381.36	215.35
381.73	215.28
382.11	215.26
382.49	215.21
382.87	215.13
383.25	215.09
383.62	215.32
384.00	215.22
384.38	215.20
384.76	215.20
385.13	215.24
385.51	215.25
385.89	215.20
386.27	215.17
386.64	215.21
387.02	215.16
387.40	215.10
387.78	215.09
388.15	215.05
388.53	215.04
388.91	215.00
389.29	214.94
389.66	214.96
390.04	214.89
390.42	214.91
390.79	214.92
391.17	214.89
391.55	214.61
391.92	214.65
392.30	214.68
392.68	214.63
393.05	214.60
393.43	214.58
393.81	214.60
394.18	214.59
394.56	214.59
394.94	214.64
395.31	214.63
395.69	214.73
396.06	214.76
396.44	214.74
396.82	214.74
397.19	214.88
397.57	214.87
397.95	214.95
398.32	214.91
398.70	214.94
399.07	215.04
399.45	215.08
399.82	215.08
400.20	215.10
400.58	215.15
400.95	215.11
401.33	215.21
401.70	215.42
402.08	215.49
402.45	215.56
402.83	215.69
403.20	215.82
403.58	215.89
403.95	216.08
404.33	216.25
404.71	216.39
405.08	216.65
405.46	216.85
405.83	217.01
406.21	217.23
406.58	217.46
406.96	217.66
407.33	217.93
407.70	218.28
408.08	218.73
408.45	219.12
408.83	219.52
409.20	219.85
409.58	220.14
409.95	220.60
410.33	221.08
410.70	221.49
411.08	222.06
411.45	222.62
411.82	223.17
412.20	223.87
412.57	224.75
412.95	225.33
413.32	226.16
413.69	227.02
414.07	227.95
414.44	228.93
414.82	229.96
415.19	231.12
415.56	232.30
415.94	233.51
416.31	234.93
416.68	236.32
417.06	237.99
417.43	239.51
417.81	241.33
418.18	243.11
418.55	245.07
418.93	247.15
419.30	249.25
419.67	251.51
420.04	253.79
420.42	256.15
420.79	258.96
421.16	261.76
421.54	264.70
421.91	267.69
422.28	270.83
422.66	274.17
423.03	277.47
423.40	280.85
423.77	284.42
424.15	288.07
424.52	291.93
424.89	296.10
425.26	300.24
425.64	304.11
426.01	308.44
426.38	313.01
426.75	317.57
427.13	322.34
427.50	327.34
427.87	332.60
428.24	337.86
428.61	342.85
428.99	348.36
429.36	354.42
429.73	360.33
430.10	366.20
430.47	372.28
430.85	378.66
431.22	385.44
431.59	392.61
431.96	399.49
432.33	407.11
432.70	414.47
433.08	423.06
433.45	431.16
433.82	439.23
434.19	448.09
434.56	456.83
434.93	465.25
435.30	473.58
435.68	482.71
436.05	491.81
436.42	500.86
436.79	509.11
437.16	517.91
437.53	527.27
437.90	536.52
438.27	545.56
438.64	554.81
439.01	563.34
439.38	570.90
439.75	578.34
440.13	586.78
440.50	594.76
440.87	601.26
441.24	607.92
441.61	615.34
441.98	620.79
442.35	627.12
442.72	633.44
443.09	639.52
443.46	643.31
443.83	645.78
444.20	647.95
444.57	651.09
444.94	652.56
445.31	654.07
445.68	655.51
446.05	656.16
446.42	655.42
446.79	654.44
447.16	653.48
447.53	652.64
447.90	649.24
448.27	645.98
448.64	641.29
449.01	638.03
449.37	632.08
449.74	626.40
450.11	619.50
450.48	612.07
450.85	604.66
451.22	598.21
451.59	592.08
451.96	586.21
452.33	578.34
452.70	571.21
453.07	562.62
453.43	553.91
453.80	545.57
454.17	537.52
454.54	529.98
454.91	521.68
455.28	513.66
455.65	506.24
456.02	498.62
456.38	492.18
456.75	484.20
457.12	477.57
457.49	470.95
457.86	464.69
458.23	459.29
458.59	453.25
458.96	447.14
459.33	441.75
459.70	436.32
460.07	431.99
460.43	427.03
460.80	422.42
461.17	418.42
461.54	414.13
461.91	410.06
462.27	405.91
462.64	402.52
463.01	398.70
463.38	394.98
463.74	391.27
464.11	388.01
464.48	385.18
464.85	382.07
465.21	379.67
465.58	377.08
465.95	373.90
466.32	371.22
466.68	368.65
467.05	366.06
467.42	363.49
467.78	360.83
468.15	358.29
468.52	356.39
468.88	353.88
469.25	351.63
469.62	349.81
469.98	347.83
470.35	345.96
470.72	344.22
471.08	342.39
471.45	340.89
471.82	339.37
472.18	337.65
472.55	336.40
472.92	334.97
473.28	333.69
473.65	332.52
474.02	331.41
474.38	330.44
474.75	329.65
475.11	328.83
475.48	328.20
475.85	327.67
476.21	327.14
476.58	326.75
476.94	326.50
477.31	326.17
477.67	325.92
478.04	325.73
478.41	325.65
478.77	325.78
479.14	325.68
479.50	325.77
479.87	326.06
480.23	326.37
480.60	326.63
480.96	326.88
481.33	327.49
481.69	328.04
482.06	328.57
482.42	329.05
482.79	329.64
483.15	330.42
483.52	331.38
483.88	332.26
484.25	333.17
484.61	334.18
484.98	335.25
485.34	336.55
485.71	337.92
486.07	339.40
486.44	340.77
486.80	342.40
487.17	344.06
487.53	345.89
487.90	347.78
488.26	349.77
488.62	351.94
488.99	353.95
489.35	356.13
489.72	358.51
490.08	361.01
490.44	363.56
490.81	366.25
491.17	368.95
491.54	371.86
491.90	374.89
492.26	378.14
492.63	381.48
492.99	384.93
493.36	388.59
493.72	392.44
494.08	396.41
494.45	400.52
494.81	404.94
495.17	409.38
495.54	414.03
495.90	418.88
496.26	423.76
496.63	428.98
496.99	434.35
497.35	439.94
497.72	445.73
498.08	451.67
498.44	457.77
498.80	464.20
499.17	470.69
499.53	477.40
499.89	484.24
500.26	491.25
500.62	498.26
500.98	505.64
501.34	513.08
501.71	520.83
502.07	528.68
502.43	536.66
502.79	544.78
503.16	553.15
503.52	561.67
503.88	570.36
504.24	579.25
504.60	588.29
504.97	597.46
505.33	606.72
505.69	616.55
506.05	626.36
506.41	636.16
506.78	646.26
507.14	656.42
507.50	666.87
507.86	677.49
508.22	688.24
508.59	698.89
508.95	709.89
509.31	721.00
509.67	732.45
510.03	743.75
510.39	755.34
510.75	767.11
511.12	779.00
511.48	790.94
511.84	803.16
512.20	815.35
512.56	827.87
512.92	840.58
513.28	853.09
513.64	865.82
514.00	878.58
514.37	891.44
514.73	904.61
515.09	917.61
515.45	930.51
515.81	943.55
516.17	956.89
516.53	970.14
516.89	983.26
517.25	996.47
517.61	1009.95
517.97	1023.43
518.33	1036.61
518.69	1050.15
519.05	1063.99
519.41	1077.65
519.77	1091.57
520.13	1104.94
520.49	1118.21
520.85	1131.72
521.21	1144.93
521.57	1158.61
521.93	1171.62
522.29	1185.27
522.65	1198.87
523.01	1212.59
523.37	1225.76
523.73	1239.08
524.09	1252.26
524.45	1265.83
524.81	1279.35
525.17	1292.69
525.53	1305.84
525.89	1319.20
526.25	1332.32
526.61	1345.15
526.97	1358.26
527.33	1371.27
527.68	1384.74
528.04	1398.16
528.40	1411.14
528.76	1424.64
529.12	1437.63
529.48	1451.08
529.84	1463.33
530.20	1476.08
530.56	1488.59
530.91	1502.05
531.27	1514.99
531.63	1527.66
531.99	1540.33
532.35	1552.39
532.71	1564.88
533.07	1577.88
533.42	1590.11
533.78	1602.30
534.14	1614.34
534.50	1625.66
534.86	1637.33
535.21	1648.25
535.57	1659.85
535.93	1671.27
536.29	1682.35
536.65	1693.88
537.00	1705.04
537.36	1716.49
537.72	1727.56
538.08	1739.01
538.44	1749.93
538.79	1761.06
539.15	1772.17
539.51	1783.17
539.87	1794.66
540.22	1805.54
540.58	1816.55
540.94	1827.55
541.29	1837.93
541.65	1847.76
542.01	1858.27
542.37	1868.39
542.72	1878.74
543.08	1888.39
543.44	1898.84
543.79	1908.21
544.15	1917.64
544.51	1927.47
544.87	1937.37
545.22	1946.72
545.58	1955.64
545.94	1964.55
546.29	1973.02
546.65	1981.42
547.01	1989.52
547.36	1997.22
547.72	2004.91
548.07	2012.56
548.43	2020.25
548.79	2028.08
549.14	2036.37
549.50	2044.97
549.86	2052.85
550.21	2060.17
550.57	2068.14
550.92	2075.06
551.28	2082.58
551.64	2089.75
551.99	2097.27
552.35	2104.47
552.70	2111.27
553.06	2118.01
553.41	2124.32
553.77	2130.85
554.13	2137.12
554.48	2144.20
554.84	2151.43
555.19	2158.07
555.55	2164.38
555.90	2170.72
556.26	2177.63
556.61	2183.83
556.97	2188.47
557.32	2194.19
557.68	2200.64
558.03	2206.35
558.39	2211.67
558.74	2217.64
559.10	2223.12
559.45	2228.64
559.81	2234.15
560.16	2239.66
560.52	2245.49
560.87	2251.82
561.23	2257.55
561.58	2264.13
561.94	2269.34
562.29	2273.75
562.64	2279.69
563.00	2285.38
563.35	2290.80
563.71	2296.18
564.06	2301.71
564.42	2307.69
564.77	2312.66
565.12	2317.84
565.48	2322.77
565.83	2328.09
566.19	2333.18
566.54	2338.41
566.89	2342.92
567.25	2347.40
567.60	2352.84
567.96	2357.63
568.31	2362.01
568.66	2366.42
569.02	2370.28
569.37	2373.90
569.72	2378.33
570.08	2381.76
570.43	2384.61
570.78	2387.71
571.14	2390.01
571.49	2392.93
571.84	2396.23
572.20	2399.07
572.55	2401.78
572.90	2404.05
573.26	2406.76
573.61	2409.36
573.96	2411.54
574.31	2413.45
574.67	2415.28
575.02	2415.92
575.37	2417.44
575.72	2417.81
576.08	2419.02
576.43	2419.05
576.78	2419.28
577.13	2420.46
577.49	2421.56
577.84	2422.33
578.19	2423.29
578.54	2423.92
578.90	2424.30
579.25	2424.04
579.60	2423.64
579.95	2422.71
580.30	2422.31
580.66	2421.60
581.01	2419.70
581.36	2417.11
581.71	2415.46
582.06	2413.99
582.42	2412.97
582.77	2410.43
583.12	2408.83
583.47	2407.14
583.82	2406.26
584.17	2404.63
584.53	2402.48
584.88	2400.10
585.23	2398.23
585.58	2395.82
585.93	2393.69
586.28	2391.35
586.63	2388.65
586.98	2386.27
587.34	2384.06
587.69	2381.32
588.04	2378.81
588.39	2377.08
588.74	2374.48
589.09	2371.60
589.44	2368.19
589.79	2365.47
590.14	2363.19
590.49	2360.11
590.84	2356.19
591.19	2352.70
591.54	2349.54
591.89	2345.35
592.25	2341.83
592.60	2337.53
592.95	2333.28
593.30	2328.97
593.65	2324.52
594.00	2320.05
594.35	2316.98
594.70	2312.42
595.05	2308.08
595.40	2302.52
595.75	2296.68
596.10	2292.97
596.45	2288.04
596.80	2283.30
597.15	2278.22
597.50	2272.57
597.85	2267.63
598.19	2262.28
598.54	2256.65
598.89	2251.12
599.24	2246.42
599.59	2240.40
599.94	2234.35
600.29	2228.24
600.64	2222.14
600.99	2215.15
601.34	2209.45
601.69	2202.58
602.04	2196.06
602.39	2189.26
602.74	2183.18
603.08	2177.58
603.43	2170.98
603.78	2164.01
604.13	2157.02
604.48	2149.54
604.83	2143.27
605.18	2137.23
605.53	2130.48
605.87	2123.51
606.22	2116.82
606.57	2108.92
606.92	2100.88
607.27	2093.86
607.62	2087.42
607.96	2080.43
608.31	2074.27
608.66	2066.71
609.01	2058.90
609.36	2051.73
609.70	2044.06
610.05	2036.31
610.40	2028.13
610.75	2019.72
611.10	2011.99
611.44	2003.08
611.79	1994.62
612.14	1984.74
612.49	1973.82
612.83	1964.36
613.18	1955.05
613.53	1945.77
613.88	1936.17
614.22	1927.66
614.57	1917.88
614.92	1907.18
615.27	1896.95
615.61	1886.64
615.96	1877.02
616.31	1867.61
616.65	1858.16
617.00	1848.79
617.35	1839.27
617.70	1829.60
618.04	1819.76
618.39	1809.93
618.74	1800.48
619.08	1790.74
619.43	1781.96
619.78	1773.80
620.12	1765.32
620.47	1755.97
620.82	1745.81
621.16	1736.29
621.51	1726.35
621.85	1716.76
622.20	1706.69
622.55	1696.41
622.89	1686.54
623.24	1677.01
623.59	1667.35
623.93	1657.54
624.28	1647.72
624.62	1637.74
624.97	1627.62
625.32	1617.88
625.66	1608.91
626.01	1600.22
626.35	1591.09
626.70	1581.34
627.04	1571.54
627.39	1561.47
627.73	1552.22
628.08	1543.39
628.43	1533.95
628.77	1524.99
629.12	1516.22
629.46	1508.51
629.81	1500.34
630.15	1491.23
630.50	1481.39
630.84	1470.89
631.19	1461.04
631.53	1451.92
631.88	1441.85
632.22	1432.03
632.57	1422.89
632.91	1413.06
633.26	1403.32
633.60	1393.91
633.95	1384.72
634.29	1375.31
634.64	1366.14
634.98	1356.32
635.32	1347.27
635.67	1339.06
636.01	1329.89
636.36	1320.25
636.70	1310.80
637.05	1301.52
637.39	1292.73
637.73	1284.43
638.08	1277.02
638.42	1269.11
638.77	1260.41
639.11	1252.38
639.45	1244.70
639.80	1236.32
640.14	1227.70
640.49	1218.94
640.83	1210.24
641.17	1202.12
641.52	1194.16
641.86	1185.75
642.20	1177.97
642.55	1169.29
642.89	1160.24
643.23	1151.70
643.58	1143.77
643.92	1134.93
644.26	1126.35
644.61	1117.99
644.95	1109.16
645.29	1100.18
645.64	1090.96
645.98	1082.43
646.32	1074.53
646.66	1066.12
647.01	1057.87
647.35	1049.81
647.69	1041.64
648.04	1033.45
648.38	1024.70
648.72	1015.97
649.06	1007.63
649.41	999.60
649.75	991.87
650.09	984.24
650.43	976.24
650.78	967.96
651.12	960.25
651.46	952.91
651.80	945.74
652.14	938.53
652.49	931.06
652.83	923.89
653.17	916.37
653.51	908.80
653.85	901.65
654.20	894.58
654.54	887.27
654.88	880.11
655.22	872.97
655.56	866.06
655.90	859.32
656.25	852.73
656.59	845.91
656.93	838.94
657.27	831.89
657.61	825.07
657.95	819.00
658.29	813.08
658.64	807.02
658.98	800.55
659.32	794.14
659.66	787.96
660.00	781.74
660.34	775.69
660.68	769.70
661.02	763.33
661.36	757.23
661.70	751.40
662.05	745.83
662.39	740.29
662.73	734.93
663.07	729.56
663.41	724.01
663.75	718.23
664.09	712.56
664.43	707.08
664.77	701.70
665.11	695.97
665.45	690.17
665.79	684.31
666.13	678.68
666.47	673.21
666.81	667.82
667.15	662.42
667.49	657.25
667.83	651.96
668.17	646.75
668.51	641.74
668.85	636.81
669.19	631.93
669.53	626.93
669.87	621.81
670.21	617.03
670.55	612.27
670.89	607.88
671.23	603.50
671.57	599.15
671.91	594.88
672.25	590.67
672.58	586.59
672.92	582.55
673.26	578.63
673.60	574.70
673.94	570.82
674.28	567.19
674.62	563.53
674.96	559.81
675.30	556.29
675.64	552.58
675.97	548.99
676.31	545.39
676.65	541.85
676.99	538.50
677.33	534.71
677.67	531.11
678.01	527.30
678.34	523.73
678.68	520.25
679.02	516.68
679.36	513.00
679.70	509.35
680.04	505.83
680.37	502.29
680.71	498.95
681.05	495.74
681.39	492.44
681.73	489.16
682.06	486.11
682.40	482.99
682.74	479.85
683.08	476.64
683.42	473.42
683.75	470.30
684.09	467.15
684.43	464.34
684.77	461.41
685.10	458.55
685.44	455.59
685.78	452.67
686.12	449.83
686.45	447.03
686.79	444.32
687.13	441.72
687.46	439.18
687.80	436.50
688.14	433.66
688.48	431.00
688.81	428.33
689.15	425.71
689.49	423.13
689.82	420.52
690.16	417.93
690.50	415.46
690.83	413.01
691.17	410.45
691.51	407.90
691.84	405.55
692.18	403.25
692.52	401.06
692.85	398.84
693.19	396.67
693.52	394.54
693.86	392.32
694.20	390.13
694.53	387.89
694.87	385.64
695.21	383.49
695.54	381.28
695.88	379.10
696.21	376.92
696.55	374.75
696.88	372.68
697.22	370.66
697.56	368.71
697.89	366.80
698.23	365.05
698.56	363.28
698.90	361.52
699.23	359.63
699.57	357.73
699.90	355.88
700.24	354.04
700.58	352.25
700.91	350.56
701.25	348.94
701.58	347.33
701.92	345.78
702.25	344.11
702.59	342.52
702.92	340.97
703.26	339.38
703.59	337.89
703.93	336.62
704.26	335.14
704.60	333.64
704.93	332.13
705.26	330.59
705.60	329.11
705.93	327.54
706.27	326.20
706.60	324.92
706.94	323.66
707.27	322.27
707.61	320.89
707.94	319.49
708.27	317.96
708.61	316.50
708.94	315.10
709.28	313.83
709.61	312.53
709.94	311.29
710.28	310.07
710.61	308.87
710.95	307.45
711.28	306.39
711.61	305.22
711.95	304.10
712.28	302.93
712.61	301.72
712.95	300.67
713.28	299.58
713.61	298.41
713.95	297.24
714.28	296.20
714.61	295.14
714.95	294.14
715.28	293.10
715.61	292.06
715.95	291.07
716.28	290.09
716.61	289.12
716.95	288.11
717.28	287.15
717.61	286.16
717.94	285.22
718.28	284.13
718.61	283.25
718.94	282.33
719.27	281.46
719.61	280.61
719.94	279.74
720.27	278.76
720.60	277.89
720.94	277.04
721.27	276.25
721.60	275.54
721.93	274.77
722.27	274.11
722.60	273.47
722.93	272.72
723.26	272.04
723.59	271.35
723.93	270.71
724.26	270.02
724.59	269.36
724.92	268.79
725.25	268.30
725.59	267.68
725.92	267.14
726.25	266.53
726.58	265.94
726.91	265.33
727.24	264.83
727.57	264.26
727.91	263.68
728.24	263.14
728.57	262.55
728.90	262.00
729.23	261.42
729.56	260.95
729.89	260.41
730.22	259.82
730.55	259.26
730.89	258.69
731.22	258.17
731.55	257.69
731.88	257.09
732.21	256.52
732.54	256.00
732.87	255.47
733.20	255.03
733.53	254.53
733.86	254.09
734.19	253.54
734.52	253.08
734.85	252.77
735.18	252.30
735.51	251.92
735.84	251.51
736.17	251.09
736.50	250.55
736.83	250.42
737.16	250.06
737.49	249.68
737.82	249.28
738.15	248.94
738.48	248.48
738.81	248.12
739.14	247.66
739.47	247.24
739.80	246.86
740.13	246.49
740.46	246.06
740.79	245.69
741.12	245.35
741.45	244.97
741.78	244.52
742.11	244.22
742.44	243.83
742.77	243.51
743.10	243.13
743.43	242.78
743.75	242.21
744.08	242.14
744.41	241.77
744.74	241.40
745.07	241.02
745.40	240.75
745.73	240.50
746.06	240.20
746.39	239.92
746.71	239.58
747.04	239.21
747.37	238.92
747.70	238.58
748.03	238.29
748.36	238.04
748.68	237.69
749.01	237.32
749.34	237.00
749.67	236.70
750.00	236.43
750.33	236.30
750.65	236.03
750.98	235.44
751.31	235.22
751.64	234.99
751.97	234.83
752.29	234.55
752.62	234.19
752.95	233.93
753.28	233.64
753.60	233.37
753.93	233.19
754.26	232.97
754.59	232.73
754.91	232.46
755.24	232.22
755.57	232.02
755.90	231.83
756.22	231.59
756.55	231.33
756.88	231.11
757.20	230.77
757.53	230.49
757.86	230.31
758.19	230.08
758.51	229.87
758.84	229.57
759.17	229.35
759.49	229.20
759.82	229.09
760.15	228.94
760.47	228.77
760.80	228.50
761.13	228.36
761.45	228.11
761.78	227.93
762.11	227.75
762.43	227.56
762.76	227.39
763.08	227.26
763.41	227.11
763.74	226.94
764.06	226.76
764.39	226.61
764.71	226.45
765.04	226.31
765.37	226.15
765.69	225.99
766.02	225.87
766.34	225.73
766.67	225.53
767.00	225.39
767.32	225.36
767.65	225.37
767.97	225.20
768.30	225.12
768.62	224.99
768.95	224.85
769.27	224.70
769.60	224.59
769.92	224.39
770.25	224.22
770.57	224.06
770.90	223.91
771.22	223.78
771.55	223.67
771.87	223.55
772.20	223.42
772.52	223.48
772.85	223.61
773.17	223.47
773.50	223.36
773.82	223.24
774.15	222.99
774.47	222.74
774.80	222.60
775.12	222.49
775.45	222.39
775.77	222.30
776.09	222.22
776.42	222.13
776.74	222.13
777.07	222.04
777.39	221.94
777.72	221.89
778.04	221.82
778.36	221.70
778.69	221.61
779.01	221.55
779.33	221.25
779.66	220.90
779.98	220.82
780.31	220.74
780.63	220.75
780.95	220.74
781.28	220.68
781.60	220.61
781.92	220.56
782.25	220.50
782.57	220.38
782.89	220.31
783.22	220.25
783.54	220.15
783.86	220.12
784.19	220.06
784.51	220.06
784.83	219.97
785.16	219.94
785.48	219.87
785.80	219.80
786.12	219.78
786.45	219.75
786.77	219.70
787.09	219.62
787.42	219.48
787.74	219.41
788.06	219.37
788.38	219.30
788.71	219.23
789.03	219.20
789.35	219.22
789.67	219.14
789.99	219.05
790.32	218.95
790.64	218.92
790.96	219.04
791.28	218.89
791.61	218.84
791.93	218.78
792.25	218.74
792.57	218.83
792.89	218.74
793.21	218.70
793.54	218.64
793.86	218.54
794.18	218.50
794.50	218.42
794.82	218.39
795.14	218.38
795.47	218.35
795.79	218.28
796.11	218.16
796.43	218.10
796.75	218.04
797.07	218.02
797.39	217.94
797.71	217.73
798.04	217.72
798.36	217.69
798.68	217.66
799.00	217.63
799.32	217.51
799.64	217.52
799.96	217.48
800.28	217.48
800.60	217.47
800.92	217.46
801.24	217.42
801.56	217.38
801.89	217.31
802.21	217.31
802.53	217.22
802.85	217.28
803.17	217.35
803.49	217.29
803.81	217.24
804.13	217.23
804.45	217.19
804.77	217.15
805.09	217.10
805.41	217.04
805.73	216.96
806.05	216.86
806.37	216.84
806.69	216.78
807.01	216.71
807.33	216.70
807.65	216.60
807.97	216.68
808.28	216.61
808.60	216.60
808.92	216.50
809.24	216.65
809.56	216.58
809.88	216.48
810.20	216.44
810.52	216.48
810.84	216.40
811.16	216.34
811.48	216.33
811.80	216.40
812.12	216.39
812.43	216.41
812.75	216.39
813.07	216.30
813.39	216.31
813.71	216.27
814.03	216.24
814.35	216.20
814.67	216.06
814.98	216.01
815.30	215.99
815.62	215.97
815.94	215.78
816.26	215.76
816.58	215.73
816.89	215.77
817.21	215.67
817.53	215.69
817.85	215.67
818.17	215.61
818.48	215.54
818.80	215.57
819.12	215.50
819.44	215.50
819.76	215.48
820.07	215.44
820.39	215.41
820.71	215.42
821.03	215.42
821.34	215.44
821.66	215.46
821.98	215.45
822.30	215.40
822.61	215.51
822.93	215.48
823.25	215.45
823.57	215.37
823.88	215.43
824.20	215.44
824.52	215.46
824.83	215.44
825.15	215.38
825.47	215.34
825.79	215.34
826.10	215.29
826.42	215.28
826.74	215.29
827.05	215.29
827.37	215.26
827.69	215.22
828.00	215.19
828.32	215.19
828.64	215.16
828.95	215.27
829.27	215.18
829.58	215.14
829.90	215.14
830.22	215.18
830.53	215.10
830.85	215.04
831.17	214.99
831.48	214.99
831.80	215.00
832.11	214.97
832.43	214.96
832.75	214.96
833.06	215.07
833.38	215.00
833.69	215.02
834.01	215.00
834.32	215.01
834.64	214.97
834.96	214.97
835.27	214.96
835.59	214.87
835.90	214.86
836.22	214.89
836.53	214.89
836.85	214.87
837.16	215.10
837.48	215.11
837.79	215.17
838.11	215.19
838.42	215.15
838.74	215.18
839.05	215.16
839.37	215.13
839.68	214.99
840.00	214.96
840.31	214.96
840.63	214.96
840.94	214.95
841.26	214.97
841.57	214.97
841.88	214.96
842.20	214.92
842.51	214.87
842.83	214.86
843.14	215.00
843.46	214.98
843.77	214.83
844.08	214.82
844.40	214.77
844.71	214.77
845.03	214.79
845.34	214.73
845.65	214.72
845.97	214.73
846.28	214.75
846.60	214.80
846.91	214.77
847.22	214.75
847.54	214.75
847.85	214.74
848.16	214.71
848.48	214.68
848.79	214.75
849.10	214.81
849.42	214.80
849.73	214.61
850.04	214.60
850.36	214.52
850.67	214.53
850.98	214.54
851.30	214.53
851.61	214.49
851.92	214.50
852.23	214.58
852.55	214.60
852.86	214.59
853.17	214.56
853.49	214.58
853.80	214.61
854.11	214.65
854.42	214.65
854.74	214.62
855.05	214.60
855.36	214.50
855.67	214.47
855.99	214.48
856.30	214.73
856.61	214.70
856.92	214.68
857.23	214.71
857.55	214.63
857.86	214.58
858.17	214.59
858.48	214.54
858.79	214.45
859.11	214.43
859.42	214.41
859.73	214.36
860.04	214.34
860.35	214.29
860.66	214.20
860.98	214.19
861.29	214.20
861.60	214.18
861.91	214.22
862.22	214.18
862.53	214.15
862.84	213.91
863.16	213.97
863.47	213.94
863.78	213.89
864.09	213.94
864.40	213.97
864.71	213.99
865.02	214.02
865.33	214.02
865.64	214.00
865.95	214.01
866.27	214.16
866.58	214.15
866.89	214.14
867.20	214.15
867.51	214.13
867.82	214.12
868.13	214.20
868.44	214.17
868.75	214.20
869.06	214.20
869.37	214.21
869.68	214.09
869.99	214.14
870.30	214.17
870.61	214.19
870.92	214.15
871.23	214.16
871.54	214.18
871.85	214.21
872.16	214.24
872.47	214.21
872.78	214.09
873.09	214.11
873.40	214.11
873.71	214.15
874.02	214.15
874.33	214.15
874.64	214.10
874.95	214.15
875.26	214.11
875.56	214.12
875.87	214.11
876.18	214.14
876.49	214.33
876.80	214.29
877.11	214.26
877.42	214.28
877.73	214.28
878.04	214.25
878.35	214.24
878.66	214.24
878.96	214.26
879.27	214.26
879.58	214.25
879.89	214.21
880.20	214.23
880.51	214.23
880.82	214.22
881.12	214.24
881.43	214.18
881.74	214.20
882.05	214.13
882.36	214.17
882.67	214.17
882.97	213.98
883.28	213.98
883.59	213.97
883.90	213.98
884.21	213.97
884.51	213.95
884.82	213.93
885.13	213.96
885.44	213.92
885.74	213.95
886.05	213.95
886.36	213.99
886.67	213.94
886.98	214.06
887.28	214.10
887.59	214.09
887.90	214.10
888.20	214.06
888.51	214.14
888.82	214.09
889.13	214.14
889.43	214.30
889.74	214.29
890.05	214.27
890.35	214.26
890.66	214.24
890.97	214.25
891.28	214.23
891.58	214.21
891.89	214.22
892.20	214.19
892.50	214.17
892.81	214.13
893.12	214.11
893.42	213.98
893.73	214.00
894.04	214.00
894.34	214.02
894.65	214.03
894.95	214.02
895.26	214.04
895.57	214.09
895.87	213.91
896.18	213.93
896.48	213.96
896.79	213.94
897.10	213.98
897.40	213.97
897.71	214.00
898.01	214.00
898.32	214.02
898.63	214.01
898.93	214.01
899.24	214.05
899.54	214.08
899.85	214.10
900.15	214.09
900.46	214.09
900.76	214.12
901.07	214.13
901.38	214.11
901.68	214.14
901.99	214.05
902.29	214.03
902.60	214.02
902.90	214.01
903.21	214.00
903.51	213.98
903.82	214.06
904.12	214.03
904.43	214.02
904.73	214.04
905.03	214.09
905.34	214.30
905.64	214.27
905.95	214.24
906.25	214.21
906.56	214.16
906.86	214.17
907.17	214.15
907.47	214.16
907.77	214.14
908.08	214.07
908.38	214.10
908.69	214.14
908.99	214.15
909.30	214.16
909.60	214.16
909.90	214.18
910.21	214.10
910.51	214.07
910.81	214.08
911.12	214.06
911.42	214.02
911.73	213.78
912.03	213.79
912.33	213.86
912.64	213.86
912.94	213.85
913.24	213.82
913.55	213.80
913.85	213.81
914.15	213.83
914.46	213.86
914.76	213.81
915.06	213.77
915.37	213.75
915.67	213.75
915.97	213.77
916.27	213.71
916.58	213.69
916.88	213.71
917.18	213.68
917.49	213.83
917.79	213.81
918.09	213.82
918.39	213.86
918.70	213.79
919.00	213.79
919.30	213.88
919.60	213.85
919.91	213.83
920.21	213.81
920.51	213.76
920.81	213.75
921.12	213.81
921.42	213.80
921.72	213.79
922.02	213.78
922.32	213.78
922.63	213.80
922.93	213.91
923.23	213.90
923.53	213.90
923.83	213.74
924.13	213.81
924.44	213.81
924.74	213.87
925.04	213.93
925.34	213.92
925.64	213.83
925.94	213.82
926.24	213.90
926.55	213.87
926.85	213.91
927.15	213.88
927.45	213.86
927.75	213.89
928.05	213.90
928.35	213.89
928.65	213.92
928.95	213.96
929.26	213.87
929.56	213.92
929.86	213.99
930.16	213.98
930.46	213.95
930.76	213.95
931.06	213.84
931.36	213.76
931.66	213.78
931.96	213.81
932.26	213.83
932.56	213.76
932.86	213.79
933.16	213.81
933.46	213.79
933.76	213.77
934.06	213.82
934.36	213.89
934.66	213.88
934.96	213.86
935.26	213.81
935.56	213.83
935.86	213.75
936.16	213.69
936.46	213.68
936.76	213.66
937.06	213.64
937.36	213.64
937.66	213.67
937.96	213.68
938.26	213.63
938.56	213.64
938.86	213.67
939.16	213.74
939.46	213.75
939.76	213.79
940.06	213.76
940.35	213.68
940.65	213.60
940.95	213.61
941.25	213.54
941.55	213.52
941.85	213.53
942.15	213.59
942.45	213.65
942.75	213.69
943.04	213.70
943.34	213.74
943.64	213.76
943.94	213.77
944.24	213.79
944.54	213.82
944.84	213.80
945.13	213.76
945.43	213.68
945.73	213.66
946.03	213.67
946.33	213.67
946.62	213.65
946.92	213.63
947.22	213.64
947.52	213.70
947.82	213.75
948.11	213.72
948.41	213.65
948.71	213.56
949.01	213.54
949.31	213.52
949.60	213.50
949.90	213.51
950.20	213.49
950.50	213.45
950.79	213.45
951.09	213.47
951.39	213.47
951.69	213.46
951.98	213.47
952.28	213.44
952.58	213.43
952.87	213.46
953.17	213.48
953.47	213.46
953.76	213.46
954.06	213.44
954.36	213.39
954.66	213.41
954.95	213.52
955.25	213.52
955.55	213.56
955.84	213.55
956.14	213.56
956.44	213.57
956.73	213.55
957.03	213.55
957.32	213.57
957.62	213.56
957.92	213.62
958.21	213.61
958.51	213.89
958.81	213.93
959.10	213.97
959.40	214.04
959.69	214.08
959.99	214.09
960.29	214.11
960.58	214.12
960.88	214.21
961.17	214.15
961.47	214.16
961.76	214.11
962.06	214.09
962.36	214.08
962.65	214.07
962.95	214.09
963.24	214.06
963.54	214.06
963.83	214.07
964.13	214.01
964.42	213.96
964.72	213.74
965.01	213.73
965.31	213.66
965.60	213.58
965.90	213.67
966.19	213.63
966.49	213.58
966.78	213.60
967.08	213.55
967.37	213.58
967.67	213.54
967.96	213.63
968.26	213.65
968.55	213.69
968.85	213.69
969.14	213.69
969.43	213.72
969.73	213.71
970.02	213.69
970.32	213.68
970.61	213.66
970.91	213.61
971.20	213.61
971.49	213.63
971.79	213.68
972.08	213.57
972.38	213.60
972.67	213.62
972.96	213.63
973.26	213.63
973.55	213.67
973.85	213.68
974.14	213.63
974.43	213.62
974.73	213.57
975.02	213.56
975.31	213.55
975.61	213.54
975.90	213.51
976.19	213.49
976.49	213.52
976.78	213.57
977.07	213.57
977.37	213.60
977.66	213.61
977.95	213.59
978.24	213.61
978.54	213.62
978.83	213.61
979.12	213.62
979.42	213.58
979.71	213.51
980.00	213.51
980.29	213.53
980.59	213.51
980.88	213.55
981.17	213.53
981.46	213.54
981.76	213.52
982.05	213.60
982.34	213.65
982.63	213.68
982.93	213.67
983.22	213.74
983.51	213.72
983.80	213.72
984.09	213.74
984.39	213.72
984.68	213.72
984.97	213.71
985.26	213.67
985.55	213.70
985.85	213.67
986.14	213.71
986.43	213.72
986.72	213.73
987.01	213.68
987.30	213.72
987.59	213.71
987.89	213.73
988.18	213.65
988.47	213.61
988.76	213.56
989.05	213.55
989.34	213.51
989.63	213.56
989.92	213.55
990.22	213.51
990.51	213.50
990.80	213.47
991.09	213.48
991.38	213.51
991.67	213.51
991.96	213.49
992.25	213.46
992.54	213.44
992.83	213.43
993.12	213.40
993.41	213.44
993.70	213.49
993.99	213.49
994.28	213.52
994.58	213.55
994.87	213.54
995.16	213.55
995.45	213.53
995.74	213.46
996.03	213.46
996.32	213.51
996.61	213.55
996.90	213.54
997.19	213.54
997.48	213.56
997.77	213.54
998.06	213.55
998.34	213.52
998.63	213.53
998.92	213.56
999.21	213.59
999.50	213.57
999.79	213.53
1000.08	213.55
1000.37	213.57
1000.66	213.56
1000.95	213.61
1001.24	213.62
1001.53	213.65
1001.82	213.64
1002.11	213.58
1002.40	213.56
1002.68	213.61
1002.97	213.77
1003.26	213.75
1003.55	213.73
1003.84	213.76
1004.13	213.84
1004.42	213.88
1004.71	213.84
1004.99	213.80
1005.28	213.85
1005.57	213.84
1005.86	213.79
1006.15	213.79
1006.44	213.77
1006.72	213.79
1007.01	213.77
1007.30	213.78
1007.59	213.73
1007.88	213.76
1008.17	213.81
1008.45	213.78
1008.74	213.69
1009.03	213.57
1009.32	213.57
1009.60	213.55
1009.89	213.53
1010.18	213.44
1010.47	213.45
1010.76	213.46
1011.04	213.46
1011.33	213.47
1011.62	213.48
1011.91	213.49
1012.19	213.50
1012.48	213.48
1012.77	213.47
1013.05	213.54
1013.34	213.54
1013.63	213.54
1013.92	213.50
1014.20	213.49
1014.49	213.50
1014.78	213.52
1015.06	213.47
1015.35	213.48
1015.64	213.50
1015.92	213.51
1016.21	213.52
1016.50	213.47
1016.78	213.52
1017.07	213.52
1017.36	213.47
1017.64	213.45
1017.93	213.46
1018.22	213.42
1018.50	213.42
1018.79	213.41
1019.08	213.30
1019.36	213.28
1019.65	213.26
1019.93	213.33
1020.22	213.34
1020.51	213.45
1020.79	213.43
1021.08	213.26
1021.36	212.91
1021.65	213.14
1021.94	212.99
1022.22	213.18
1022.51	212.79
1022.79	214.45
1023.08	213.32
1023.36	216.05
1023.65	212.89
>>>>>End Processed Spectral Data<<<<<
