SpectraSuite Data File
++++++++++++++++++++++++++++++++++++
Date: Tue Jan 29 16:54:07 EST 2013
User: group
Dark Spectrum Present: No
Reference Spectrum Present: No
Number of Sampled Component Spectra: 1
Spectrometers: USB2E7196
Integration Time (usec): 65000 (USB2E7196)
Spectra Averaged: 100 (USB2E7196)
Boxcar Smoothing: 10 (USB2E7196)
Correct for Electrical Dark: No (USB2E7196)
Strobe/Lamp Enabled: No (USB2E7196)
Correct for Detector Non-linearity: No (USB2E7196)
Correct for Stray Light: No (USB2E7196)
Number of Pixels in Processed Spectrum: 2048
>>>>>Begin Processed Spectral Data<<<<<
339.09	0.00
339.48	201.36
339.86	203.46
340.24	204.38
340.63	206.29
341.01	210.33
341.39	208.57
341.78	210.36
342.16	211.71
342.54	212.20
342.93	201.05
343.31	211.20
343.69	211.77
344.07	212.23
344.46	212.70
344.84	213.09
345.22	213.29
345.60	213.58
345.99	213.77
346.37	213.89
346.75	213.99
347.13	214.10
347.52	214.14
347.90	214.26
348.28	214.31
348.66	214.38
349.05	214.36
349.43	214.42
349.81	214.47
350.19	214.56
350.57	214.59
350.96	214.64
351.34	214.73
351.72	214.83
352.10	214.90
352.48	214.94
352.87	214.99
353.25	215.04
353.63	215.06
354.01	215.12
354.39	215.20
354.77	215.25
355.15	215.35
355.54	215.42
355.92	215.38
356.30	215.44
356.68	215.60
357.06	215.66
357.44	215.65
357.82	215.71
358.20	215.78
358.58	215.86
358.97	215.94
359.35	216.03
359.73	216.09
360.11	216.13
360.49	216.20
360.87	216.25
361.25	216.31
361.63	216.46
362.01	216.51
362.39	216.52
362.77	216.58
363.15	216.57
363.53	216.59
363.91	216.64
364.29	216.65
364.67	216.50
365.05	216.53
365.43	216.57
365.81	216.60
366.19	216.64
366.57	216.72
366.95	216.73
367.33	216.67
367.71	216.72
368.09	216.77
368.47	216.75
368.85	216.72
369.23	216.75
369.61	216.63
369.99	216.65
370.37	216.66
370.75	216.73
371.13	216.68
371.51	216.64
371.89	216.61
372.27	216.61
372.65	216.59
373.03	216.56
373.41	216.55
373.78	216.52
374.16	216.40
374.54	216.29
374.92	216.25
375.30	216.24
375.68	216.12
376.06	216.07
376.44	216.02
376.82	216.00
377.19	215.94
377.57	215.87
377.95	215.78
378.33	215.74
378.71	215.57
379.09	215.60
379.47	215.54
379.84	215.50
380.22	215.45
380.60	215.39
380.98	215.34
381.36	215.28
381.73	215.21
382.11	215.21
382.49	215.19
382.87	215.09
383.25	215.03
383.62	215.25
384.00	215.20
384.38	215.16
384.76	215.17
385.13	215.24
385.51	215.24
385.89	215.19
386.27	215.12
386.64	215.12
387.02	215.03
387.40	215.04
387.78	215.02
388.15	214.99
388.53	214.94
388.91	214.94
389.29	214.89
389.66	214.90
390.04	214.88
390.42	214.89
390.79	214.89
391.17	214.89
391.55	214.61
391.92	214.61
392.30	214.66
392.68	214.58
393.05	214.55
393.43	214.55
393.81	214.57
394.18	214.54
394.56	214.55
394.94	214.61
395.31	214.59
395.69	214.65
396.06	214.70
396.44	214.73
396.82	214.73
397.19	214.92
397.57	214.94
397.95	215.00
398.32	214.96
398.70	215.04
399.07	215.15
399.45	215.23
399.82	215.27
400.20	215.30
400.58	215.38
400.95	215.36
401.33	215.49
401.70	215.74
402.08	215.85
402.45	215.94
402.83	216.07
403.20	216.18
403.58	216.26
403.95	216.43
404.33	216.60
404.71	216.70
405.08	216.93
405.46	217.07
405.83	217.24
406.21	217.44
406.58	217.66
406.96	217.87
407.33	218.13
407.70	218.42
408.08	218.89
408.45	219.24
408.83	219.63
409.20	219.93
409.58	220.21
409.95	220.70
410.33	221.22
410.70	221.69
411.08	222.26
411.45	222.86
411.82	223.40
412.20	224.10
412.57	224.97
412.95	225.52
413.32	226.37
413.69	227.22
414.07	228.13
414.44	229.15
414.82	230.17
415.19	231.38
415.56	232.55
415.94	233.74
416.31	235.19
416.68	236.62
417.06	238.26
417.43	239.80
417.81	241.55
418.18	243.31
418.55	245.24
418.93	247.31
419.30	249.43
419.67	251.71
420.04	253.99
420.42	256.37
420.79	259.23
421.16	262.04
421.54	264.96
421.91	268.00
422.28	271.08
422.66	274.38
423.03	277.63
423.40	281.04
423.77	284.66
424.15	288.32
424.52	292.13
424.89	296.29
425.26	300.40
425.64	304.30
426.01	308.62
426.38	313.12
426.75	317.67
427.13	322.43
427.50	327.41
427.87	332.63
428.24	337.85
428.61	342.86
428.99	348.40
429.36	354.47
429.73	360.41
430.10	366.30
430.47	372.47
430.85	378.79
431.22	385.54
431.59	392.75
431.96	399.60
432.33	407.19
432.70	414.45
433.08	422.99
433.45	431.07
433.82	439.12
434.19	448.05
434.56	456.74
434.93	465.15
435.30	473.46
435.68	482.66
436.05	491.71
436.42	500.71
436.79	508.89
437.16	517.66
437.53	527.01
437.90	536.23
438.27	545.22
438.64	554.52
439.01	563.11
439.38	570.65
439.75	578.01
440.13	586.45
440.50	594.49
440.87	600.90
441.24	607.57
441.61	614.93
441.98	620.37
442.35	626.78
442.72	633.15
443.09	639.23
443.46	643.03
443.83	645.59
444.20	647.84
444.57	651.02
444.94	652.57
445.31	653.97
445.68	655.32
446.05	655.86
446.42	655.10
446.79	654.17
447.16	653.14
447.53	652.39
447.90	649.12
448.27	645.81
448.64	641.25
449.01	637.99
449.37	632.13
449.74	626.41
450.11	619.52
450.48	612.05
450.85	604.63
451.22	598.08
451.59	591.93
451.96	586.00
452.33	578.09
452.70	570.94
453.07	562.44
453.43	553.85
453.80	545.57
454.17	537.48
454.54	529.88
454.91	521.60
455.28	513.58
455.65	506.05
456.02	498.48
456.38	492.06
456.75	484.09
457.12	477.42
457.49	470.86
457.86	464.58
458.23	459.19
458.59	453.20
458.96	447.14
459.33	441.76
459.70	436.36
460.07	432.07
460.43	427.12
460.80	422.47
461.17	418.45
461.54	414.22
461.91	410.22
462.27	406.05
462.64	402.66
463.01	398.82
463.38	395.14
463.74	391.47
464.11	388.26
464.48	385.44
464.85	382.39
465.21	379.97
465.58	377.32
465.95	374.12
466.32	371.47
466.68	368.90
467.05	366.27
467.42	363.70
467.78	361.03
468.15	358.45
468.52	356.52
468.88	353.95
469.25	351.73
469.62	349.89
469.98	347.92
470.35	345.99
470.72	344.30
471.08	342.48
471.45	340.94
471.82	339.32
472.18	337.61
472.55	336.36
472.92	334.91
473.28	333.64
473.65	332.49
474.02	331.37
474.38	330.44
474.75	329.66
475.11	328.85
475.48	328.24
475.85	327.76
476.21	327.25
476.58	326.90
476.94	326.65
477.31	326.35
477.67	326.04
478.04	325.94
478.41	325.89
478.77	326.03
479.14	325.96
479.50	326.11
479.87	326.41
480.23	326.68
480.60	326.91
480.96	327.18
481.33	327.75
481.69	328.27
482.06	328.73
482.42	329.22
482.79	329.78
483.15	330.53
483.52	331.46
483.88	332.36
484.25	333.28
484.61	334.33
484.98	335.35
485.34	336.74
485.71	338.11
486.07	339.54
486.44	340.85
486.80	342.45
487.17	344.12
487.53	345.95
487.90	347.84
488.26	349.92
488.62	352.09
488.99	354.18
489.35	356.36
489.72	358.75
490.08	361.25
490.44	363.81
490.81	366.55
491.17	369.21
491.54	372.20
491.90	375.26
492.26	378.46
492.63	381.83
492.99	385.19
493.36	388.79
493.72	392.69
494.08	396.67
494.45	400.88
494.81	405.25
495.17	409.62
495.54	414.35
495.90	419.13
496.26	424.06
496.63	429.22
496.99	434.64
497.35	440.22
497.72	446.09
498.08	452.03
498.44	458.09
498.80	464.52
499.17	470.98
499.53	477.70
499.89	484.59
500.26	491.56
500.62	498.71
500.98	506.10
501.34	513.45
501.71	521.29
502.07	529.12
502.43	537.02
502.79	545.16
503.16	553.48
503.52	562.07
503.88	570.76
504.24	579.71
504.60	588.69
504.97	597.98
505.33	607.19
505.69	616.99
506.05	626.82
506.41	636.66
506.78	646.71
507.14	656.87
507.50	667.26
507.86	677.94
508.22	688.67
508.59	699.32
508.95	710.44
509.31	721.58
509.67	732.94
510.03	744.39
510.39	756.00
510.75	767.75
511.12	779.56
511.48	791.54
511.84	803.78
512.20	816.15
512.56	828.68
512.92	841.45
513.28	854.02
513.64	866.75
514.00	879.59
514.37	892.63
514.73	905.72
515.09	918.70
515.45	931.64
515.81	944.70
516.17	958.14
516.53	971.40
516.89	984.53
517.25	997.73
517.61	1011.25
517.97	1024.76
518.33	1037.89
518.69	1051.51
519.05	1065.31
519.41	1078.97
519.77	1092.86
520.13	1106.08
520.49	1119.13
520.85	1132.53
521.21	1145.86
521.57	1159.54
521.93	1172.50
522.29	1186.22
522.65	1199.85
523.01	1213.45
523.37	1226.62
523.73	1239.86
524.09	1253.05
524.45	1266.52
524.81	1280.11
525.17	1293.51
525.53	1306.66
525.89	1320.16
526.25	1333.23
526.61	1346.06
526.97	1359.15
527.33	1372.08
527.68	1385.67
528.04	1399.33
528.40	1412.48
528.76	1426.01
529.12	1438.92
529.48	1452.31
529.84	1464.68
530.20	1477.46
530.56	1490.11
530.91	1503.45
531.27	1516.35
531.63	1529.08
531.99	1541.82
532.35	1554.09
532.71	1566.55
533.07	1579.44
533.42	1591.70
533.78	1603.85
534.14	1615.90
534.50	1627.17
534.86	1638.88
535.21	1649.76
535.57	1661.36
535.93	1672.68
536.29	1683.72
536.65	1695.26
537.00	1706.32
537.36	1717.72
537.72	1728.80
538.08	1740.20
538.44	1751.29
538.79	1762.62
539.15	1773.61
539.51	1784.54
539.87	1795.82
540.22	1806.66
540.58	1817.68
540.94	1828.62
541.29	1838.99
541.65	1849.05
542.01	1859.60
542.37	1869.54
542.72	1879.76
543.08	1889.53
543.44	1900.17
543.79	1909.51
544.15	1919.00
544.51	1928.94
544.87	1938.87
545.22	1948.21
545.58	1957.19
545.94	1966.06
546.29	1974.51
546.65	1982.95
547.01	1991.21
547.36	1999.04
547.72	2007.00
548.07	2014.64
548.43	2022.34
548.79	2030.38
549.14	2038.45
549.50	2047.09
549.86	2055.19
550.21	2062.69
550.57	2070.41
550.92	2077.11
551.28	2084.66
551.64	2091.96
551.99	2099.37
552.35	2106.66
552.70	2113.54
553.06	2120.21
553.41	2126.46
553.77	2132.94
554.13	2139.25
554.48	2146.21
554.84	2153.23
555.19	2159.68
555.55	2166.22
555.90	2172.52
556.26	2179.34
556.61	2185.39
556.97	2190.21
557.32	2196.00
557.68	2202.44
558.03	2208.15
558.39	2213.62
558.74	2219.68
559.10	2225.13
559.45	2230.75
559.81	2236.19
560.16	2241.63
560.52	2247.40
560.87	2253.73
561.23	2259.43
561.58	2266.08
561.94	2271.23
562.29	2275.86
562.64	2281.79
563.00	2287.25
563.35	2292.68
563.71	2298.10
564.06	2303.77
564.42	2309.49
564.77	2314.34
565.12	2319.55
565.48	2324.61
565.83	2329.96
566.19	2335.00
566.54	2340.20
566.89	2344.72
567.25	2349.11
567.60	2354.77
567.96	2359.85
568.31	2364.20
568.66	2368.49
569.02	2372.26
569.37	2375.85
569.72	2380.12
570.08	2383.38
570.43	2386.54
570.78	2389.78
571.14	2392.13
571.49	2395.12
571.84	2398.55
572.20	2401.45
572.55	2404.18
572.90	2406.37
573.26	2409.08
573.61	2411.52
573.96	2413.67
574.31	2415.56
574.67	2417.39
575.02	2417.99
575.37	2419.36
575.72	2419.98
576.08	2421.39
576.43	2421.41
576.78	2421.62
577.13	2423.11
577.49	2424.30
577.84	2425.16
578.19	2426.14
578.54	2426.59
578.90	2426.99
579.25	2426.85
579.60	2426.46
579.95	2425.51
580.30	2425.40
580.66	2424.60
581.01	2422.90
581.36	2420.30
581.71	2418.73
582.06	2417.33
582.42	2416.32
582.77	2413.74
583.12	2412.04
583.47	2410.29
583.82	2409.52
584.17	2408.14
584.53	2405.89
584.88	2403.57
585.23	2401.39
585.58	2399.01
585.93	2396.93
586.28	2394.76
586.63	2391.98
586.98	2389.61
587.34	2387.44
587.69	2384.75
588.04	2382.38
588.39	2380.66
588.74	2378.06
589.09	2374.94
589.44	2371.64
589.79	2368.92
590.14	2366.72
590.49	2363.65
590.84	2359.77
591.19	2356.32
591.54	2352.87
591.89	2348.54
592.25	2345.15
592.60	2340.76
592.95	2336.41
593.30	2332.12
593.65	2327.40
594.00	2322.88
594.35	2319.80
594.70	2315.06
595.05	2310.52
595.40	2304.89
595.75	2299.02
596.10	2295.21
596.45	2290.44
596.80	2285.79
597.15	2280.62
597.50	2274.71
597.85	2269.77
598.19	2264.56
598.54	2258.81
598.89	2253.70
599.24	2249.16
599.59	2242.91
599.94	2237.05
600.29	2231.00
600.64	2225.01
600.99	2218.31
601.34	2212.83
601.69	2205.83
602.04	2199.46
602.39	2192.63
602.74	2186.61
603.08	2181.07
603.43	2174.58
603.78	2167.74
604.13	2160.70
604.48	2153.32
604.83	2147.07
605.18	2140.80
605.53	2133.81
605.87	2126.82
606.22	2120.09
606.57	2112.05
606.92	2104.08
607.27	2097.21
607.62	2090.69
607.96	2083.62
608.31	2077.22
608.66	2069.49
609.01	2061.88
609.36	2054.76
609.70	2047.22
610.05	2039.31
610.40	2031.00
610.75	2022.60
611.10	2014.93
611.44	2005.93
611.79	1997.13
612.14	1987.40
612.49	1976.71
612.83	1967.38
613.18	1958.22
613.53	1948.80
613.88	1939.26
614.22	1930.65
614.57	1920.76
614.92	1910.17
615.27	1900.01
615.61	1889.74
615.96	1880.01
616.31	1870.40
616.65	1860.96
617.00	1851.28
617.35	1841.77
617.70	1832.15
618.04	1822.38
618.39	1812.11
618.74	1802.58
619.08	1793.09
619.43	1784.37
619.78	1776.22
620.12	1767.58
620.47	1758.01
620.82	1747.74
621.16	1738.09
621.51	1728.42
621.85	1718.76
622.20	1708.61
622.55	1698.37
622.89	1688.52
623.24	1678.98
623.59	1669.30
623.93	1659.39
624.28	1649.63
624.62	1639.69
624.97	1629.66
625.32	1619.84
625.66	1611.15
626.01	1602.52
626.35	1593.23
626.70	1583.44
627.04	1573.49
627.39	1563.45
627.73	1554.33
628.08	1545.59
628.43	1536.26
628.77	1527.09
629.12	1518.33
629.46	1510.53
629.81	1502.16
630.15	1492.91
630.50	1483.24
630.84	1472.90
631.19	1463.10
631.53	1454.01
631.88	1444.10
632.22	1434.04
632.57	1424.84
632.91	1414.91
633.26	1405.21
633.60	1395.77
633.95	1386.51
634.29	1377.12
634.64	1368.05
634.98	1358.13
635.32	1348.87
635.67	1340.45
636.01	1331.35
636.36	1321.72
636.70	1312.37
637.05	1303.09
637.39	1294.28
637.73	1285.82
638.08	1278.43
638.42	1270.39
638.77	1261.74
639.11	1253.46
639.45	1245.79
639.80	1237.34
640.14	1228.74
640.49	1220.04
640.83	1211.32
641.17	1203.33
641.52	1195.29
641.86	1186.85
642.20	1179.15
642.55	1170.60
642.89	1161.83
643.23	1153.22
643.58	1145.18
643.92	1136.18
644.26	1127.66
644.61	1119.29
644.95	1110.59
645.29	1101.42
645.64	1092.38
645.98	1083.91
646.32	1076.15
646.66	1067.72
647.01	1059.57
647.35	1051.51
647.69	1043.25
648.04	1035.05
648.38	1026.20
648.72	1017.60
649.06	1009.21
649.41	1001.12
649.75	993.30
650.09	985.48
650.43	977.53
650.78	969.26
651.12	961.56
651.46	954.18
651.80	947.06
652.14	939.81
652.49	932.35
652.83	925.12
653.17	917.49
653.51	909.89
653.85	902.74
654.20	895.53
654.54	888.17
654.88	880.94
655.22	873.85
655.56	866.89
655.90	860.08
656.25	853.39
656.59	846.50
656.93	839.59
657.27	832.51
657.61	825.62
657.95	819.53
658.29	813.61
658.64	807.61
658.98	801.14
659.32	794.62
659.66	788.48
660.00	782.07
660.34	776.04
660.68	769.93
661.02	763.69
661.36	757.70
661.70	751.90
662.05	746.39
662.39	740.93
662.73	735.55
663.07	730.20
663.41	724.71
663.75	719.07
664.09	713.31
664.43	707.93
664.77	702.62
665.11	696.87
665.45	691.01
665.79	685.14
666.13	679.49
666.47	673.99
666.81	668.49
667.15	663.14
667.49	657.99
667.83	652.78
668.17	647.50
668.51	642.45
668.85	637.50
669.19	632.52
669.53	627.48
669.87	622.34
670.21	617.59
670.55	612.86
670.89	608.30
671.23	604.02
671.57	599.56
671.91	595.22
672.25	591.10
672.58	587.04
672.92	583.00
673.26	579.06
673.60	575.15
673.94	571.35
674.28	567.77
674.62	563.98
674.96	560.24
675.30	556.74
675.64	553.05
675.97	549.49
676.31	545.86
676.65	542.24
676.99	538.88
677.33	535.08
677.67	531.44
678.01	527.63
678.34	524.02
678.68	520.51
679.02	516.91
679.36	513.21
679.70	509.50
680.04	505.90
680.37	502.43
680.71	499.09
681.05	495.82
681.39	492.52
681.73	489.34
682.06	486.29
682.40	483.16
682.74	479.99
683.08	476.77
683.42	473.60
683.75	470.54
684.09	467.46
684.43	464.59
684.77	461.63
685.10	458.79
685.44	455.85
685.78	452.92
686.12	450.11
686.45	447.37
686.79	444.72
687.13	442.20
687.46	439.55
687.80	436.90
688.14	434.11
688.48	431.40
688.81	428.65
689.15	426.03
689.49	423.38
689.82	420.80
690.16	418.15
690.50	415.69
690.83	413.19
691.17	410.65
691.51	408.18
691.84	405.88
692.18	403.66
692.52	401.41
692.85	399.27
693.19	397.10
693.52	394.89
693.86	392.62
694.20	390.35
694.53	388.18
694.87	385.91
695.21	383.72
695.54	381.52
695.88	379.36
696.21	377.11
696.55	374.99
696.88	372.93
697.22	370.94
697.56	369.00
697.89	367.09
698.23	365.27
698.56	363.41
698.90	361.65
699.23	359.75
699.57	357.87
699.90	355.96
700.24	354.15
700.58	352.36
700.91	350.67
701.25	349.11
701.58	347.48
701.92	345.88
702.25	344.28
702.59	342.71
702.92	341.14
703.26	339.60
703.59	338.07
703.93	336.75
704.26	335.26
704.60	333.74
704.93	332.26
705.26	330.76
705.60	329.30
705.93	327.75
706.27	326.35
706.60	325.05
706.94	323.84
707.27	322.40
707.61	321.04
707.94	319.70
708.27	318.17
708.61	316.74
708.94	315.34
709.28	313.98
709.61	312.70
709.94	311.49
710.28	310.25
710.61	309.04
710.95	307.63
711.28	306.55
711.61	305.34
711.95	304.22
712.28	303.03
712.61	301.81
712.95	300.71
713.28	299.68
713.61	298.51
713.95	297.30
714.28	296.26
714.61	295.19
714.95	294.18
715.28	293.13
715.61	292.06
715.95	291.09
716.28	290.12
716.61	289.13
716.95	288.11
717.28	287.17
717.61	286.19
717.94	285.27
718.28	284.24
718.61	283.36
718.94	282.42
719.27	281.51
719.61	280.66
719.94	279.76
720.27	278.77
720.60	277.92
720.94	277.11
721.27	276.34
721.60	275.66
721.93	274.90
722.27	274.27
722.60	273.59
722.93	272.87
723.26	272.25
723.59	271.56
723.93	270.93
724.26	270.23
724.59	269.58
724.92	268.96
725.25	268.42
725.59	267.81
725.92	267.24
726.25	266.70
726.58	266.14
726.91	265.54
727.24	264.94
727.57	264.37
727.91	263.74
728.24	263.18
728.57	262.57
728.90	261.99
729.23	261.34
729.56	260.89
729.89	260.35
730.22	259.73
730.55	259.17
730.89	258.61
731.22	258.12
731.55	257.60
731.88	257.11
732.21	256.51
732.54	256.02
732.87	255.49
733.20	254.98
733.53	254.49
733.86	254.03
734.19	253.57
734.52	253.13
734.85	252.84
735.18	252.35
735.51	251.98
735.84	251.55
736.17	251.15
736.50	250.63
736.83	250.48
737.16	250.13
737.49	249.77
737.82	249.35
738.15	248.93
738.48	248.54
738.81	248.10
739.14	247.69
739.47	247.28
739.80	246.88
740.13	246.52
740.46	246.13
740.79	245.75
741.12	245.38
741.45	245.00
741.78	244.55
742.11	244.32
742.44	243.90
742.77	243.60
743.10	243.26
743.43	242.93
743.75	242.35
744.08	242.28
744.41	241.90
744.74	241.57
745.07	241.18
745.40	240.85
745.73	240.62
746.06	240.29
746.39	240.00
746.71	239.65
747.04	239.30
747.37	239.00
747.70	238.73
748.03	238.44
748.36	238.18
748.68	237.89
749.01	237.51
749.34	237.26
749.67	236.93
750.00	236.68
750.33	236.51
750.65	236.21
750.98	235.64
751.31	235.39
751.64	235.16
751.97	235.06
752.29	234.76
752.62	234.41
752.95	234.15
753.28	233.87
753.60	233.68
753.93	233.51
754.26	233.29
754.59	232.98
754.91	232.74
755.24	232.48
755.57	232.23
755.90	232.00
756.22	231.75
756.55	231.53
756.88	231.25
757.20	230.93
757.53	230.72
757.86	230.56
758.19	230.35
758.51	230.11
758.84	229.83
759.17	229.68
759.49	229.51
759.82	229.44
760.15	229.26
760.47	229.04
760.80	228.77
761.13	228.59
761.45	228.40
761.78	228.21
762.11	228.05
762.43	227.83
762.76	227.63
763.08	227.46
763.41	227.27
763.74	227.12
764.06	226.93
764.39	226.73
764.71	226.52
765.04	226.35
765.37	226.20
765.69	226.03
766.02	225.87
766.34	225.73
766.67	225.51
767.00	225.37
767.32	225.34
767.65	225.36
767.97	225.20
768.30	225.09
768.62	224.93
768.95	224.74
769.27	224.65
769.60	224.57
769.92	224.41
770.25	224.28
770.57	224.12
770.90	224.02
771.22	223.87
771.55	223.80
771.87	223.72
772.20	223.57
772.52	223.61
772.85	223.75
773.17	223.62
773.50	223.48
773.82	223.37
774.15	223.17
774.47	222.91
774.80	222.80
775.12	222.70
775.45	222.60
775.77	222.53
776.09	222.46
776.42	222.35
776.74	222.33
777.07	222.23
777.39	222.15
777.72	222.04
778.04	222.02
778.36	221.91
778.69	221.84
779.01	221.80
779.33	221.55
779.66	221.23
779.98	221.17
780.31	221.08
780.63	221.09
780.95	221.04
781.28	221.00
781.60	220.92
781.92	220.86
782.25	220.82
782.57	220.74
782.89	220.65
783.22	220.57
783.54	220.45
783.86	220.42
784.19	220.35
784.51	220.33
784.83	220.21
785.16	220.14
785.48	220.05
785.80	220.00
786.12	219.97
786.45	219.89
786.77	219.82
787.09	219.77
787.42	219.67
787.74	219.62
788.06	219.56
788.38	219.48
788.71	219.37
789.03	219.31
789.35	219.31
789.67	219.20
789.99	219.16
790.32	219.08
790.64	219.03
790.96	219.15
791.28	219.02
791.61	218.97
791.93	218.95
792.25	218.86
792.57	218.93
792.89	218.85
793.21	218.82
793.54	218.76
793.86	218.68
794.18	218.60
794.50	218.54
794.82	218.47
795.14	218.47
795.47	218.49
795.79	218.46
796.11	218.37
796.43	218.38
796.75	218.35
797.07	218.35
797.39	218.31
797.71	218.12
798.04	218.15
798.36	218.13
798.68	218.09
799.00	218.08
799.32	217.94
799.64	217.93
799.96	217.89
800.28	217.92
800.60	217.89
800.92	217.88
801.24	217.79
801.56	217.79
801.89	217.73
802.21	217.68
802.53	217.62
802.85	217.63
803.17	217.68
803.49	217.61
803.81	217.55
804.13	217.51
804.45	217.45
804.77	217.40
805.09	217.38
805.41	217.29
805.73	217.25
806.05	217.15
806.37	217.11
806.69	217.09
807.01	217.04
807.33	217.01
807.65	216.92
807.97	217.01
808.28	216.95
808.60	216.91
808.92	216.86
809.24	216.93
809.56	216.90
809.88	216.75
810.20	216.76
810.52	216.77
810.84	216.67
811.16	216.63
811.48	216.58
811.80	216.60
812.12	216.60
812.43	216.61
812.75	216.63
813.07	216.59
813.39	216.58
813.71	216.50
814.03	216.48
814.35	216.45
814.67	216.35
814.98	216.32
815.30	216.31
815.62	216.24
815.94	216.10
816.26	216.05
816.58	216.05
816.89	216.01
817.21	215.94
817.53	215.95
817.85	215.94
818.17	215.93
818.48	215.84
818.80	215.88
819.12	215.81
819.44	215.75
819.76	215.71
820.07	215.67
820.39	215.66
820.71	215.66
821.03	215.67
821.34	215.66
821.66	215.67
821.98	215.67
822.30	215.67
822.61	215.79
822.93	215.77
823.25	215.75
823.57	215.71
823.88	215.74
824.20	215.73
824.52	215.78
824.83	215.77
825.15	215.74
825.47	215.68
825.79	215.69
826.10	215.67
826.42	215.66
826.74	215.69
827.05	215.67
827.37	215.63
827.69	215.57
828.00	215.50
828.32	215.46
828.64	215.42
828.95	215.53
829.27	215.46
829.58	215.46
829.90	215.48
830.22	215.52
830.53	215.47
830.85	215.47
831.17	215.38
831.48	215.35
831.80	215.34
832.11	215.31
832.43	215.27
832.75	215.25
833.06	215.32
833.38	215.24
833.69	215.23
834.01	215.24
834.32	215.26
834.64	215.25
834.96	215.25
835.27	215.24
835.59	215.13
835.90	215.01
836.22	215.00
836.53	214.94
836.85	214.89
837.16	215.08
837.48	215.05
837.79	215.14
838.11	215.14
838.42	215.12
838.74	215.17
839.05	215.16
839.37	215.14
839.68	215.01
840.00	214.97
840.31	215.02
840.63	214.99
840.94	214.94
841.26	214.94
841.57	214.90
841.88	214.93
842.20	214.89
842.51	214.91
842.83	214.92
843.14	215.11
843.46	215.10
843.77	214.94
844.08	214.93
844.40	214.85
844.71	214.82
845.03	214.80
845.34	214.75
845.65	214.71
845.97	214.70
846.28	214.74
846.60	214.76
846.91	214.68
847.22	214.68
847.54	214.73
847.85	214.75
848.16	214.74
848.48	214.70
848.79	214.81
849.10	214.82
849.42	214.82
849.73	214.62
850.04	214.61
850.36	214.57
850.67	214.61
850.98	214.59
851.30	214.62
851.61	214.58
851.92	214.59
852.23	214.69
852.55	214.71
852.86	214.68
853.17	214.70
853.49	214.74
853.80	214.77
854.11	214.76
854.42	214.77
854.74	214.73
855.05	214.73
855.36	214.61
855.67	214.62
855.99	214.59
856.30	214.83
856.61	214.78
856.92	214.77
857.23	214.72
857.55	214.70
857.86	214.67
858.17	214.75
858.48	214.70
858.79	214.62
859.11	214.65
859.42	214.63
859.73	214.59
860.04	214.57
860.35	214.51
860.66	214.44
860.98	214.43
861.29	214.49
861.60	214.44
861.91	214.48
862.22	214.45
862.53	214.43
862.84	214.15
863.16	214.23
863.47	214.20
863.78	214.19
864.09	214.21
864.40	214.20
864.71	214.19
865.02	214.21
865.33	214.19
865.64	214.14
865.95	214.13
866.27	214.30
866.58	214.27
866.89	214.28
867.20	214.28
867.51	214.25
867.82	214.23
868.13	214.31
868.44	214.27
868.75	214.28
869.06	214.29
869.37	214.34
869.68	214.27
869.99	214.30
870.30	214.32
870.61	214.35
870.92	214.34
871.23	214.32
871.54	214.36
871.85	214.43
872.16	214.46
872.47	214.44
872.78	214.32
873.09	214.36
873.40	214.35
873.71	214.41
874.02	214.42
874.33	214.39
874.64	214.32
874.95	214.34
875.26	214.33
875.56	214.32
875.87	214.30
876.18	214.28
876.49	214.51
876.80	214.47
877.11	214.43
877.42	214.46
877.73	214.44
878.04	214.41
878.35	214.39
878.66	214.42
878.96	214.43
879.27	214.40
879.58	214.37
879.89	214.36
880.20	214.39
880.51	214.39
880.82	214.39
881.12	214.39
881.43	214.33
881.74	214.30
882.05	214.29
882.36	214.29
882.67	214.33
882.97	214.07
883.28	214.08
883.59	214.06
883.90	214.07
884.21	214.12
884.51	214.09
884.82	214.04
885.13	214.03
885.44	214.04
885.74	214.02
886.05	214.01
886.36	214.02
886.67	213.96
886.98	214.08
887.28	214.11
887.59	214.15
887.90	214.16
888.20	214.16
888.51	214.19
888.82	214.15
889.13	214.16
889.43	214.35
889.74	214.33
890.05	214.34
890.35	214.29
890.66	214.25
890.97	214.22
891.28	214.20
891.58	214.17
891.89	214.14
892.20	214.13
892.50	214.15
892.81	214.17
893.12	214.16
893.42	214.02
893.73	214.04
894.04	214.02
894.34	214.06
894.65	214.05
894.95	214.03
895.26	214.03
895.57	214.09
895.87	213.88
896.18	213.95
896.48	213.96
896.79	213.97
897.10	213.99
897.40	214.06
897.71	214.11
898.01	214.12
898.32	214.18
898.63	214.15
898.93	214.14
899.24	214.12
899.54	214.13
899.85	214.14
900.15	214.12
900.46	214.17
900.76	214.16
901.07	214.17
901.38	214.17
901.68	214.18
901.99	214.12
902.29	214.16
902.60	214.14
902.90	214.13
903.21	214.14
903.51	214.13
903.82	214.15
904.12	214.12
904.43	214.11
904.73	214.10
905.03	214.13
905.34	214.35
905.64	214.33
905.95	214.29
906.25	214.27
906.56	214.26
906.86	214.22
907.17	214.20
907.47	214.25
907.77	214.23
908.08	214.21
908.38	214.17
908.69	214.16
908.99	214.16
909.30	214.17
909.60	214.16
909.90	214.13
910.21	214.08
910.51	214.06
910.81	214.07
911.12	214.07
911.42	214.06
911.73	213.83
912.03	213.85
912.33	213.91
912.64	213.92
912.94	213.90
913.24	213.88
913.55	213.88
913.85	213.82
914.15	213.89
914.46	213.93
914.76	213.93
915.06	213.90
915.37	213.88
915.67	213.89
915.97	213.88
916.27	213.87
916.58	213.86
916.88	213.86
917.18	213.83
917.49	213.98
917.79	213.96
918.09	213.99
918.39	214.01
918.70	213.99
919.00	214.01
919.30	214.07
919.60	214.07
919.91	214.03
920.21	214.05
920.51	213.96
920.81	213.92
921.12	213.98
921.42	213.97
921.72	214.01
922.02	214.00
922.32	214.03
922.63	214.02
922.93	214.11
923.23	214.14
923.53	214.12
923.83	213.94
924.13	213.98
924.44	213.98
924.74	214.02
925.04	214.08
925.34	214.03
925.64	213.97
925.94	213.92
926.24	214.05
926.55	214.03
926.85	214.09
927.15	214.07
927.45	214.02
927.75	214.03
928.05	214.02
928.35	214.00
928.65	214.02
928.95	214.02
929.26	213.96
929.56	213.95
929.86	213.97
930.16	213.96
930.46	213.93
930.76	213.94
931.06	213.86
931.36	213.76
931.66	213.84
931.96	213.86
932.26	213.87
932.56	213.78
932.86	213.80
933.16	213.80
933.46	213.80
933.76	213.81
934.06	213.84
934.36	213.87
934.66	213.83
934.96	213.79
935.26	213.84
935.56	213.85
935.86	213.82
936.16	213.80
936.46	213.79
936.76	213.77
937.06	213.72
937.36	213.73
937.66	213.75
937.96	213.74
938.26	213.71
938.56	213.76
938.86	213.76
939.16	213.82
939.46	213.83
939.76	213.85
940.06	213.82
940.35	213.76
940.65	213.69
940.95	213.75
941.25	213.69
941.55	213.65
941.85	213.67
942.15	213.76
942.45	213.77
942.75	213.80
943.04	213.79
943.34	213.85
943.64	213.84
943.94	213.82
944.24	213.79
944.54	213.80
944.84	213.76
945.13	213.75
945.43	213.70
945.73	213.68
946.03	213.66
946.33	213.62
946.62	213.64
946.92	213.62
947.22	213.61
947.52	213.65
947.82	213.70
948.11	213.62
948.41	213.56
948.71	213.55
949.01	213.57
949.31	213.59
949.60	213.56
949.90	213.58
950.20	213.56
950.50	213.60
950.79	213.56
951.09	213.60
951.39	213.58
951.69	213.57
951.98	213.61
952.28	213.65
952.58	213.66
952.87	213.66
953.17	213.70
953.47	213.71
953.76	213.70
954.06	213.66
954.36	213.67
954.66	213.64
954.95	213.71
955.25	213.71
955.55	213.74
955.84	213.68
956.14	213.70
956.44	213.71
956.73	213.67
957.03	213.71
957.32	213.70
957.62	213.68
957.92	213.74
958.21	213.69
958.51	213.95
958.81	213.99
959.10	214.00
959.40	214.05
959.69	214.07
959.99	214.12
960.29	214.12
960.58	214.11
960.88	214.20
961.17	214.18
961.47	214.18
961.76	214.15
962.06	214.22
962.36	214.17
962.65	214.17
962.95	214.20
963.24	214.18
963.54	214.19
963.83	214.24
964.13	214.22
964.42	214.19
964.72	213.97
965.01	213.99
965.31	213.98
965.60	213.94
965.90	214.04
966.19	213.98
966.49	213.98
966.78	213.94
967.08	213.92
967.37	213.92
967.67	213.89
967.96	213.92
968.26	213.92
968.55	213.95
968.85	213.97
969.14	213.96
969.43	213.97
969.73	213.95
970.02	213.93
970.32	213.93
970.61	213.91
970.91	213.84
971.20	213.79
971.49	213.78
971.79	213.77
972.08	213.64
972.38	213.65
972.67	213.66
972.96	213.70
973.26	213.67
973.55	213.70
973.85	213.69
974.14	213.67
974.43	213.70
974.73	213.66
975.02	213.63
975.31	213.62
975.61	213.59
975.90	213.56
976.19	213.54
976.49	213.52
976.78	213.57
977.07	213.59
977.37	213.59
977.66	213.63
977.95	213.60
978.24	213.59
978.54	213.62
978.83	213.59
979.12	213.60
979.42	213.59
979.71	213.58
980.00	213.58
980.29	213.59
980.59	213.56
980.88	213.64
981.17	213.61
981.46	213.60
981.76	213.61
982.05	213.66
982.34	213.68
982.63	213.71
982.93	213.71
983.22	213.77
983.51	213.80
983.80	213.82
984.09	213.83
984.39	213.85
984.68	213.82
984.97	213.81
985.26	213.77
985.55	213.81
985.85	213.72
986.14	213.75
986.43	213.78
986.72	213.74
987.01	213.65
987.30	213.70
987.59	213.71
987.89	213.73
988.18	213.69
988.47	213.65
988.76	213.61
989.05	213.58
989.34	213.55
989.63	213.62
989.92	213.60
990.22	213.57
990.51	213.57
990.80	213.56
991.09	213.60
991.38	213.64
991.67	213.59
991.96	213.62
992.25	213.60
992.54	213.53
992.83	213.54
993.12	213.53
993.41	213.55
993.70	213.66
993.99	213.68
994.28	213.70
994.58	213.74
994.87	213.73
995.16	213.72
995.45	213.66
995.74	213.57
996.03	213.59
996.32	213.68
996.61	213.71
996.90	213.70
997.19	213.70
997.48	213.68
997.77	213.66
998.06	213.66
998.34	213.65
998.63	213.66
998.92	213.68
999.21	213.73
999.50	213.73
999.79	213.64
1000.08	213.61
1000.37	213.62
1000.66	213.60
1000.95	213.63
1001.24	213.63
1001.53	213.69
1001.82	213.66
1002.11	213.60
1002.40	213.57
1002.68	213.61
1002.97	213.79
1003.26	213.77
1003.55	213.77
1003.84	213.81
1004.13	213.89
1004.42	213.90
1004.71	213.92
1004.99	213.93
1005.28	213.96
1005.57	213.94
1005.86	213.91
1006.15	213.89
1006.44	213.84
1006.72	213.86
1007.01	213.82
1007.30	213.84
1007.59	213.82
1007.88	213.84
1008.17	213.87
1008.45	213.82
1008.74	213.71
1009.03	213.59
1009.32	213.61
1009.60	213.60
1009.89	213.58
1010.18	213.50
1010.47	213.49
1010.76	213.47
1011.04	213.45
1011.33	213.46
1011.62	213.46
1011.91	213.49
1012.19	213.53
1012.48	213.58
1012.77	213.58
1013.05	213.67
1013.34	213.70
1013.63	213.70
1013.92	213.71
1014.20	213.71
1014.49	213.74
1014.78	213.79
1015.06	213.74
1015.35	213.74
1015.64	213.82
1015.92	213.86
1016.21	213.87
1016.50	213.83
1016.78	213.87
1017.07	213.85
1017.36	213.78
1017.64	213.74
1017.93	213.75
1018.22	213.72
1018.50	213.70
1018.79	213.68
1019.08	213.59
1019.36	213.59
1019.65	213.56
1019.93	213.60
1020.22	213.64
1020.51	213.76
1020.79	213.70
1021.08	213.57
1021.36	213.36
1021.65	213.42
1021.94	213.21
1022.22	213.98
1022.51	213.21
1022.79	214.46
1023.08	214.27
1023.36	216.37
1023.65	212.72
>>>>>End Processed Spectral Data<<<<<
