SpectraSuite Data File
++++++++++++++++++++++++++++++++++++
Date: Tue Jan 29 16:37:10 EST 2013
User: group
Dark Spectrum Present: No
Reference Spectrum Present: No
Number of Sampled Component Spectra: 1
Spectrometers: USB2E7196
Integration Time (usec): 65000 (USB2E7196)
Spectra Averaged: 100 (USB2E7196)
Boxcar Smoothing: 10 (USB2E7196)
Correct for Electrical Dark: No (USB2E7196)
Strobe/Lamp Enabled: No (USB2E7196)
Correct for Detector Non-linearity: No (USB2E7196)
Correct for Stray Light: No (USB2E7196)
Number of Pixels in Processed Spectrum: 2048
>>>>>Begin Processed Spectral Data<<<<<
339.09	0.00
339.48	201.56
339.86	203.49
340.24	204.41
340.63	205.57
341.01	210.94
341.39	208.72
341.78	210.36
342.16	211.89
342.54	211.83
342.93	201.09
343.31	211.23
343.69	211.79
344.07	212.23
344.46	212.70
344.84	213.15
345.22	213.29
345.60	213.58
345.99	213.78
346.37	213.95
346.75	214.07
347.13	214.15
347.52	214.21
347.90	214.30
348.28	214.33
348.66	214.44
349.05	214.42
349.43	214.44
349.81	214.50
350.19	214.58
350.57	214.64
350.96	214.73
351.34	214.88
351.72	214.98
352.10	215.12
352.48	215.17
352.87	215.16
353.25	215.26
353.63	215.30
354.01	215.37
354.39	215.40
354.77	215.49
355.15	215.59
355.54	215.71
355.92	215.70
356.30	215.82
356.68	216.00
357.06	216.09
357.44	216.17
357.82	216.21
358.20	216.31
358.58	216.37
358.97	216.43
359.35	216.51
359.73	216.61
360.11	216.66
360.49	216.74
360.87	216.82
361.25	216.87
361.63	217.00
362.01	217.05
362.39	217.07
362.77	217.12
363.15	217.14
363.53	217.15
363.91	217.18
364.29	217.16
364.67	216.99
365.05	217.00
365.43	217.05
365.81	217.06
366.19	217.15
366.57	217.27
366.95	217.29
367.33	217.24
367.71	217.21
368.09	217.23
368.47	217.24
368.85	217.23
369.23	217.25
369.61	217.15
369.99	217.19
370.37	217.20
370.75	217.31
371.13	217.26
371.51	217.21
371.89	217.23
372.27	217.21
372.65	217.23
373.03	217.21
373.41	217.16
373.78	217.14
374.16	216.99
374.54	216.91
374.92	216.81
375.30	216.79
375.68	216.71
376.06	216.73
376.44	216.68
376.82	216.66
377.19	216.62
377.57	216.59
377.95	216.48
378.33	216.40
378.71	216.21
379.09	216.21
379.47	216.20
379.84	216.12
380.22	216.07
380.60	215.98
380.98	215.94
381.36	215.89
381.73	215.82
382.11	215.83
382.49	215.78
382.87	215.75
383.25	215.68
383.62	215.90
384.00	215.79
384.38	215.75
384.76	215.76
385.13	215.79
385.51	215.78
385.89	215.70
386.27	215.72
386.64	215.69
387.02	215.63
387.40	215.60
387.78	215.59
388.15	215.58
388.53	215.55
388.91	215.52
389.29	215.50
389.66	215.51
390.04	215.47
390.42	215.47
390.79	215.43
391.17	215.43
391.55	215.17
391.92	215.16
392.30	215.15
392.68	215.09
393.05	215.08
393.43	215.06
393.81	215.10
394.18	215.08
394.56	215.10
394.94	215.15
395.31	215.11
395.69	215.19
396.06	215.21
396.44	215.25
396.82	215.26
397.19	215.36
397.57	215.36
397.95	215.44
398.32	215.46
398.70	215.56
399.07	215.65
399.45	215.68
399.82	215.72
400.20	215.77
400.58	215.83
400.95	215.80
401.33	215.92
401.70	216.11
402.08	216.18
402.45	216.26
402.83	216.40
403.20	216.51
403.58	216.58
403.95	216.74
404.33	216.91
404.71	217.05
405.08	217.31
405.46	217.49
405.83	217.65
406.21	217.82
406.58	218.01
406.96	218.21
407.33	218.47
407.70	218.77
408.08	219.26
408.45	219.61
408.83	220.03
409.20	220.35
409.58	220.66
409.95	221.15
410.33	221.66
410.70	222.06
411.08	222.66
411.45	223.23
411.82	223.78
412.20	224.47
412.57	225.29
412.95	225.84
413.32	226.68
413.69	227.55
414.07	228.47
414.44	229.50
414.82	230.56
415.19	231.78
415.56	233.00
415.94	234.17
416.31	235.61
416.68	237.00
417.06	238.61
417.43	240.15
417.81	241.89
418.18	243.63
418.55	245.62
418.93	247.62
419.30	249.73
419.67	251.96
420.04	254.22
420.42	256.62
420.79	259.45
421.16	262.20
421.54	265.08
421.91	268.07
422.28	271.18
422.66	274.44
423.03	277.66
423.40	281.02
423.77	284.59
424.15	288.27
424.52	292.11
424.89	296.34
425.26	300.43
425.64	304.34
426.01	308.64
426.38	313.10
426.75	317.65
427.13	322.37
427.50	327.38
427.87	332.64
428.24	337.84
428.61	342.84
428.99	348.40
429.36	354.42
429.73	360.32
430.10	366.25
430.47	372.40
430.85	378.73
431.22	385.45
431.59	392.61
431.96	399.42
432.33	407.00
432.70	414.25
433.08	422.80
433.45	430.85
433.82	438.94
434.19	447.86
434.56	456.64
434.93	464.99
435.30	473.26
435.68	482.38
436.05	491.40
436.42	500.36
436.79	508.51
437.16	517.35
437.53	526.69
437.90	535.83
438.27	544.78
438.64	554.08
439.01	562.59
439.38	570.15
439.75	577.51
440.13	585.88
440.50	593.89
440.87	600.29
441.24	606.94
441.61	614.29
441.98	619.65
442.35	625.97
442.72	632.34
443.09	638.45
443.46	642.24
443.83	644.77
444.20	646.89
444.57	650.08
444.94	651.54
445.31	652.96
445.68	654.27
446.05	654.92
446.42	654.09
446.79	653.15
447.16	652.10
447.53	651.31
447.90	647.97
448.27	644.64
448.64	640.08
449.01	636.73
449.37	630.80
449.74	625.14
450.11	618.28
450.48	610.85
450.85	603.39
451.22	596.84
451.59	590.72
451.96	584.94
452.33	577.02
452.70	569.88
453.07	561.32
453.43	552.73
453.80	544.39
454.17	536.39
454.54	528.83
454.91	520.63
455.28	512.63
455.65	505.19
456.02	497.62
456.38	491.26
456.75	483.36
457.12	476.76
457.49	470.19
457.86	463.90
458.23	458.52
458.59	452.52
458.96	446.54
459.33	441.19
459.70	435.79
460.07	431.53
460.43	426.61
460.80	422.08
461.17	418.11
461.54	413.85
461.91	409.82
462.27	405.70
462.64	402.30
463.01	398.46
463.38	394.84
463.74	391.20
464.11	387.90
464.48	385.12
464.85	382.03
465.21	379.59
465.58	377.00
465.95	373.84
466.32	371.25
466.68	368.65
467.05	366.04
467.42	363.50
467.78	360.79
468.15	358.21
468.52	356.26
468.88	353.74
469.25	351.53
469.62	349.72
469.98	347.78
470.35	345.90
470.72	344.21
471.08	342.35
471.45	340.82
471.82	339.28
472.18	337.58
472.55	336.35
472.92	334.98
473.28	333.73
473.65	332.62
474.02	331.50
474.38	330.62
474.75	329.87
475.11	329.03
475.48	328.52
475.85	328.06
476.21	327.62
476.58	327.29
476.94	327.08
477.31	326.77
477.67	326.50
478.04	326.33
478.41	326.30
478.77	326.44
479.14	326.37
479.50	326.49
479.87	326.81
480.23	327.13
480.60	327.36
480.96	327.64
481.33	328.18
481.69	328.75
482.06	329.19
482.42	329.68
482.79	330.32
483.15	331.05
483.52	332.02
483.88	332.90
484.25	333.82
484.61	334.80
484.98	335.82
485.34	337.07
485.71	338.49
486.07	339.93
486.44	341.30
486.80	342.94
487.17	344.60
487.53	346.43
487.90	348.29
488.26	350.31
488.62	352.45
488.99	354.50
489.35	356.68
489.72	359.13
490.08	361.63
490.44	364.17
490.81	366.88
491.17	369.61
491.54	372.58
491.90	375.60
492.26	378.89
492.63	382.29
492.99	385.82
493.36	389.49
493.72	393.37
494.08	397.37
494.45	401.62
494.81	406.05
495.17	410.46
495.54	415.23
495.90	420.05
496.26	425.00
496.63	430.18
496.99	435.60
497.35	441.13
497.72	446.99
498.08	452.94
498.44	459.01
498.80	465.45
499.17	471.96
499.53	478.72
499.89	485.60
500.26	492.59
500.62	499.75
500.98	507.17
501.34	514.67
501.71	522.44
502.07	530.24
502.43	538.21
502.79	546.38
503.16	554.74
503.52	563.40
503.88	572.22
504.24	581.23
504.60	590.32
504.97	599.61
505.33	608.91
505.69	618.78
506.05	628.69
506.41	638.51
506.78	648.62
507.14	658.85
507.50	669.37
507.86	680.13
508.22	690.94
508.59	701.62
508.95	712.77
509.31	724.10
509.67	735.57
510.03	747.08
510.39	758.86
510.75	770.71
511.12	782.68
511.48	794.77
511.84	807.06
512.20	819.34
512.56	832.04
512.92	844.89
513.28	857.56
513.64	870.44
514.00	883.37
514.37	896.44
514.73	909.66
515.09	922.72
515.45	935.65
515.81	948.80
516.17	962.36
516.53	975.70
516.89	988.82
517.25	1002.08
517.61	1015.66
517.97	1029.15
518.33	1042.43
518.69	1056.03
519.05	1069.83
519.41	1083.61
519.77	1097.68
520.13	1111.08
520.49	1124.36
520.85	1137.89
521.21	1151.27
521.57	1164.96
521.93	1178.10
522.29	1191.84
522.65	1205.51
523.01	1219.19
523.37	1232.38
523.73	1245.63
524.09	1258.75
524.45	1272.38
524.81	1285.94
525.17	1299.25
525.53	1312.60
525.89	1326.05
526.25	1339.25
526.61	1352.21
526.97	1365.45
527.33	1378.46
527.68	1392.10
528.04	1405.75
528.40	1418.91
528.76	1432.40
529.12	1445.59
529.48	1459.09
529.84	1471.64
530.20	1484.45
530.56	1497.27
530.91	1510.63
531.27	1523.73
531.63	1536.70
531.99	1549.45
532.35	1561.83
532.71	1574.48
533.07	1587.52
533.42	1599.87
533.78	1612.04
534.14	1624.19
534.50	1635.46
534.86	1647.19
535.21	1658.15
535.57	1669.73
535.93	1681.24
536.29	1692.38
536.65	1703.87
537.00	1714.79
537.36	1726.26
537.72	1737.44
538.08	1748.93
538.44	1760.04
538.79	1771.15
539.15	1782.21
539.51	1793.12
539.87	1804.57
540.22	1815.50
540.58	1826.38
540.94	1837.36
541.29	1847.90
541.65	1857.84
542.01	1868.48
542.37	1878.55
542.72	1888.84
543.08	1898.64
543.44	1909.24
543.79	1918.75
544.15	1928.22
544.51	1938.37
544.87	1948.31
545.22	1957.64
545.58	1966.56
545.94	1975.52
546.29	1984.12
546.65	1992.57
547.01	2000.96
547.36	2008.74
547.72	2016.48
548.07	2024.28
548.43	2032.11
548.79	2040.09
549.14	2048.20
549.50	2056.67
549.86	2064.64
550.21	2072.03
550.57	2079.85
550.92	2086.56
551.28	2094.03
551.64	2101.43
551.99	2109.09
552.35	2116.33
552.70	2123.21
553.06	2130.05
553.41	2136.41
553.77	2143.14
554.13	2149.37
554.48	2156.35
554.84	2163.49
555.19	2170.14
555.55	2176.48
555.90	2182.78
556.26	2189.57
556.61	2195.67
556.97	2200.61
557.32	2206.49
557.68	2213.08
558.03	2218.73
558.39	2224.10
558.74	2230.02
559.10	2235.63
559.45	2241.16
559.81	2246.69
560.16	2252.29
560.52	2258.14
560.87	2264.67
561.23	2270.47
561.58	2277.29
561.94	2282.59
562.29	2287.28
562.64	2293.30
563.00	2298.96
563.35	2304.54
563.71	2310.28
564.06	2316.13
564.42	2322.01
564.77	2327.01
565.12	2332.15
565.48	2337.48
565.83	2343.18
566.19	2348.69
566.54	2354.12
566.89	2358.78
567.25	2363.23
567.60	2369.02
567.96	2374.16
568.31	2378.50
568.66	2382.65
569.02	2386.63
569.37	2390.36
569.72	2394.81
570.08	2398.39
570.43	2401.42
570.78	2404.56
571.14	2406.95
571.49	2410.03
571.84	2413.61
572.20	2416.48
572.55	2419.44
572.90	2421.66
573.26	2424.28
573.61	2426.74
573.96	2428.68
574.31	2430.46
574.67	2432.35
575.02	2432.98
575.37	2434.34
575.72	2435.04
576.08	2436.52
576.43	2436.49
576.78	2436.88
577.13	2438.36
577.49	2439.47
577.84	2440.53
578.19	2441.60
578.54	2442.08
578.90	2442.62
579.25	2442.24
579.60	2442.14
579.95	2441.26
580.30	2441.15
580.66	2440.41
581.01	2438.75
581.36	2436.30
581.71	2434.86
582.06	2433.67
582.42	2432.80
582.77	2430.38
583.12	2428.66
583.47	2427.22
583.82	2426.46
584.17	2425.02
584.53	2422.84
584.88	2420.55
585.23	2418.57
585.58	2416.38
585.93	2414.35
586.28	2412.14
586.63	2409.79
586.98	2407.47
587.34	2405.39
587.69	2402.91
588.04	2400.80
588.39	2399.05
588.74	2396.38
589.09	2393.46
589.44	2390.09
589.79	2387.40
590.14	2385.32
590.49	2382.57
590.84	2378.55
591.19	2375.37
591.54	2372.08
591.89	2367.91
592.25	2364.48
592.60	2360.24
592.95	2356.05
593.30	2351.76
593.65	2347.20
594.00	2342.58
594.35	2339.60
594.70	2334.84
595.05	2330.31
595.40	2324.62
595.75	2318.84
596.10	2315.29
596.45	2310.58
596.80	2305.98
597.15	2300.67
597.50	2294.85
597.85	2289.75
598.19	2284.42
598.54	2278.52
598.89	2273.26
599.24	2268.56
599.59	2262.41
599.94	2256.53
600.29	2250.36
600.64	2244.36
600.99	2237.51
601.34	2232.08
601.69	2224.86
602.04	2218.40
602.39	2211.58
602.74	2205.38
603.08	2199.87
603.43	2193.20
603.78	2186.17
604.13	2179.10
604.48	2171.71
604.83	2165.36
605.18	2158.99
605.53	2152.16
605.87	2145.19
606.22	2138.37
606.57	2130.47
606.92	2122.59
607.27	2115.52
607.62	2108.83
607.96	2101.76
608.31	2095.33
608.66	2087.38
609.01	2079.90
609.36	2072.73
609.70	2064.95
610.05	2057.27
610.40	2048.89
610.75	2040.50
611.10	2032.82
611.44	2023.84
611.79	2015.15
612.14	2005.21
612.49	1994.57
612.83	1985.13
613.18	1975.73
613.53	1966.27
613.88	1956.62
614.22	1947.84
614.57	1937.94
614.92	1927.34
615.27	1917.07
615.61	1906.97
615.96	1897.34
616.31	1887.60
616.65	1878.21
617.00	1868.32
617.35	1858.58
617.70	1848.75
618.04	1838.83
618.39	1828.63
618.74	1819.10
619.08	1809.47
619.43	1800.81
619.78	1792.45
620.12	1783.83
620.47	1774.24
620.82	1763.98
621.16	1754.25
621.51	1744.30
621.85	1734.45
622.20	1724.19
622.55	1713.71
622.89	1703.65
623.24	1693.96
623.59	1684.16
623.93	1673.97
624.28	1664.28
624.62	1654.19
624.97	1643.97
625.32	1634.15
625.66	1625.19
626.01	1616.39
626.35	1607.00
626.70	1597.00
627.04	1586.98
627.39	1576.94
627.73	1567.72
628.08	1558.75
628.43	1549.09
628.77	1539.99
629.12	1531.13
629.46	1523.35
629.81	1514.98
630.15	1505.43
630.50	1495.58
630.84	1485.19
631.19	1475.38
631.53	1466.27
631.88	1456.11
632.22	1446.11
632.57	1436.82
632.91	1426.73
633.26	1416.83
633.60	1407.34
633.95	1398.04
634.29	1388.57
634.64	1379.23
634.98	1369.32
635.32	1360.06
635.67	1351.59
636.01	1342.22
636.36	1332.53
636.70	1322.89
637.05	1313.50
637.39	1304.60
637.73	1296.02
638.08	1288.50
638.42	1280.27
638.77	1271.37
639.11	1263.14
639.45	1255.38
639.80	1246.71
640.14	1238.03
640.49	1229.17
640.83	1220.33
641.17	1212.13
641.52	1204.02
641.86	1195.40
642.20	1187.42
642.55	1178.70
642.89	1169.89
643.23	1161.35
643.58	1153.26
643.92	1144.15
644.26	1135.53
644.61	1127.15
644.95	1118.31
645.29	1109.00
645.64	1099.86
645.98	1091.41
646.32	1083.49
646.66	1074.94
647.01	1066.61
647.35	1058.44
647.69	1050.08
648.04	1041.60
648.38	1032.73
648.72	1023.94
649.06	1015.46
649.41	1007.29
649.75	999.39
650.09	991.45
650.43	983.32
650.78	974.93
651.12	967.29
651.46	959.78
651.80	952.45
652.14	945.15
652.49	937.65
652.83	930.24
653.17	922.48
653.51	914.76
653.85	907.42
654.20	900.20
654.54	892.74
654.88	885.51
655.22	878.37
655.56	871.33
655.90	864.44
656.25	857.75
656.59	850.86
656.93	843.82
657.27	836.70
657.61	829.81
657.95	823.63
658.29	817.64
658.64	811.56
658.98	805.09
659.32	798.53
659.66	792.17
660.00	785.81
660.34	779.71
660.68	773.63
661.02	767.24
661.36	761.26
661.70	755.35
662.05	749.67
662.39	744.23
662.73	738.72
663.07	733.31
663.41	727.60
663.75	721.81
664.09	716.07
664.43	710.53
664.77	705.08
665.11	699.24
665.45	693.29
665.79	687.39
666.13	681.68
666.47	676.10
666.81	670.63
667.15	665.20
667.49	659.99
667.83	654.71
668.17	649.55
668.51	644.43
668.85	639.48
669.19	634.54
669.53	629.45
669.87	624.36
670.21	619.60
670.55	614.89
670.89	610.42
671.23	606.07
671.57	601.70
671.91	597.38
672.25	593.18
672.58	589.02
672.92	584.91
673.26	580.98
673.60	577.09
673.94	573.25
674.28	569.68
674.62	565.91
674.96	562.13
675.30	558.60
675.64	554.93
675.97	551.34
676.31	547.68
676.65	544.00
676.99	540.53
677.33	536.61
677.67	532.92
678.01	529.03
678.34	525.34
678.68	521.80
679.02	518.17
679.36	514.44
679.70	510.76
680.04	507.18
680.37	503.66
680.71	500.29
681.05	497.07
681.39	493.74
681.73	490.51
682.06	487.42
682.40	484.24
682.74	480.94
683.08	477.67
683.42	474.43
683.75	471.42
684.09	468.32
684.43	465.49
684.77	462.53
685.10	459.66
685.44	456.75
685.78	453.76
686.12	450.93
686.45	448.19
686.79	445.51
687.13	442.96
687.46	440.26
687.80	437.56
688.14	434.68
688.48	432.03
688.81	429.25
689.15	426.62
689.49	424.00
689.82	421.39
690.16	418.77
690.50	416.29
690.83	413.80
691.17	411.22
691.51	408.74
691.84	406.43
692.18	404.14
692.52	401.91
692.85	399.74
693.19	397.56
693.52	395.39
693.86	393.15
694.20	390.93
694.53	388.76
694.87	386.60
695.21	384.42
695.54	382.22
695.88	380.10
696.21	377.87
696.55	375.69
696.88	373.65
697.22	371.63
697.56	369.68
697.89	367.71
698.23	365.94
698.56	364.12
698.90	362.36
699.23	360.47
699.57	358.55
699.90	356.68
700.24	354.82
700.58	353.01
700.91	351.34
701.25	349.70
701.58	348.06
701.92	346.38
702.25	344.75
702.59	343.09
702.92	341.49
703.26	339.93
703.59	338.43
703.93	337.14
704.26	335.71
704.60	334.19
704.93	332.68
705.26	331.11
705.60	329.59
705.93	328.06
706.27	326.71
706.60	325.45
706.94	324.19
707.27	322.82
707.61	321.48
707.94	320.08
708.27	318.58
708.61	317.14
708.94	315.76
709.28	314.48
709.61	313.24
709.94	312.00
710.28	310.73
710.61	309.49
710.95	308.05
711.28	306.95
711.61	305.73
711.95	304.59
712.28	303.43
712.61	302.25
712.95	301.13
713.28	300.03
713.61	298.85
713.95	297.66
714.28	296.61
714.61	295.52
714.95	294.50
715.28	293.47
715.61	292.43
715.95	291.46
716.28	290.48
716.61	289.44
716.95	288.44
717.28	287.49
717.61	286.52
717.94	285.56
718.28	284.53
718.61	283.68
718.94	282.76
719.27	281.87
719.61	281.06
719.94	280.19
720.27	279.22
720.60	278.34
720.94	277.53
721.27	276.74
721.60	276.02
721.93	275.26
722.27	274.57
722.60	273.92
722.93	273.20
723.26	272.49
723.59	271.78
723.93	271.15
724.26	270.52
724.59	269.85
724.92	269.26
725.25	268.71
725.59	268.10
725.92	267.56
726.25	267.01
726.58	266.36
726.91	265.73
727.24	265.18
727.57	264.62
727.91	263.98
728.24	263.42
728.57	262.79
728.90	262.21
729.23	261.56
729.56	261.11
729.89	260.56
730.22	259.98
730.55	259.44
730.89	258.89
731.22	258.35
731.55	257.86
731.88	257.31
732.21	256.71
732.54	256.14
732.87	255.63
733.20	255.13
733.53	254.69
733.86	254.23
734.19	253.69
734.52	253.23
734.85	252.93
735.18	252.47
735.51	252.12
735.84	251.73
736.17	251.36
736.50	250.77
736.83	250.59
737.16	250.21
737.49	249.84
737.82	249.39
738.15	249.01
738.48	248.61
738.81	248.24
739.14	247.83
739.47	247.45
739.80	247.10
740.13	246.75
740.46	246.33
740.79	245.96
741.12	245.63
741.45	245.25
741.78	244.84
742.11	244.54
742.44	244.14
742.77	243.78
743.10	243.46
743.43	243.14
743.75	242.59
744.08	242.50
744.41	242.11
744.74	241.77
745.07	241.39
745.40	241.09
745.73	240.80
746.06	240.48
746.39	240.16
746.71	239.76
747.04	239.39
747.37	239.09
747.70	238.82
748.03	238.52
748.36	238.28
748.68	237.95
749.01	237.61
749.34	237.32
749.67	237.03
750.00	236.70
750.33	236.58
750.65	236.29
750.98	235.78
751.31	235.54
751.64	235.31
751.97	235.20
752.29	234.87
752.62	234.55
752.95	234.29
753.28	234.02
753.60	233.78
753.93	233.63
754.26	233.38
754.59	233.07
754.91	232.84
755.24	232.56
755.57	232.35
755.90	232.12
756.22	231.88
756.55	231.63
756.88	231.42
757.20	231.05
757.53	230.81
757.86	230.59
758.19	230.40
758.51	230.19
758.84	229.88
759.17	229.70
759.49	229.51
759.82	229.45
760.15	229.31
760.47	229.13
760.80	228.86
761.13	228.73
761.45	228.52
761.78	228.33
762.11	228.16
762.43	227.95
762.76	227.76
763.08	227.61
763.41	227.44
763.74	227.29
764.06	227.13
764.39	226.96
764.71	226.80
765.04	226.65
765.37	226.51
765.69	226.33
766.02	226.19
766.34	226.02
766.67	225.82
767.00	225.66
767.32	225.62
767.65	225.60
767.97	225.45
768.30	225.35
768.62	225.23
768.95	225.08
769.27	224.94
769.60	224.86
769.92	224.73
770.25	224.56
770.57	224.40
770.90	224.29
771.22	224.17
771.55	224.05
771.87	223.95
772.20	223.82
772.52	223.88
772.85	223.99
773.17	223.89
773.50	223.76
773.82	223.67
774.15	223.49
774.47	223.27
774.80	223.14
775.12	223.05
775.45	222.97
775.77	222.88
776.09	222.82
776.42	222.73
776.74	222.70
777.07	222.63
777.39	222.53
777.72	222.44
778.04	222.37
778.36	222.28
778.69	222.18
779.01	222.11
779.33	221.85
779.66	221.56
779.98	221.52
780.31	221.42
780.63	221.42
780.95	221.38
781.28	221.31
781.60	221.22
781.92	221.11
782.25	221.02
782.57	220.95
782.89	220.88
783.22	220.80
783.54	220.68
783.86	220.64
784.19	220.59
784.51	220.58
784.83	220.50
785.16	220.43
785.48	220.37
785.80	220.31
786.12	220.26
786.45	220.19
786.77	220.10
787.09	220.06
787.42	219.93
787.74	219.86
788.06	219.80
788.38	219.73
788.71	219.70
789.03	219.63
789.35	219.61
789.67	219.51
789.99	219.44
790.32	219.37
790.64	219.35
790.96	219.45
791.28	219.33
791.61	219.27
791.93	219.22
792.25	219.13
792.57	219.22
792.89	219.15
793.21	219.10
793.54	219.05
793.86	218.94
794.18	218.86
794.50	218.78
794.82	218.75
795.14	218.74
795.47	218.73
795.79	218.67
796.11	218.59
796.43	218.56
796.75	218.53
797.07	218.48
797.39	218.41
797.71	218.23
798.04	218.21
798.36	218.17
798.68	218.14
799.00	218.16
799.32	218.02
799.64	218.03
799.96	218.00
800.28	218.02
800.60	218.00
800.92	217.98
801.24	217.92
801.56	217.91
801.89	217.86
802.21	217.84
802.53	217.77
802.85	217.78
803.17	217.83
803.49	217.77
803.81	217.73
804.13	217.68
804.45	217.65
804.77	217.63
805.09	217.61
805.41	217.56
805.73	217.50
806.05	217.42
806.37	217.33
806.69	217.28
807.01	217.20
807.33	217.22
807.65	217.13
807.97	217.22
808.28	217.15
808.60	217.11
808.92	217.06
809.24	217.18
809.56	217.11
809.88	217.03
810.20	217.04
810.52	217.05
810.84	217.01
811.16	216.97
811.48	216.94
811.80	217.00
812.12	216.96
812.43	216.96
812.75	216.93
813.07	216.93
813.39	216.93
813.71	216.90
814.03	216.82
814.35	216.83
814.67	216.69
814.98	216.65
815.30	216.64
815.62	216.59
815.94	216.44
816.26	216.44
816.58	216.36
816.89	216.32
817.21	216.26
817.53	216.25
817.85	216.20
818.17	216.17
818.48	216.04
818.80	216.09
819.12	216.04
819.44	215.99
819.76	215.96
820.07	215.92
820.39	215.91
820.71	215.90
821.03	215.89
821.34	215.94
821.66	215.94
821.98	215.95
822.30	215.91
822.61	216.02
822.93	215.98
823.25	215.97
823.57	215.94
823.88	215.96
824.20	215.95
824.52	215.99
824.83	215.97
825.15	215.94
825.47	215.89
825.79	215.88
826.10	215.89
826.42	215.85
826.74	215.90
827.05	215.86
827.37	215.88
827.69	215.84
828.00	215.80
828.32	215.76
828.64	215.73
828.95	215.83
829.27	215.76
829.58	215.76
829.90	215.82
830.22	215.83
830.53	215.75
830.85	215.70
831.17	215.65
831.48	215.64
831.80	215.64
832.11	215.62
832.43	215.60
832.75	215.58
833.06	215.71
833.38	215.60
833.69	215.60
834.01	215.56
834.32	215.54
834.64	215.49
834.96	215.51
835.27	215.47
835.59	215.39
835.90	215.32
836.22	215.29
836.53	215.20
836.85	215.17
837.16	215.38
837.48	215.39
837.79	215.44
838.11	215.41
838.42	215.42
838.74	215.41
839.05	215.40
839.37	215.38
839.68	215.23
840.00	215.23
840.31	215.22
840.63	215.23
840.94	215.23
841.26	215.17
841.57	215.14
841.88	215.17
842.20	215.16
842.51	215.14
842.83	215.13
843.14	215.30
843.46	215.29
843.77	215.19
844.08	215.17
844.40	215.10
844.71	215.09
845.03	215.04
845.34	215.07
845.65	215.06
845.97	215.10
846.28	215.12
846.60	215.13
846.91	215.12
847.22	215.12
847.54	215.15
847.85	215.23
848.16	215.21
848.48	215.15
848.79	215.20
849.10	215.24
849.42	215.25
849.73	215.08
850.04	215.06
850.36	214.95
850.67	215.02
850.98	215.03
851.30	215.06
851.61	215.09
851.92	215.05
852.23	215.07
852.55	215.03
852.86	215.01
853.17	215.02
853.49	215.07
853.80	215.08
854.11	215.09
854.42	215.12
854.74	215.10
855.05	215.13
855.36	215.00
855.67	214.98
855.99	214.98
856.30	215.21
856.61	215.24
856.92	215.24
857.23	215.19
857.55	215.12
857.86	215.11
858.17	215.13
858.48	215.09
858.79	215.09
859.11	215.11
859.42	215.09
859.73	215.06
860.04	215.05
860.35	215.01
860.66	214.93
860.98	214.88
861.29	214.93
861.60	214.90
861.91	214.93
862.22	214.91
862.53	214.89
862.84	214.62
863.16	214.66
863.47	214.60
863.78	214.57
864.09	214.59
864.40	214.60
864.71	214.60
865.02	214.62
865.33	214.57
865.64	214.51
865.95	214.51
866.27	214.69
866.58	214.63
866.89	214.63
867.20	214.65
867.51	214.62
867.82	214.57
868.13	214.64
868.44	214.60
868.75	214.66
869.06	214.66
869.37	214.69
869.68	214.62
869.99	214.68
870.30	214.71
870.61	214.75
870.92	214.70
871.23	214.67
871.54	214.70
871.85	214.79
872.16	214.85
872.47	214.82
872.78	214.63
873.09	214.64
873.40	214.64
873.71	214.62
874.02	214.62
874.33	214.60
874.64	214.54
874.95	214.59
875.26	214.58
875.56	214.56
875.87	214.54
876.18	214.53
876.49	214.70
876.80	214.70
877.11	214.66
877.42	214.66
877.73	214.66
878.04	214.60
878.35	214.58
878.66	214.57
878.96	214.61
879.27	214.59
879.58	214.62
879.89	214.58
880.20	214.68
880.51	214.69
880.82	214.73
881.12	214.76
881.43	214.73
881.74	214.66
882.05	214.67
882.36	214.73
882.67	214.71
882.97	214.52
883.28	214.51
883.59	214.53
883.90	214.55
884.21	214.59
884.51	214.60
884.82	214.55
885.13	214.52
885.44	214.49
885.74	214.51
886.05	214.48
886.36	214.51
886.67	214.40
886.98	214.54
887.28	214.54
887.59	214.54
887.90	214.54
888.20	214.57
888.51	214.61
888.82	214.55
889.13	214.59
889.43	214.75
889.74	214.74
890.05	214.74
890.35	214.75
890.66	214.66
890.97	214.62
891.28	214.64
891.58	214.71
891.89	214.72
892.20	214.72
892.50	214.71
892.81	214.72
893.12	214.74
893.42	214.59
893.73	214.61
894.04	214.59
894.34	214.61
894.65	214.61
894.95	214.58
895.26	214.60
895.57	214.67
895.87	214.45
896.18	214.49
896.48	214.49
896.79	214.47
897.10	214.54
897.40	214.57
897.71	214.57
898.01	214.51
898.32	214.52
898.63	214.51
898.93	214.50
899.24	214.50
899.54	214.48
899.85	214.49
900.15	214.46
900.46	214.44
900.76	214.47
901.07	214.44
901.38	214.39
901.68	214.43
901.99	214.31
902.29	214.34
902.60	214.30
902.90	214.28
903.21	214.31
903.51	214.29
903.82	214.33
904.12	214.33
904.43	214.35
904.73	214.36
905.03	214.37
905.34	214.56
905.64	214.54
905.95	214.56
906.25	214.56
906.56	214.55
906.86	214.55
907.17	214.52
907.47	214.55
907.77	214.57
908.08	214.50
908.38	214.54
908.69	214.59
908.99	214.63
909.30	214.66
909.60	214.64
909.90	214.65
910.21	214.60
910.51	214.58
910.81	214.59
911.12	214.60
911.42	214.60
911.73	214.41
912.03	214.39
912.33	214.43
912.64	214.41
912.94	214.40
913.24	214.38
913.55	214.34
913.85	214.33
914.15	214.38
914.46	214.42
914.76	214.37
915.06	214.35
915.37	214.29
915.67	214.26
915.97	214.28
916.27	214.25
916.58	214.26
916.88	214.27
917.18	214.20
917.49	214.31
917.79	214.32
918.09	214.35
918.39	214.41
918.70	214.40
919.00	214.41
919.30	214.51
919.60	214.49
919.91	214.51
920.21	214.54
920.51	214.45
920.81	214.46
921.12	214.50
921.42	214.44
921.72	214.48
922.02	214.48
922.32	214.50
922.63	214.47
922.93	214.58
923.23	214.55
923.53	214.56
923.83	214.43
924.13	214.43
924.44	214.42
924.74	214.45
925.04	214.52
925.34	214.52
925.64	214.42
925.94	214.42
926.24	214.51
926.55	214.47
926.85	214.51
927.15	214.48
927.45	214.46
927.75	214.52
928.05	214.51
928.35	214.52
928.65	214.53
928.95	214.56
929.26	214.48
929.56	214.52
929.86	214.54
930.16	214.50
930.46	214.46
930.76	214.47
931.06	214.39
931.36	214.29
931.66	214.34
931.96	214.36
932.26	214.37
932.56	214.28
932.86	214.30
933.16	214.28
933.46	214.28
933.76	214.27
934.06	214.27
934.36	214.33
934.66	214.34
934.96	214.28
935.26	214.26
935.56	214.31
935.86	214.26
936.16	214.25
936.46	214.24
936.76	214.26
937.06	214.28
937.36	214.26
937.66	214.29
937.96	214.23
938.26	214.20
938.56	214.20
938.86	214.21
939.16	214.26
939.46	214.28
939.76	214.30
940.06	214.31
940.35	214.28
940.65	214.20
940.95	214.19
941.25	214.18
941.55	214.18
941.85	214.14
942.15	214.20
942.45	214.26
942.75	214.28
943.04	214.31
943.34	214.31
943.64	214.29
943.94	214.26
944.24	214.30
944.54	214.32
944.84	214.31
945.13	214.25
945.43	214.19
945.73	214.18
946.03	214.14
946.33	214.11
946.62	214.10
946.92	214.08
947.22	214.09
947.52	214.10
947.82	214.10
948.11	214.07
948.41	214.02
948.71	213.94
949.01	213.95
949.31	213.92
949.60	213.91
949.90	213.95
950.20	213.95
950.50	213.93
950.79	213.90
951.09	213.94
951.39	213.95
951.69	213.94
951.98	213.96
952.28	213.98
952.58	213.99
952.87	213.98
953.17	214.04
953.47	213.99
953.76	214.00
954.06	213.97
954.36	213.94
954.66	213.95
954.95	214.02
955.25	214.01
955.55	214.03
955.84	213.98
956.14	213.99
956.44	214.01
956.73	214.01
957.03	214.01
957.32	214.01
957.62	214.04
957.92	214.09
958.21	214.10
958.51	214.35
958.81	214.36
959.10	214.38
959.40	214.41
959.69	214.47
959.99	214.46
960.29	214.48
960.58	214.48
960.88	214.54
961.17	214.50
961.47	214.54
961.76	214.51
962.06	214.54
962.36	214.48
962.65	214.49
962.95	214.48
963.24	214.47
963.54	214.46
963.83	214.48
964.13	214.47
964.42	214.42
964.72	214.23
965.01	214.23
965.31	214.20
965.60	214.13
965.90	214.23
966.19	214.22
966.49	214.20
966.78	214.20
967.08	214.18
967.37	214.17
967.67	214.12
967.96	214.15
968.26	214.15
968.55	214.21
968.85	214.18
969.14	214.20
969.43	214.18
969.73	214.16
970.02	214.13
970.32	214.11
970.61	214.10
970.91	214.05
971.20	214.00
971.49	213.99
971.79	214.03
972.08	213.91
972.38	213.92
972.67	213.93
972.96	213.96
973.26	213.92
973.55	214.00
973.85	213.99
974.14	213.96
974.43	213.96
974.73	213.95
975.02	213.94
975.31	213.90
975.61	213.91
975.90	213.87
976.19	213.83
976.49	213.82
976.78	213.82
977.07	213.81
977.37	213.84
977.66	213.87
977.95	213.83
978.24	213.82
978.54	213.85
978.83	213.79
979.12	213.76
979.42	213.75
979.71	213.69
980.00	213.71
980.29	213.72
980.59	213.68
980.88	213.73
981.17	213.70
981.46	213.71
981.76	213.71
982.05	213.79
982.34	213.83
982.63	213.86
982.93	213.85
983.22	213.90
983.51	213.92
983.80	213.95
984.09	213.98
984.39	213.95
984.68	213.93
984.97	213.98
985.26	213.97
985.55	214.02
985.85	213.99
986.14	214.00
986.43	214.03
986.72	214.02
987.01	213.96
987.30	213.99
987.59	214.02
987.89	214.04
988.18	214.00
988.47	213.97
988.76	213.94
989.05	213.93
989.34	213.91
989.63	213.97
989.92	213.96
990.22	213.91
990.51	213.94
990.80	213.92
991.09	213.96
991.38	213.98
991.67	213.95
991.96	213.95
992.25	213.96
992.54	213.90
992.83	213.91
993.12	213.90
993.41	213.92
993.70	213.97
993.99	214.00
994.28	214.05
994.58	214.08
994.87	214.07
995.16	214.09
995.45	214.05
995.74	213.97
996.03	213.99
996.32	214.04
996.61	214.08
996.90	214.08
997.19	214.03
997.48	214.05
997.77	214.02
998.06	214.02
998.34	214.01
998.63	214.00
998.92	214.00
999.21	214.02
999.50	214.02
999.79	213.96
1000.08	213.97
1000.37	213.94
1000.66	213.88
1000.95	213.93
1001.24	213.94
1001.53	213.96
1001.82	213.95
1002.11	213.90
1002.40	213.89
1002.68	213.94
1002.97	214.13
1003.26	214.10
1003.55	214.05
1003.84	214.10
1004.13	214.15
1004.42	214.13
1004.71	214.16
1004.99	214.15
1005.28	214.20
1005.57	214.21
1005.86	214.18
1006.15	214.15
1006.44	214.13
1006.72	214.18
1007.01	214.15
1007.30	214.16
1007.59	214.14
1007.88	214.15
1008.17	214.17
1008.45	214.12
1008.74	214.01
1009.03	213.89
1009.32	213.91
1009.60	213.91
1009.89	213.86
1010.18	213.78
1010.47	213.77
1010.76	213.76
1011.04	213.77
1011.33	213.83
1011.62	213.87
1011.91	213.85
1012.19	213.89
1012.48	213.90
1012.77	213.90
1013.05	214.00
1013.34	213.98
1013.63	213.97
1013.92	213.97
1014.20	213.93
1014.49	213.96
1014.78	213.99
1015.06	213.93
1015.35	213.95
1015.64	213.97
1015.92	214.03
1016.21	214.03
1016.50	214.05
1016.78	214.09
1017.07	214.11
1017.36	213.94
1017.64	213.85
1017.93	213.87
1018.22	213.81
1018.50	213.79
1018.79	213.76
1019.08	213.65
1019.36	213.65
1019.65	213.67
1019.93	213.77
1020.22	213.82
1020.51	213.93
1020.79	213.93
1021.08	213.43
1021.36	213.26
1021.65	213.58
1021.94	213.74
1022.22	213.85
1022.51	213.72
1022.79	215.67
1023.08	214.35
1023.36	216.41
1023.65	213.61
>>>>>End Processed Spectral Data<<<<<
