SpectraSuite Data File
++++++++++++++++++++++++++++++++++++
Date: Tue Jan 29 16:36:09 EST 2013
User: group
Dark Spectrum Present: No
Reference Spectrum Present: No
Number of Sampled Component Spectra: 1
Spectrometers: USB2E7196
Integration Time (usec): 65000 (USB2E7196)
Spectra Averaged: 100 (USB2E7196)
Boxcar Smoothing: 10 (USB2E7196)
Correct for Electrical Dark: No (USB2E7196)
Strobe/Lamp Enabled: No (USB2E7196)
Correct for Detector Non-linearity: No (USB2E7196)
Correct for Stray Light: No (USB2E7196)
Number of Pixels in Processed Spectrum: 2048
>>>>>Begin Processed Spectral Data<<<<<
339.09	0.00
339.48	201.75
339.86	203.11
340.24	204.25
340.63	205.87
341.01	209.93
341.39	208.69
341.78	209.90
342.16	212.04
342.54	211.90
342.93	200.83
343.31	210.99
343.69	211.54
344.07	212.01
344.46	212.46
344.84	212.87
345.22	213.05
345.60	213.34
345.99	213.57
346.37	213.68
346.75	213.81
347.13	213.89
347.52	213.96
347.90	214.08
348.28	214.12
348.66	214.22
349.05	214.21
349.43	214.28
349.81	214.37
350.19	214.44
350.57	214.57
350.96	214.71
351.34	214.80
351.72	214.90
352.10	215.04
352.48	215.12
352.87	215.17
353.25	215.28
353.63	215.30
354.01	215.35
354.39	215.45
354.77	215.52
355.15	215.67
355.54	215.71
355.92	215.73
356.30	215.82
356.68	216.00
357.06	216.10
357.44	216.14
357.82	216.18
358.20	216.28
358.58	216.33
358.97	216.37
359.35	216.52
359.73	216.66
360.11	216.72
360.49	216.77
360.87	216.83
361.25	216.88
361.63	217.00
362.01	217.08
362.39	217.09
362.77	217.15
363.15	217.16
363.53	217.22
363.91	217.26
364.29	217.28
364.67	217.16
365.05	217.16
365.43	217.24
365.81	217.30
366.19	217.40
366.57	217.47
366.95	217.47
367.33	217.39
367.71	217.35
368.09	217.37
368.47	217.36
368.85	217.33
369.23	217.36
369.61	217.31
369.99	217.35
370.37	217.40
370.75	217.47
371.13	217.43
371.51	217.38
371.89	217.39
372.27	217.38
372.65	217.33
373.03	217.31
373.41	217.24
373.78	217.15
374.16	217.01
374.54	216.90
374.92	216.87
375.30	216.81
375.68	216.75
376.06	216.70
376.44	216.67
376.82	216.66
377.19	216.63
377.57	216.56
377.95	216.44
378.33	216.35
378.71	216.19
379.09	216.19
379.47	216.15
379.84	216.06
380.22	216.00
380.60	215.94
380.98	215.84
381.36	215.81
381.73	215.78
382.11	215.76
382.49	215.73
382.87	215.63
383.25	215.62
383.62	215.78
384.00	215.69
384.38	215.65
384.76	215.63
385.13	215.64
385.51	215.66
385.89	215.59
386.27	215.57
386.64	215.55
387.02	215.48
387.40	215.44
387.78	215.42
388.15	215.37
388.53	215.34
388.91	215.33
389.29	215.30
389.66	215.32
390.04	215.30
390.42	215.32
390.79	215.33
391.17	215.33
391.55	215.09
391.92	215.08
392.30	215.08
392.68	215.04
393.05	215.03
393.43	215.02
393.81	215.06
394.18	215.04
394.56	215.04
394.94	215.09
395.31	215.06
395.69	215.17
396.06	215.23
396.44	215.28
396.82	215.33
397.19	215.45
397.57	215.44
397.95	215.49
398.32	215.45
398.70	215.52
399.07	215.57
399.45	215.61
399.82	215.68
400.20	215.69
400.58	215.78
400.95	215.74
401.33	215.82
401.70	216.03
402.08	216.11
402.45	216.20
402.83	216.34
403.20	216.46
403.58	216.52
403.95	216.68
404.33	216.83
404.71	216.98
405.08	217.25
405.46	217.41
405.83	217.61
406.21	217.80
406.58	218.03
406.96	218.25
407.33	218.55
407.70	218.83
408.08	219.27
408.45	219.61
408.83	220.04
409.20	220.37
409.58	220.62
409.95	221.08
410.33	221.57
410.70	222.02
411.08	222.61
411.45	223.19
411.82	223.74
412.20	224.42
412.57	225.26
412.95	225.80
413.32	226.63
413.69	227.45
414.07	228.38
414.44	229.34
414.82	230.36
415.19	231.54
415.56	232.74
415.94	233.94
416.31	235.34
416.68	236.71
417.06	238.34
417.43	239.93
417.81	241.68
418.18	243.46
418.55	245.37
418.93	247.38
419.30	249.50
419.67	251.75
420.04	254.03
420.42	256.41
420.79	259.26
421.16	262.07
421.54	264.99
421.91	268.00
422.28	271.10
422.66	274.42
423.03	277.68
423.40	281.07
423.77	284.71
424.15	288.31
424.52	292.13
424.89	296.27
425.26	300.36
425.64	304.28
426.01	308.57
426.38	313.04
426.75	317.59
427.13	322.34
427.50	327.29
427.87	332.50
428.24	337.71
428.61	342.67
428.99	348.19
429.36	354.19
429.73	360.09
430.10	366.04
430.47	372.13
430.85	378.45
431.22	385.11
431.59	392.19
431.96	399.09
432.33	406.65
432.70	413.96
433.08	422.48
433.45	430.56
433.82	438.59
434.19	447.50
434.56	456.21
434.93	464.55
435.30	472.85
435.68	482.02
436.05	490.99
436.42	499.94
436.79	508.04
437.16	516.85
437.53	526.11
437.90	535.29
438.27	544.20
438.64	553.37
439.01	561.97
439.38	569.59
439.75	576.96
440.13	585.42
440.50	593.45
440.87	599.85
441.24	606.50
441.61	613.86
441.98	619.26
442.35	625.58
442.72	631.95
443.09	638.10
443.46	641.87
443.83	644.39
444.20	646.63
444.57	649.94
444.94	651.39
445.31	652.87
445.68	654.21
446.05	654.90
446.42	654.17
446.79	653.26
447.16	652.23
447.53	651.44
447.90	648.12
448.27	644.74
448.64	640.16
449.01	636.82
449.37	630.89
449.74	625.16
450.11	618.33
450.48	610.87
450.85	603.29
451.22	596.73
451.59	590.60
451.96	584.71
452.33	576.77
452.70	569.62
453.07	561.10
453.43	552.50
453.80	544.13
454.17	536.11
454.54	528.54
454.91	520.30
455.28	512.32
455.65	504.86
456.02	497.38
456.38	491.05
456.75	483.16
457.12	476.55
457.49	470.07
457.86	463.82
458.23	458.41
458.59	452.47
458.96	446.50
459.33	441.18
459.70	435.79
460.07	431.50
460.43	426.66
460.80	422.06
461.17	418.03
461.54	413.85
461.91	409.81
462.27	405.59
462.64	402.13
463.01	398.28
463.38	394.52
463.74	390.77
464.11	387.47
464.48	384.63
464.85	381.58
465.21	379.15
465.58	376.49
465.95	373.36
466.32	370.76
466.68	368.13
467.05	365.51
467.42	362.95
467.78	360.28
468.15	357.75
468.52	355.85
468.88	353.34
469.25	351.10
469.62	349.32
469.98	347.39
470.35	345.57
470.72	343.89
471.08	342.14
471.45	340.68
471.82	339.11
472.18	337.41
472.55	336.16
472.92	334.73
473.28	333.54
473.65	332.42
474.02	331.30
474.38	330.41
474.75	329.68
475.11	328.88
475.48	328.29
475.85	327.76
476.21	327.27
476.58	326.90
476.94	326.67
477.31	326.31
477.67	326.11
478.04	325.93
478.41	325.89
478.77	326.04
479.14	325.95
479.50	326.15
479.87	326.47
480.23	326.85
480.60	327.11
480.96	327.38
481.33	327.95
481.69	328.52
482.06	329.04
482.42	329.55
482.79	330.13
483.15	330.92
483.52	331.87
483.88	332.74
484.25	333.66
484.61	334.65
484.98	335.74
485.34	337.03
485.71	338.43
486.07	339.87
486.44	341.17
486.80	342.77
487.17	344.39
487.53	346.21
487.90	348.04
488.26	350.04
488.62	352.20
488.99	354.25
489.35	356.39
489.72	358.79
490.08	361.28
490.44	363.86
490.81	366.54
491.17	369.28
491.54	372.27
491.90	375.35
492.26	378.63
492.63	382.03
492.99	385.54
493.36	389.19
493.72	393.11
494.08	397.15
494.45	401.38
494.81	405.75
495.17	410.17
495.54	414.86
495.90	419.68
496.26	424.60
496.63	429.82
496.99	435.27
497.35	440.84
497.72	446.68
498.08	452.60
498.44	458.73
498.80	465.14
499.17	471.67
499.53	478.44
499.89	485.34
500.26	492.28
500.62	499.37
500.98	506.88
501.34	514.39
501.71	522.19
502.07	530.08
502.43	538.14
502.79	546.36
503.16	554.79
503.52	563.48
503.88	572.25
504.24	581.24
504.60	590.32
504.97	599.59
505.33	608.91
505.69	618.78
506.05	628.61
506.41	638.46
506.78	648.50
507.14	658.70
507.50	669.21
507.86	680.05
508.22	690.87
508.59	701.51
508.95	712.54
509.31	723.82
509.67	735.28
510.03	746.65
510.39	758.36
510.75	770.29
511.12	782.17
511.48	794.35
511.84	806.64
512.20	819.04
512.56	831.82
512.92	844.64
513.28	857.38
513.64	870.35
514.00	883.35
514.37	896.48
514.73	909.69
515.09	922.76
515.45	935.76
515.81	948.92
516.17	962.39
516.53	975.80
516.89	988.98
517.25	1002.23
517.61	1015.93
517.97	1029.41
518.33	1042.63
518.69	1056.36
519.05	1070.16
519.41	1083.88
519.77	1097.85
520.13	1111.09
520.49	1124.43
520.85	1137.98
521.21	1151.30
521.57	1165.11
521.93	1178.31
522.29	1192.17
522.65	1205.95
523.01	1219.61
523.37	1232.91
523.73	1246.28
524.09	1259.49
524.45	1273.08
524.81	1286.72
525.17	1300.22
525.53	1313.60
525.89	1327.02
526.25	1340.16
526.61	1353.13
526.97	1366.24
527.33	1379.37
527.68	1393.05
528.04	1406.53
528.40	1419.68
528.76	1433.08
529.12	1445.96
529.48	1459.37
529.84	1471.69
530.20	1484.42
530.56	1497.09
530.91	1510.38
531.27	1523.32
531.63	1536.14
531.99	1548.85
532.35	1561.22
532.71	1573.65
533.07	1586.57
533.42	1598.89
533.78	1611.04
534.14	1623.14
534.50	1634.60
534.86	1646.19
535.21	1657.22
535.57	1668.88
535.93	1680.23
536.29	1691.51
536.65	1703.21
537.00	1714.20
537.36	1725.72
537.72	1736.88
538.08	1748.58
538.44	1759.65
538.79	1770.89
539.15	1781.93
539.51	1792.90
539.87	1804.36
540.22	1815.36
540.58	1826.41
540.94	1837.49
541.29	1848.00
541.65	1857.98
542.01	1868.66
542.37	1878.78
542.72	1888.99
543.08	1898.82
543.44	1909.41
543.79	1918.80
544.15	1928.28
544.51	1938.29
544.87	1948.39
545.22	1957.76
545.58	1966.69
545.94	1975.76
546.29	1984.47
546.65	1992.99
547.01	2001.23
547.36	2008.89
547.72	2016.63
548.07	2024.27
548.43	2032.04
548.79	2039.96
549.14	2048.13
549.50	2056.61
549.86	2064.67
550.21	2072.10
550.57	2079.94
550.92	2086.84
551.28	2094.46
551.64	2101.67
551.99	2109.34
552.35	2116.58
552.70	2123.55
553.06	2130.14
553.41	2136.51
553.77	2142.98
554.13	2149.36
554.48	2156.49
554.84	2163.70
555.19	2170.35
555.55	2176.90
555.90	2183.31
556.26	2190.26
556.61	2196.42
556.97	2201.31
557.32	2207.07
557.68	2213.58
558.03	2219.30
558.39	2224.73
558.74	2230.64
559.10	2236.24
559.45	2241.84
559.81	2247.22
560.16	2252.74
560.52	2258.66
560.87	2265.01
561.23	2270.74
561.58	2277.41
561.94	2282.58
562.29	2287.22
562.64	2293.13
563.00	2298.79
563.35	2304.23
563.71	2309.93
564.06	2315.72
564.42	2321.64
564.77	2326.66
565.12	2331.91
565.48	2337.14
565.83	2342.70
566.19	2348.11
566.54	2353.61
566.89	2358.24
567.25	2362.81
567.60	2368.42
567.96	2373.49
568.31	2377.99
568.66	2382.53
569.02	2386.45
569.37	2390.19
569.72	2394.66
570.08	2398.37
570.43	2401.30
570.78	2404.39
571.14	2406.78
571.49	2409.78
571.84	2413.31
572.20	2416.25
572.55	2419.31
572.90	2421.40
573.26	2424.01
573.61	2426.47
573.96	2428.55
574.31	2430.46
574.67	2432.39
575.02	2433.03
575.37	2434.53
575.72	2435.12
576.08	2436.40
576.43	2436.41
576.78	2436.81
577.13	2438.22
577.49	2439.26
577.84	2440.35
578.19	2441.66
578.54	2442.39
578.90	2442.96
579.25	2442.58
579.60	2442.38
579.95	2441.33
580.30	2441.46
580.66	2440.66
581.01	2438.93
581.36	2436.37
581.71	2434.96
582.06	2433.52
582.42	2432.65
582.77	2430.18
583.12	2428.46
583.47	2427.01
583.82	2426.28
584.17	2425.01
584.53	2422.86
584.88	2420.74
585.23	2418.71
585.58	2416.31
585.93	2413.96
586.28	2411.73
586.63	2409.32
586.98	2407.18
587.34	2405.15
587.69	2402.50
588.04	2400.40
588.39	2398.86
588.74	2396.39
589.09	2393.53
589.44	2390.50
589.79	2387.89
590.14	2385.95
590.49	2383.12
590.84	2379.18
591.19	2376.17
591.54	2372.90
591.89	2368.71
592.25	2365.24
592.60	2361.14
592.95	2357.01
593.30	2352.76
593.65	2348.24
594.00	2343.84
594.35	2340.66
594.70	2335.83
595.05	2331.38
595.40	2325.92
595.75	2320.15
596.10	2316.37
596.45	2311.28
596.80	2306.46
597.15	2301.35
597.50	2295.28
597.85	2290.13
598.19	2284.76
598.54	2278.91
598.89	2273.60
599.24	2268.97
599.59	2262.84
599.94	2256.82
600.29	2250.71
600.64	2244.87
600.99	2238.00
601.34	2232.36
601.69	2225.32
602.04	2218.94
602.39	2212.21
602.74	2205.99
603.08	2200.35
603.43	2193.84
603.78	2187.15
604.13	2180.23
604.48	2172.82
604.83	2166.69
605.18	2160.55
605.53	2153.72
605.87	2146.46
606.22	2139.58
606.57	2131.67
606.92	2123.54
607.27	2116.44
607.62	2109.73
607.96	2102.63
608.31	2096.12
608.66	2088.40
609.01	2080.75
609.36	2073.64
609.70	2065.70
610.05	2057.92
610.40	2049.59
610.75	2041.14
611.10	2033.42
611.44	2024.36
611.79	2015.55
612.14	2005.68
612.49	1994.91
612.83	1985.48
613.18	1976.29
613.53	1967.01
613.88	1957.44
614.22	1948.81
614.57	1939.02
614.92	1928.43
615.27	1918.14
615.61	1907.98
615.96	1898.24
616.31	1888.57
616.65	1879.11
617.00	1869.59
617.35	1859.84
617.70	1850.17
618.04	1840.16
618.39	1829.99
618.74	1820.20
619.08	1810.59
619.43	1801.77
619.78	1793.68
620.12	1785.09
620.47	1775.39
620.82	1764.84
621.16	1755.00
621.51	1745.03
621.85	1735.10
622.20	1724.74
622.55	1714.12
622.89	1704.18
623.24	1694.44
623.59	1684.62
623.93	1674.48
624.28	1664.58
624.62	1654.49
624.97	1644.17
625.32	1634.36
625.66	1625.35
626.01	1616.70
626.35	1607.38
626.70	1597.22
627.04	1587.07
627.39	1576.90
627.73	1567.74
628.08	1559.05
628.43	1549.46
628.77	1540.31
629.12	1531.53
629.46	1523.70
629.81	1515.48
630.15	1506.02
630.50	1496.25
630.84	1485.82
631.19	1475.98
631.53	1466.76
631.88	1456.55
632.22	1446.49
632.57	1437.11
632.91	1427.01
633.26	1417.23
633.60	1407.60
633.95	1398.45
634.29	1388.97
634.64	1379.64
634.98	1369.63
635.32	1360.20
635.67	1351.75
636.01	1342.58
636.36	1332.80
636.70	1323.22
637.05	1313.80
637.39	1304.85
637.73	1296.16
638.08	1288.59
638.42	1280.38
638.77	1271.58
639.11	1263.52
639.45	1255.76
639.80	1247.23
640.14	1238.48
640.49	1229.49
640.83	1220.63
641.17	1212.35
641.52	1204.09
641.86	1195.50
642.20	1187.61
642.55	1179.02
642.89	1170.10
643.23	1161.40
643.58	1153.27
643.92	1144.26
644.26	1135.52
644.61	1127.11
644.95	1118.32
645.29	1109.11
645.64	1099.96
645.98	1091.51
646.32	1083.43
646.66	1074.88
647.01	1066.52
647.35	1058.42
647.69	1050.11
648.04	1041.73
648.38	1032.88
648.72	1024.21
649.06	1015.74
649.41	1007.50
649.75	999.58
650.09	991.68
650.43	983.61
650.78	975.23
651.12	967.44
651.46	959.98
651.80	952.73
652.14	945.41
652.49	937.85
652.83	930.43
653.17	922.58
653.51	914.97
653.85	907.68
654.20	900.41
654.54	892.96
654.88	885.71
655.22	878.59
655.56	871.51
655.90	864.61
656.25	857.94
656.59	851.06
656.93	843.95
657.27	836.76
657.61	829.70
657.95	823.56
658.29	817.64
658.64	811.46
658.98	804.93
659.32	798.34
659.66	791.97
660.00	785.59
660.34	779.55
660.68	773.38
661.02	766.99
661.36	760.97
661.70	755.10
662.05	749.46
662.39	743.94
662.73	738.50
663.07	733.12
663.41	727.44
663.75	721.67
664.09	715.94
664.43	710.50
664.77	705.15
665.11	699.34
665.45	693.48
665.79	687.71
666.13	681.96
666.47	676.40
666.81	670.98
667.15	665.59
667.49	660.32
667.83	655.06
668.17	649.79
668.51	644.68
668.85	639.73
669.19	634.80
669.53	629.74
669.87	624.70
670.21	619.89
670.55	615.15
670.89	610.69
671.23	606.35
671.57	601.96
671.91	597.65
672.25	593.43
672.58	589.20
672.92	585.07
673.26	581.15
673.60	577.25
673.94	573.40
674.28	569.77
674.62	565.97
674.96	562.15
675.30	558.61
675.64	554.85
675.97	551.19
676.31	547.49
676.65	543.80
676.99	540.26
677.33	536.38
677.67	532.73
678.01	528.81
678.34	525.13
678.68	521.56
679.02	517.89
679.36	514.15
679.70	510.50
680.04	506.92
680.37	503.40
680.71	500.02
681.05	496.79
681.39	493.43
681.73	490.23
682.06	487.19
682.40	484.03
682.74	480.81
683.08	477.53
683.42	474.31
683.75	471.29
684.09	468.16
684.43	465.35
684.77	462.36
685.10	459.49
685.44	456.54
685.78	453.56
686.12	450.78
686.45	448.02
686.79	445.24
687.13	442.65
687.46	439.95
687.80	437.24
688.14	434.36
688.48	431.71
688.81	429.01
689.15	426.37
689.49	423.77
689.82	421.23
690.16	418.63
690.50	416.12
690.83	413.57
691.17	411.08
691.51	408.56
691.84	406.27
692.18	404.01
692.52	401.74
692.85	399.59
693.19	397.38
693.52	395.24
693.86	393.01
694.20	390.80
694.53	388.62
694.87	386.44
695.21	384.29
695.54	382.10
695.88	379.87
696.21	377.60
696.55	375.41
696.88	373.35
697.22	371.39
697.56	369.48
697.89	367.60
698.23	365.77
698.56	363.89
698.90	362.08
699.23	360.13
699.57	358.22
699.90	356.32
700.24	354.51
700.58	352.70
700.91	351.01
701.25	349.43
701.58	347.85
701.92	346.16
702.25	344.50
702.59	342.84
702.92	341.31
703.26	339.76
703.59	338.24
703.93	336.91
704.26	335.43
704.60	333.92
704.93	332.39
705.26	330.87
705.60	329.41
705.93	327.86
706.27	326.48
706.60	325.15
706.94	323.93
707.27	322.53
707.61	321.19
707.94	319.82
708.27	318.23
708.61	316.74
708.94	315.37
709.28	314.10
709.61	312.87
709.94	311.60
710.28	310.35
710.61	309.17
710.95	307.73
711.28	306.62
711.61	305.38
711.95	304.23
712.28	303.05
712.61	301.84
712.95	300.79
713.28	299.77
713.61	298.64
713.95	297.44
714.28	296.39
714.61	295.30
714.95	294.31
715.28	293.26
715.61	292.24
715.95	291.29
716.28	290.31
716.61	289.32
716.95	288.32
717.28	287.39
717.61	286.41
717.94	285.49
718.28	284.46
718.61	283.55
718.94	282.62
719.27	281.77
719.61	280.95
719.94	280.03
720.27	279.03
720.60	278.18
720.94	277.36
721.27	276.61
721.60	275.92
721.93	275.17
722.27	274.63
722.60	273.98
722.93	273.24
723.26	272.56
723.59	271.88
723.93	271.23
724.26	270.54
724.59	269.90
724.92	269.26
725.25	268.67
725.59	268.09
725.92	267.58
726.25	266.99
726.58	266.40
726.91	265.83
727.24	265.30
727.57	264.75
727.91	264.12
728.24	263.52
728.57	262.90
728.90	262.32
729.23	261.63
729.56	261.17
729.89	260.62
730.22	260.05
730.55	259.49
730.89	258.98
731.22	258.42
731.55	257.90
731.88	257.36
732.21	256.84
732.54	256.27
732.87	255.76
733.20	255.28
733.53	254.77
733.86	254.29
734.19	253.80
734.52	253.34
734.85	253.06
735.18	252.56
735.51	252.20
735.84	251.75
736.17	251.37
736.50	250.80
736.83	250.65
737.16	250.23
737.49	249.85
737.82	249.43
738.15	249.11
738.48	248.70
738.81	248.33
739.14	247.89
739.47	247.53
739.80	247.12
740.13	246.75
740.46	246.35
740.79	245.95
741.12	245.59
741.45	245.20
741.78	244.74
742.11	244.47
742.44	244.08
742.77	243.81
743.10	243.42
743.43	243.10
743.75	242.51
744.08	242.46
744.41	242.09
744.74	241.73
745.07	241.35
745.40	241.05
745.73	240.81
746.06	240.49
746.39	240.17
746.71	239.81
747.04	239.43
747.37	239.11
747.70	238.82
748.03	238.51
748.36	238.28
748.68	238.00
749.01	237.63
749.34	237.33
749.67	236.98
750.00	236.71
750.33	236.57
750.65	236.30
750.98	235.75
751.31	235.49
751.64	235.23
751.97	235.12
752.29	234.87
752.62	234.53
752.95	234.28
753.28	234.01
753.60	233.76
753.93	233.62
754.26	233.42
754.59	233.12
754.91	232.88
755.24	232.58
755.57	232.34
755.90	232.14
756.22	231.86
756.55	231.62
756.88	231.40
757.20	231.04
757.53	230.81
757.86	230.62
758.19	230.43
758.51	230.20
758.84	229.89
759.17	229.66
759.49	229.47
759.82	229.33
760.15	229.19
760.47	228.99
760.80	228.69
761.13	228.51
761.45	228.33
761.78	228.15
762.11	227.98
762.43	227.77
762.76	227.56
763.08	227.45
763.41	227.30
763.74	227.12
764.06	226.98
764.39	226.81
764.71	226.62
765.04	226.44
765.37	226.31
765.69	226.14
766.02	225.98
766.34	225.85
766.67	225.67
767.00	225.56
767.32	225.52
767.65	225.51
767.97	225.36
768.30	225.26
768.62	225.15
768.95	225.00
769.27	224.88
769.60	224.77
769.92	224.58
770.25	224.43
770.57	224.27
770.90	224.13
771.22	224.02
771.55	223.93
771.87	223.79
772.20	223.67
772.52	223.75
772.85	223.90
773.17	223.78
773.50	223.66
773.82	223.53
774.15	223.37
774.47	223.14
774.80	223.04
775.12	222.95
775.45	222.84
775.77	222.77
776.09	222.69
776.42	222.63
776.74	222.59
777.07	222.48
777.39	222.41
777.72	222.29
778.04	222.23
778.36	222.11
778.69	222.05
779.01	222.00
779.33	221.76
779.66	221.44
779.98	221.37
780.31	221.24
780.63	221.25
780.95	221.21
781.28	221.18
781.60	221.08
781.92	221.01
782.25	220.95
782.57	220.89
782.89	220.82
783.22	220.72
783.54	220.64
783.86	220.60
784.19	220.49
784.51	220.48
784.83	220.39
785.16	220.31
785.48	220.25
785.80	220.15
786.12	220.07
786.45	220.03
786.77	219.96
787.09	219.93
787.42	219.78
787.74	219.71
788.06	219.67
788.38	219.61
788.71	219.53
789.03	219.43
789.35	219.37
789.67	219.28
789.99	219.25
790.32	219.20
790.64	219.16
790.96	219.29
791.28	219.22
791.61	219.16
791.93	219.14
792.25	219.07
792.57	219.17
792.89	219.08
793.21	219.05
793.54	218.98
793.86	218.88
794.18	218.86
794.50	218.76
794.82	218.70
795.14	218.66
795.47	218.65
795.79	218.64
796.11	218.58
796.43	218.50
796.75	218.44
797.07	218.38
797.39	218.34
797.71	218.17
798.04	218.11
798.36	218.10
798.68	218.04
799.00	218.05
799.32	217.91
799.64	217.91
799.96	217.86
800.28	217.85
800.60	217.80
800.92	217.79
801.24	217.77
801.56	217.76
801.89	217.72
802.21	217.71
802.53	217.65
802.85	217.67
803.17	217.76
803.49	217.74
803.81	217.69
804.13	217.65
804.45	217.58
804.77	217.58
805.09	217.53
805.41	217.52
805.73	217.43
806.05	217.36
806.37	217.33
806.69	217.28
807.01	217.27
807.33	217.27
807.65	217.16
807.97	217.22
808.28	217.17
808.60	217.13
808.92	217.05
809.24	217.17
809.56	217.06
809.88	216.99
810.20	216.93
810.52	216.97
810.84	216.91
811.16	216.86
811.48	216.81
811.80	216.86
812.12	216.78
812.43	216.84
812.75	216.83
813.07	216.79
813.39	216.77
813.71	216.70
814.03	216.68
814.35	216.66
814.67	216.58
814.98	216.53
815.30	216.55
815.62	216.50
815.94	216.33
816.26	216.35
816.58	216.25
816.89	216.26
817.21	216.19
817.53	216.20
817.85	216.22
818.17	216.21
818.48	216.13
818.80	216.19
819.12	216.13
819.44	216.07
819.76	216.01
820.07	215.99
820.39	215.98
820.71	215.98
821.03	215.96
821.34	215.94
821.66	215.96
821.98	215.93
822.30	215.93
822.61	216.04
822.93	216.00
823.25	216.00
823.57	215.97
823.88	215.99
824.20	215.98
824.52	215.98
824.83	215.90
825.15	215.84
825.47	215.82
825.79	215.79
826.10	215.78
826.42	215.77
826.74	215.76
827.05	215.72
827.37	215.68
827.69	215.68
828.00	215.69
828.32	215.65
828.64	215.62
828.95	215.69
829.27	215.60
829.58	215.59
829.90	215.62
830.22	215.61
830.53	215.55
830.85	215.51
831.17	215.44
831.48	215.46
831.80	215.49
832.11	215.45
832.43	215.41
832.75	215.42
833.06	215.54
833.38	215.50
833.69	215.50
834.01	215.51
834.32	215.49
834.64	215.46
834.96	215.46
835.27	215.46
835.59	215.35
835.90	215.31
836.22	215.30
836.53	215.22
836.85	215.17
837.16	215.38
837.48	215.42
837.79	215.49
838.11	215.48
838.42	215.47
838.74	215.49
839.05	215.48
839.37	215.47
839.68	215.34
840.00	215.30
840.31	215.34
840.63	215.32
840.94	215.28
841.26	215.20
841.57	215.19
841.88	215.22
842.20	215.21
842.51	215.18
842.83	215.19
843.14	215.35
843.46	215.36
843.77	215.22
844.08	215.16
844.40	215.09
844.71	215.08
845.03	215.04
845.34	215.01
845.65	215.01
845.97	215.00
846.28	215.00
846.60	215.05
846.91	215.00
847.22	214.99
847.54	215.06
847.85	215.12
848.16	215.08
848.48	215.02
848.79	215.13
849.10	215.15
849.42	215.15
849.73	214.98
850.04	214.97
850.36	214.90
850.67	214.92
850.98	214.93
851.30	214.96
851.61	214.94
851.92	214.93
852.23	215.01
852.55	215.00
852.86	215.00
853.17	214.98
853.49	215.02
853.80	215.06
854.11	215.08
854.42	215.08
854.74	215.10
855.05	215.11
855.36	214.98
855.67	214.95
855.99	214.97
856.30	215.22
856.61	215.22
856.92	215.24
857.23	215.23
857.55	215.23
857.86	215.20
858.17	215.24
858.48	215.18
858.79	215.13
859.11	215.14
859.42	215.12
859.73	215.11
860.04	215.05
860.35	214.95
860.66	214.88
860.98	214.84
861.29	214.83
861.60	214.83
861.91	214.89
862.22	214.88
862.53	214.84
862.84	214.59
863.16	214.63
863.47	214.56
863.78	214.57
864.09	214.57
864.40	214.55
864.71	214.57
865.02	214.57
865.33	214.55
865.64	214.49
865.95	214.50
866.27	214.64
866.58	214.65
866.89	214.69
867.20	214.71
867.51	214.67
867.82	214.64
868.13	214.68
868.44	214.64
868.75	214.63
869.06	214.62
869.37	214.65
869.68	214.59
869.99	214.62
870.30	214.63
870.61	214.64
870.92	214.62
871.23	214.57
871.54	214.62
871.85	214.64
872.16	214.68
872.47	214.66
872.78	214.49
873.09	214.54
873.40	214.50
873.71	214.49
874.02	214.54
874.33	214.55
874.64	214.51
874.95	214.48
875.26	214.46
875.56	214.47
875.87	214.47
876.18	214.45
876.49	214.66
876.80	214.62
877.11	214.59
877.42	214.62
877.73	214.62
878.04	214.59
878.35	214.60
878.66	214.61
878.96	214.60
879.27	214.62
879.58	214.57
879.89	214.59
880.20	214.66
880.51	214.62
880.82	214.63
881.12	214.64
881.43	214.65
881.74	214.62
882.05	214.63
882.36	214.63
882.67	214.64
882.97	214.42
883.28	214.40
883.59	214.38
883.90	214.37
884.21	214.37
884.51	214.37
884.82	214.32
885.13	214.31
885.44	214.34
885.74	214.32
886.05	214.29
886.36	214.28
886.67	214.18
886.98	214.28
887.28	214.33
887.59	214.32
887.90	214.31
888.20	214.33
888.51	214.33
888.82	214.29
889.13	214.32
889.43	214.48
889.74	214.52
890.05	214.50
890.35	214.48
890.66	214.48
890.97	214.45
891.28	214.44
891.58	214.41
891.89	214.39
892.20	214.36
892.50	214.38
892.81	214.38
893.12	214.40
893.42	214.29
893.73	214.23
894.04	214.22
894.34	214.25
894.65	214.24
894.95	214.24
895.26	214.24
895.57	214.33
895.87	214.16
896.18	214.19
896.48	214.24
896.79	214.23
897.10	214.28
897.40	214.28
897.71	214.32
898.01	214.31
898.32	214.33
898.63	214.35
898.93	214.33
899.24	214.33
899.54	214.32
899.85	214.32
900.15	214.31
900.46	214.29
900.76	214.33
901.07	214.34
901.38	214.32
901.68	214.34
901.99	214.21
902.29	214.19
902.60	214.16
902.90	214.13
903.21	214.14
903.51	214.11
903.82	214.15
904.12	214.16
904.43	214.18
904.73	214.17
905.03	214.16
905.34	214.36
905.64	214.38
905.95	214.39
906.25	214.40
906.56	214.38
906.86	214.38
907.17	214.33
907.47	214.35
907.77	214.32
908.08	214.28
908.38	214.32
908.69	214.34
908.99	214.36
909.30	214.38
909.60	214.35
909.90	214.35
910.21	214.28
910.51	214.22
910.81	214.24
911.12	214.23
911.42	214.23
911.73	214.06
912.03	214.08
912.33	214.12
912.64	214.10
912.94	214.11
913.24	214.10
913.55	214.09
913.85	214.09
914.15	214.12
914.46	214.17
914.76	214.13
915.06	214.14
915.37	214.10
915.67	214.08
915.97	214.09
916.27	214.06
916.58	214.09
916.88	214.10
917.18	214.08
917.49	214.26
917.79	214.26
918.09	214.28
918.39	214.32
918.70	214.29
919.00	214.29
919.30	214.41
919.60	214.43
919.91	214.40
920.21	214.40
920.51	214.37
920.81	214.38
921.12	214.43
921.42	214.42
921.72	214.43
922.02	214.44
922.32	214.48
922.63	214.47
922.93	214.59
923.23	214.61
923.53	214.55
923.83	214.37
924.13	214.36
924.44	214.33
924.74	214.34
925.04	214.38
925.34	214.40
925.64	214.28
925.94	214.26
926.24	214.38
926.55	214.35
926.85	214.37
927.15	214.31
927.45	214.28
927.75	214.27
928.05	214.27
928.35	214.27
928.65	214.28
928.95	214.32
929.26	214.23
929.56	214.25
929.86	214.30
930.16	214.31
930.46	214.30
930.76	214.34
931.06	214.26
931.36	214.23
931.66	214.24
931.96	214.28
932.26	214.26
932.56	214.18
932.86	214.20
933.16	214.23
933.46	214.24
933.76	214.24
934.06	214.30
934.36	214.40
934.66	214.38
934.96	214.37
935.26	214.37
935.56	214.37
935.86	214.31
936.16	214.32
936.46	214.28
936.76	214.28
937.06	214.23
937.36	214.24
937.66	214.24
937.96	214.22
938.26	214.15
938.56	214.14
938.86	214.17
939.16	214.22
939.46	214.21
939.76	214.23
940.06	214.21
940.35	214.13
940.65	214.00
940.95	214.01
941.25	213.97
941.55	213.94
941.85	213.95
942.15	214.03
942.45	214.06
942.75	214.08
943.04	214.08
943.34	214.09
943.64	214.09
943.94	214.05
944.24	214.04
944.54	214.08
944.84	214.07
945.13	214.00
945.43	213.96
945.73	213.95
946.03	213.92
946.33	213.91
946.62	213.91
946.92	213.92
947.22	213.93
947.52	213.93
947.82	213.94
948.11	213.91
948.41	213.86
948.71	213.80
949.01	213.83
949.31	213.84
949.60	213.89
949.90	213.89
950.20	213.89
950.50	213.89
950.79	213.87
951.09	213.89
951.39	213.88
951.69	213.88
951.98	213.93
952.28	213.95
952.58	213.95
952.87	213.99
953.17	214.02
953.47	213.98
953.76	214.00
954.06	213.97
954.36	213.95
954.66	213.93
954.95	214.02
955.25	214.00
955.55	213.98
955.84	213.90
956.14	213.94
956.44	213.94
956.73	213.92
957.03	213.95
957.32	213.99
957.62	213.99
957.92	214.02
958.21	213.98
958.51	214.19
958.81	214.22
959.10	214.25
959.40	214.27
959.69	214.28
959.99	214.31
960.29	214.34
960.58	214.32
960.88	214.41
961.17	214.38
961.47	214.40
961.76	214.44
962.06	214.46
962.36	214.40
962.65	214.41
962.95	214.41
963.24	214.38
963.54	214.37
963.83	214.42
964.13	214.40
964.42	214.34
964.72	214.19
965.01	214.17
965.31	214.10
965.60	214.07
965.90	214.20
966.19	214.15
966.49	214.16
966.78	214.15
967.08	214.12
967.37	214.11
967.67	214.08
967.96	214.09
968.26	214.12
968.55	214.17
968.85	214.13
969.14	214.15
969.43	214.16
969.73	214.13
970.02	214.08
970.32	214.08
970.61	214.10
970.91	214.02
971.20	214.04
971.49	214.02
971.79	213.99
972.08	213.83
972.38	213.86
972.67	213.85
972.96	213.87
973.26	213.83
973.55	213.91
973.85	213.90
974.14	213.85
974.43	213.83
974.73	213.78
975.02	213.84
975.31	213.81
975.61	213.80
975.90	213.78
976.19	213.76
976.49	213.80
976.78	213.80
977.07	213.80
977.37	213.79
977.66	213.84
977.95	213.83
978.24	213.86
978.54	213.90
978.83	213.89
979.12	213.88
979.42	213.86
979.71	213.78
980.00	213.77
980.29	213.81
980.59	213.76
980.88	213.81
981.17	213.75
981.46	213.79
981.76	213.81
982.05	213.87
982.34	213.91
982.63	213.89
982.93	213.88
983.22	213.95
983.51	213.95
983.80	213.97
984.09	214.00
984.39	213.99
984.68	213.96
984.97	213.97
985.26	213.96
985.55	214.00
985.85	213.98
986.14	214.03
986.43	214.04
986.72	214.05
987.01	213.99
987.30	214.01
987.59	213.99
987.89	214.00
988.18	213.94
988.47	213.91
988.76	213.90
989.05	213.89
989.34	213.84
989.63	213.90
989.92	213.86
990.22	213.82
990.51	213.81
990.80	213.78
991.09	213.80
991.38	213.84
991.67	213.82
991.96	213.76
992.25	213.79
992.54	213.76
992.83	213.76
993.12	213.78
993.41	213.82
993.70	213.90
993.99	213.95
994.28	214.00
994.58	214.03
994.87	214.03
995.16	214.01
995.45	213.99
995.74	213.89
996.03	213.91
996.32	213.97
996.61	214.02
996.90	214.04
997.19	213.99
997.48	213.97
997.77	213.94
998.06	214.00
998.34	213.93
998.63	213.93
998.92	213.94
999.21	213.91
999.50	213.86
999.79	213.80
1000.08	213.73
1000.37	213.75
1000.66	213.73
1000.95	213.77
1001.24	213.82
1001.53	213.86
1001.82	213.89
1002.11	213.85
1002.40	213.84
1002.68	213.87
1002.97	214.01
1003.26	214.00
1003.55	213.96
1003.84	213.97
1004.13	214.02
1004.42	214.01
1004.71	213.98
1004.99	213.94
1005.28	214.02
1005.57	214.03
1005.86	213.98
1006.15	213.98
1006.44	213.92
1006.72	213.94
1007.01	213.90
1007.30	213.87
1007.59	213.82
1007.88	213.81
1008.17	213.85
1008.45	213.83
1008.74	213.74
1009.03	213.65
1009.32	213.66
1009.60	213.68
1009.89	213.68
1010.18	213.61
1010.47	213.60
1010.76	213.61
1011.04	213.63
1011.33	213.65
1011.62	213.71
1011.91	213.78
1012.19	213.78
1012.48	213.77
1012.77	213.77
1013.05	213.87
1013.34	213.88
1013.63	213.87
1013.92	213.88
1014.20	213.84
1014.49	213.83
1014.78	213.86
1015.06	213.79
1015.35	213.78
1015.64	213.80
1015.92	213.83
1016.21	213.86
1016.50	213.90
1016.78	213.92
1017.07	213.97
1017.36	213.89
1017.64	213.81
1017.93	213.79
1018.22	213.81
1018.50	213.81
1018.79	213.81
1019.08	213.73
1019.36	213.73
1019.65	213.73
1019.93	213.74
1020.22	213.79
1020.51	213.90
1020.79	213.89
1021.08	213.84
1021.36	213.51
1021.65	213.78
1021.94	214.02
1022.22	214.05
1022.51	213.17
1022.79	213.92
1023.08	214.33
1023.36	216.01
1023.65	213.50
>>>>>End Processed Spectral Data<<<<<
