SpectraSuite Data File
++++++++++++++++++++++++++++++++++++
Date: Tue Jan 29 16:17:18 EST 2013
User: group
Dark Spectrum Present: No
Reference Spectrum Present: No
Number of Sampled Component Spectra: 1
Spectrometers: USB2E7196
Integration Time (usec): 65000 (USB2E7196)
Spectra Averaged: 100 (USB2E7196)
Boxcar Smoothing: 10 (USB2E7196)
Correct for Electrical Dark: No (USB2E7196)
Strobe/Lamp Enabled: No (USB2E7196)
Correct for Detector Non-linearity: No (USB2E7196)
Correct for Stray Light: No (USB2E7196)
Number of Pixels in Processed Spectrum: 2048
>>>>>Begin Processed Spectral Data<<<<<
339.09	0.00
339.48	202.43
339.86	204.21
340.24	204.90
340.63	207.08
341.01	211.45
341.39	209.99
341.78	210.89
342.16	213.22
342.54	212.56
342.93	201.93
343.31	212.12
343.69	212.65
344.07	213.13
344.46	213.59
344.84	213.98
345.22	214.14
345.60	214.39
345.99	214.60
346.37	214.71
346.75	214.83
347.13	214.88
347.52	214.93
347.90	215.05
348.28	215.06
348.66	215.15
349.05	215.10
349.43	215.15
349.81	215.22
350.19	215.28
350.57	215.34
350.96	215.43
351.34	215.54
351.72	215.66
352.10	215.75
352.48	215.81
352.87	215.86
353.25	215.91
353.63	215.95
354.01	215.98
354.39	216.05
354.77	216.10
355.15	216.24
355.54	216.33
355.92	216.33
356.30	216.36
356.68	216.56
357.06	216.63
357.44	216.66
357.82	216.68
358.20	216.73
358.58	216.77
358.97	216.83
359.35	216.92
359.73	217.01
360.11	217.05
360.49	217.12
360.87	217.15
361.25	217.24
361.63	217.36
362.01	217.42
362.39	217.43
362.77	217.51
363.15	217.52
363.53	217.53
363.91	217.56
364.29	217.60
364.67	217.42
365.05	217.45
365.43	217.48
365.81	217.52
366.19	217.66
366.57	217.75
366.95	217.76
367.33	217.72
367.71	217.67
368.09	217.70
368.47	217.71
368.85	217.70
369.23	217.72
369.61	217.66
369.99	217.72
370.37	217.73
370.75	217.79
371.13	217.72
371.51	217.66
371.89	217.68
372.27	217.67
372.65	217.65
373.03	217.61
373.41	217.56
373.78	217.48
374.16	217.30
374.54	217.20
374.92	217.16
375.30	217.12
375.68	217.06
376.06	217.02
376.44	216.98
376.82	216.94
377.19	216.88
377.57	216.80
377.95	216.70
378.33	216.65
378.71	216.51
379.09	216.55
379.47	216.53
379.84	216.45
380.22	216.40
380.60	216.33
380.98	216.30
381.36	216.26
381.73	216.19
382.11	216.21
382.49	216.19
382.87	216.12
383.25	216.09
383.62	216.29
384.00	216.21
384.38	216.15
384.76	216.15
385.13	216.21
385.51	216.22
385.89	216.16
386.27	216.11
386.64	216.08
387.02	216.03
387.40	215.95
387.78	215.96
388.15	215.94
388.53	215.90
388.91	215.87
389.29	215.83
389.66	215.87
390.04	215.82
390.42	215.85
390.79	215.84
391.17	215.82
391.55	215.60
391.92	215.61
392.30	215.64
392.68	215.57
393.05	215.53
393.43	215.50
393.81	215.50
394.18	215.49
394.56	215.51
394.94	215.54
395.31	215.57
395.69	215.62
396.06	215.67
396.44	215.75
396.82	215.74
397.19	215.87
397.57	215.85
397.95	215.90
398.32	215.83
398.70	215.88
399.07	215.95
399.45	215.97
399.82	216.02
400.20	216.06
400.58	216.15
400.95	216.13
401.33	216.26
401.70	216.52
402.08	216.61
402.45	216.70
402.83	216.81
403.20	216.91
403.58	217.02
403.95	217.17
404.33	217.28
404.71	217.43
405.08	217.70
405.46	217.88
405.83	218.07
406.21	218.30
406.58	218.51
406.96	218.74
407.33	219.02
407.70	219.31
408.08	219.73
408.45	220.08
408.83	220.48
409.20	220.80
409.58	221.01
409.95	221.47
410.33	221.91
410.70	222.33
411.08	222.87
411.45	223.40
411.82	223.92
412.20	224.59
412.57	225.42
412.95	225.96
413.32	226.80
413.69	227.63
414.07	228.46
414.44	229.42
414.82	230.41
415.19	231.53
415.56	232.67
415.94	233.83
416.31	235.16
416.68	236.49
417.06	238.04
417.43	239.57
417.81	241.21
418.18	242.93
418.55	244.80
418.93	246.78
419.30	248.80
419.67	250.97
420.04	253.14
420.42	255.43
420.79	258.16
421.16	260.80
421.54	263.61
421.91	266.55
422.28	269.56
422.66	272.76
423.03	275.92
423.40	279.19
423.77	282.65
424.15	286.20
424.52	289.91
424.89	293.91
425.26	297.84
425.64	301.59
426.01	305.73
426.38	310.07
426.75	314.45
427.13	319.01
427.50	323.82
427.87	328.87
428.24	333.86
428.61	338.65
428.99	344.00
429.36	349.81
429.73	355.49
430.10	361.13
430.47	366.99
430.85	373.10
431.22	379.62
431.59	386.47
431.96	393.08
432.33	400.33
432.70	407.32
433.08	415.57
433.45	423.36
433.82	431.14
434.19	439.71
434.56	448.11
434.93	456.11
435.30	464.14
435.68	473.00
436.05	481.71
436.42	490.28
436.79	498.16
437.16	506.60
437.53	515.56
437.90	524.38
438.27	533.00
438.64	541.87
439.01	550.03
439.38	557.28
439.75	564.36
440.13	572.49
440.50	580.24
440.87	586.46
441.24	592.88
441.61	599.90
441.98	605.07
442.35	611.16
442.72	617.28
443.09	623.17
443.46	626.78
443.83	629.16
444.20	631.32
444.57	634.30
444.94	635.69
445.31	637.06
445.68	638.42
446.05	638.96
446.42	638.18
446.79	637.25
447.16	636.28
447.53	635.51
447.90	632.25
448.27	629.03
448.64	624.50
449.01	621.31
449.37	615.63
449.74	610.19
450.11	603.51
450.48	596.42
450.85	589.14
451.22	582.80
451.59	576.88
451.96	571.23
452.33	563.66
452.70	556.86
453.07	548.70
453.43	540.37
453.80	532.43
454.17	524.72
454.54	517.47
454.91	509.57
455.28	501.93
455.65	494.81
456.02	487.62
456.38	481.51
456.75	473.94
457.12	467.64
457.49	461.36
457.86	455.52
458.23	450.36
458.59	444.65
458.96	438.92
459.33	433.84
459.70	428.69
460.07	424.63
460.43	419.87
460.80	415.41
461.17	411.57
461.54	407.53
461.91	403.68
462.27	399.74
462.64	396.43
463.01	392.75
463.38	389.18
463.74	385.59
464.11	382.49
464.48	379.75
464.85	376.73
465.21	374.35
465.58	371.71
465.95	368.59
466.32	366.06
466.68	363.57
467.05	361.07
467.42	358.62
467.78	356.00
468.15	353.60
468.52	351.83
468.88	349.49
469.25	347.32
469.62	345.57
469.98	343.68
470.35	341.97
470.72	340.32
471.08	338.63
471.45	337.21
471.82	335.72
472.18	334.15
472.55	333.01
472.92	331.71
473.28	330.59
473.65	329.59
474.02	328.56
474.38	327.71
474.75	327.01
475.11	326.25
475.48	325.74
475.85	325.28
476.21	324.82
476.58	324.50
476.94	324.32
477.31	324.06
477.67	323.89
478.04	323.71
478.41	323.68
478.77	323.85
479.14	323.81
479.50	323.99
479.87	324.27
480.23	324.59
480.60	324.84
480.96	325.14
481.33	325.77
481.69	326.32
482.06	326.86
482.42	327.34
482.79	327.96
483.15	328.75
483.52	329.71
483.88	330.60
484.25	331.54
484.61	332.59
484.98	333.64
485.34	334.90
485.71	336.34
486.07	337.78
486.44	339.15
486.80	340.76
487.17	342.40
487.53	344.20
487.90	346.04
488.26	348.08
488.62	350.22
488.99	352.25
489.35	354.48
489.72	356.85
490.08	359.35
490.44	361.93
490.81	364.65
491.17	367.40
491.54	370.30
491.90	373.36
492.26	376.55
492.63	379.95
492.99	383.43
493.36	387.08
493.72	390.95
494.08	394.92
494.45	399.12
494.81	403.44
495.17	407.82
495.54	412.52
495.90	417.31
496.26	422.22
496.63	427.37
496.99	432.68
497.35	438.20
497.72	443.99
498.08	449.88
498.44	455.96
498.80	462.27
499.17	468.74
499.53	475.39
499.89	482.29
500.26	489.22
500.62	496.25
500.98	503.55
501.34	510.95
501.71	518.71
502.07	526.44
502.43	534.42
502.79	542.55
503.16	550.94
503.52	559.44
503.88	568.06
504.24	576.97
504.60	585.95
504.97	595.14
505.33	604.36
505.69	614.07
506.05	623.90
506.41	633.67
506.78	643.66
507.14	653.82
507.50	664.20
507.86	674.82
508.22	685.44
508.59	696.03
508.95	707.07
509.31	718.20
509.67	729.52
510.03	740.82
510.39	752.46
510.75	764.13
511.12	776.00
511.48	787.98
511.84	800.15
512.20	812.26
512.56	824.74
512.92	837.41
513.28	849.98
513.64	862.53
514.00	875.18
514.37	888.02
514.73	900.96
515.09	913.70
515.45	926.43
515.81	939.37
516.17	952.53
516.53	965.56
516.89	978.53
517.25	991.56
517.61	1004.89
517.97	1018.07
518.33	1030.99
518.69	1044.27
519.05	1057.74
519.41	1071.10
519.77	1084.83
520.13	1097.91
520.49	1110.73
520.85	1123.82
521.21	1136.87
521.57	1150.29
521.93	1163.08
522.29	1176.53
522.65	1189.95
523.01	1203.17
523.37	1215.96
523.73	1229.04
524.09	1241.79
524.45	1254.91
524.81	1268.07
525.17	1281.23
525.53	1294.05
525.89	1307.15
526.25	1319.92
526.61	1332.42
526.97	1345.20
527.33	1357.84
527.68	1371.10
528.04	1384.37
528.40	1397.21
528.76	1410.23
529.12	1422.87
529.48	1435.91
529.84	1447.89
530.20	1460.33
530.56	1472.69
530.91	1485.78
531.27	1498.34
531.63	1510.90
531.99	1523.29
532.35	1535.22
532.71	1547.22
533.07	1559.78
533.42	1571.55
533.78	1583.39
534.14	1595.16
534.50	1606.12
534.86	1617.31
535.21	1627.81
535.57	1638.97
535.93	1649.96
536.29	1660.77
536.65	1671.84
537.00	1682.43
537.36	1693.46
537.72	1704.12
538.08	1715.16
538.44	1725.75
538.79	1736.41
539.15	1746.86
539.51	1757.23
539.87	1768.33
540.22	1778.79
540.58	1789.36
540.94	1799.99
541.29	1809.97
541.65	1819.56
542.01	1829.84
542.37	1839.59
542.72	1849.41
543.08	1858.89
543.44	1869.00
543.79	1877.94
544.15	1887.05
544.51	1896.69
544.87	1906.19
545.22	1914.91
545.58	1923.42
545.94	1932.00
546.29	1940.28
546.65	1948.45
547.01	1956.48
547.36	1963.74
547.72	1971.34
548.07	1978.77
548.43	1986.16
548.79	1993.73
549.14	2001.56
549.50	2009.69
549.86	2017.39
550.21	2024.53
550.57	2031.89
550.92	2038.54
551.28	2045.93
551.64	2053.09
551.99	2060.40
552.35	2067.49
552.70	2074.33
553.06	2080.94
553.41	2087.04
553.77	2093.36
554.13	2099.53
554.48	2106.23
554.84	2113.10
555.19	2119.27
555.55	2125.60
555.90	2131.87
556.26	2138.47
556.61	2144.28
556.97	2149.06
557.32	2154.81
557.68	2161.12
558.03	2166.79
558.39	2171.91
558.74	2177.70
559.10	2183.20
559.45	2188.69
559.81	2194.12
560.16	2199.55
560.52	2205.37
560.87	2211.73
561.23	2217.59
561.58	2224.25
561.94	2229.53
562.29	2234.30
562.64	2240.48
563.00	2246.01
563.35	2251.57
563.71	2257.41
564.06	2263.03
564.42	2268.73
564.77	2273.87
565.12	2279.05
565.48	2284.25
565.83	2289.78
566.19	2295.29
566.54	2300.49
566.89	2305.07
567.25	2309.64
567.60	2315.34
567.96	2320.49
568.31	2325.09
568.66	2329.44
569.02	2333.27
569.37	2337.02
569.72	2341.52
570.08	2344.98
570.43	2348.02
570.78	2351.14
571.14	2353.72
571.49	2356.88
571.84	2360.65
572.20	2363.47
572.55	2366.64
572.90	2368.87
573.26	2371.79
573.61	2374.21
573.96	2376.53
574.31	2378.71
574.67	2380.71
575.02	2381.72
575.37	2383.18
575.72	2384.04
576.08	2385.55
576.43	2385.95
576.78	2386.68
577.13	2388.38
577.49	2389.71
577.84	2391.06
578.19	2392.60
578.54	2393.33
578.90	2394.35
579.25	2394.31
579.60	2394.45
579.95	2393.74
580.30	2394.18
580.66	2393.46
581.01	2392.07
581.36	2390.09
581.71	2388.93
582.06	2387.92
582.42	2387.08
582.77	2385.08
583.12	2383.55
583.47	2382.38
583.82	2381.86
584.17	2380.86
584.53	2378.77
584.88	2376.90
585.23	2375.20
585.58	2373.10
585.93	2371.11
586.28	2369.09
586.63	2366.87
586.98	2364.84
587.34	2363.23
587.69	2360.96
588.04	2359.18
588.39	2357.77
588.74	2355.35
589.09	2352.87
589.44	2349.98
589.79	2347.69
590.14	2345.92
590.49	2343.34
590.84	2339.65
591.19	2336.85
591.54	2333.55
591.89	2329.76
592.25	2326.63
592.60	2322.45
592.95	2318.44
593.30	2314.45
593.65	2310.27
594.00	2306.04
594.35	2303.02
594.70	2298.34
595.05	2293.76
595.40	2288.50
595.75	2283.02
596.10	2279.48
596.45	2274.75
596.80	2270.27
597.15	2265.15
597.50	2259.43
597.85	2254.53
598.19	2249.36
598.54	2243.64
598.89	2238.73
599.24	2234.31
599.59	2228.24
599.94	2222.76
600.29	2216.92
600.64	2211.10
600.99	2204.54
601.34	2199.19
601.69	2192.41
602.04	2186.26
602.39	2179.90
602.74	2174.00
603.08	2168.57
603.43	2162.05
603.78	2155.20
604.13	2148.18
604.48	2141.14
604.83	2135.05
605.18	2128.92
605.53	2122.17
605.87	2115.28
606.22	2108.52
606.57	2100.79
606.92	2093.08
607.27	2086.23
607.62	2079.75
607.96	2072.79
608.31	2066.24
608.66	2058.45
609.01	2050.91
609.36	2043.82
609.70	2036.23
610.05	2028.48
610.40	2020.30
610.75	2012.22
611.10	2004.66
611.44	1995.97
611.79	1987.27
612.14	1977.32
612.49	1966.85
612.83	1957.77
613.18	1948.68
613.53	1939.37
613.88	1929.82
614.22	1921.31
614.57	1911.35
614.92	1900.84
615.27	1890.88
615.61	1881.06
615.96	1871.56
616.31	1862.04
616.65	1852.65
617.00	1842.80
617.35	1833.24
617.70	1823.61
618.04	1813.53
618.39	1803.25
618.74	1793.63
619.08	1784.17
619.43	1775.62
619.78	1767.47
620.12	1758.76
620.47	1748.96
620.82	1738.71
621.16	1728.96
621.51	1719.03
621.85	1709.25
622.20	1698.69
622.55	1688.15
622.89	1678.14
623.24	1668.47
623.59	1658.88
623.93	1648.80
624.28	1639.15
624.62	1629.13
624.97	1618.83
625.32	1609.22
625.66	1600.42
626.01	1591.60
626.35	1582.14
626.70	1572.09
627.04	1561.93
627.39	1551.95
627.73	1542.73
628.08	1533.77
628.43	1524.25
628.77	1514.91
629.12	1506.08
629.46	1498.37
629.81	1490.13
630.15	1480.62
630.50	1470.81
630.84	1460.16
631.19	1450.29
631.53	1440.99
631.88	1430.80
632.22	1420.89
632.57	1411.59
632.91	1401.41
633.26	1391.73
633.60	1382.23
633.95	1372.97
634.29	1363.57
634.64	1354.29
634.98	1344.41
635.32	1335.16
635.67	1326.62
636.01	1317.55
636.36	1307.86
636.70	1298.42
637.05	1288.99
637.39	1280.10
637.73	1271.65
638.08	1264.26
638.42	1256.13
638.77	1247.35
639.11	1239.15
639.45	1231.28
639.80	1222.61
640.14	1214.17
640.49	1205.32
640.83	1196.50
641.17	1188.41
641.52	1180.39
641.86	1171.83
642.20	1164.11
642.55	1155.60
642.89	1146.76
643.23	1138.12
643.58	1130.08
643.92	1121.09
644.26	1112.58
644.61	1104.19
644.95	1095.41
645.29	1086.17
645.64	1077.11
645.98	1068.72
646.32	1060.93
646.66	1052.46
647.01	1044.23
647.35	1036.07
647.69	1027.71
648.04	1019.55
648.38	1010.73
648.72	1001.90
649.06	993.51
649.41	985.33
649.75	977.37
650.09	969.64
650.43	961.69
650.78	953.49
651.12	945.93
651.46	938.55
651.80	931.38
652.14	924.12
652.49	916.76
652.83	909.48
653.17	901.90
653.51	894.24
653.85	887.13
654.20	879.99
654.54	872.59
654.88	865.58
655.22	858.50
655.56	851.57
655.90	844.85
656.25	838.26
656.59	831.44
656.93	824.57
657.27	817.50
657.61	810.62
657.95	804.63
658.29	798.79
658.64	792.71
658.98	786.35
659.32	779.85
659.66	773.67
660.00	767.41
660.34	761.46
660.68	755.49
661.02	749.31
661.36	743.50
661.70	737.74
662.05	732.07
662.39	726.63
662.73	721.41
663.07	716.14
663.41	710.58
663.75	704.93
664.09	699.44
664.43	694.11
664.77	688.85
665.11	683.07
665.45	677.23
665.79	671.46
666.13	665.80
666.47	660.38
666.81	655.04
667.15	649.78
667.49	644.65
667.83	639.47
668.17	634.32
668.51	629.20
668.85	624.38
669.19	619.57
669.53	614.67
669.87	609.58
670.21	604.90
670.55	600.31
670.89	596.08
671.23	591.81
671.57	587.51
671.91	583.27
672.25	579.27
672.58	575.26
672.92	571.27
673.26	567.45
673.60	563.69
673.94	559.92
674.28	556.36
674.62	552.72
674.96	549.04
675.30	545.55
675.64	542.06
675.97	538.54
676.31	535.01
676.65	531.41
676.99	528.09
677.33	524.33
677.67	520.68
678.01	516.79
678.34	513.15
678.68	509.69
679.02	506.17
679.36	502.54
679.70	498.95
680.04	495.50
680.37	492.13
680.71	488.88
681.05	485.78
681.39	482.60
681.73	479.47
682.06	476.53
682.40	473.48
682.74	470.29
683.08	467.15
683.42	464.01
683.75	461.07
684.09	458.12
684.43	455.39
684.77	452.59
685.10	449.85
685.44	447.03
685.78	444.18
686.12	441.42
686.45	438.71
686.79	436.07
687.13	433.62
687.46	431.06
687.80	428.41
688.14	425.55
688.48	423.00
688.81	420.36
689.15	417.80
689.49	415.27
689.82	412.76
690.16	410.23
690.50	407.86
690.83	405.44
691.17	402.94
691.51	400.57
691.84	398.35
692.18	396.19
692.52	394.03
692.85	391.94
693.19	389.89
693.52	387.78
693.86	385.66
694.20	383.49
694.53	381.40
694.87	379.27
695.21	377.23
695.54	375.12
695.88	373.02
696.21	370.82
696.55	368.75
696.88	366.75
697.22	364.82
697.56	362.98
697.89	361.18
698.23	359.47
698.56	357.71
698.90	355.99
699.23	354.06
699.57	352.26
699.90	350.48
700.24	348.72
700.58	347.06
700.91	345.45
701.25	343.92
701.58	342.35
701.92	340.81
702.25	339.26
702.59	337.65
702.92	336.13
703.26	334.67
703.59	333.23
703.93	332.04
704.26	330.68
704.60	329.18
704.93	327.74
705.26	326.27
705.60	324.79
705.93	323.28
706.27	322.05
706.60	320.80
706.94	319.57
707.27	318.21
707.61	316.87
707.94	315.59
708.27	314.11
708.61	312.69
708.94	311.33
709.28	310.09
709.61	308.94
709.94	307.77
710.28	306.59
710.61	305.43
710.95	304.05
711.28	302.99
711.61	301.85
711.95	300.73
712.28	299.58
712.61	298.45
712.95	297.46
713.28	296.44
713.61	295.34
713.95	294.22
714.28	293.21
714.61	292.22
714.95	291.18
715.28	290.23
715.61	289.25
715.95	288.31
716.28	287.38
716.61	286.44
716.95	285.49
717.28	284.59
717.61	283.64
717.94	282.75
718.28	281.76
718.61	280.92
718.94	280.02
719.27	279.20
719.61	278.40
719.94	277.52
720.27	276.59
720.60	275.76
720.94	275.00
721.27	274.27
721.60	273.56
721.93	272.88
722.27	272.27
722.60	271.64
722.93	271.00
723.26	270.35
723.59	269.64
723.93	269.02
724.26	268.39
724.59	267.78
724.92	267.21
725.25	266.67
725.59	266.12
725.92	265.63
726.25	265.06
726.58	264.48
726.91	263.94
727.24	263.43
727.57	262.87
727.91	262.27
728.24	261.75
728.57	261.18
728.90	260.64
729.23	260.01
729.56	259.58
729.89	259.05
730.22	258.52
730.55	258.00
730.89	257.47
731.22	256.98
731.55	256.46
731.88	255.94
732.21	255.38
732.54	254.83
732.87	254.31
733.20	253.86
733.53	253.38
733.86	252.91
734.19	252.41
734.52	252.01
734.85	251.76
735.18	251.31
735.51	250.97
735.84	250.52
736.17	250.14
736.50	249.62
736.83	249.45
737.16	249.03
737.49	248.63
737.82	248.23
738.15	247.88
738.48	247.55
738.81	247.21
739.14	246.83
739.47	246.49
739.80	246.11
740.13	245.75
740.46	245.36
740.79	244.99
741.12	244.67
741.45	244.32
741.78	243.87
742.11	243.58
742.44	243.17
742.77	242.89
743.10	242.56
743.43	242.22
743.75	241.68
744.08	241.63
744.41	241.29
744.74	240.98
745.07	240.60
745.40	240.32
745.73	240.05
746.06	239.72
746.39	239.42
746.71	239.12
747.04	238.80
747.37	238.54
747.70	238.25
748.03	237.97
748.36	237.68
748.68	237.39
749.01	237.07
749.34	236.81
749.67	236.51
750.00	236.29
750.33	236.18
750.65	235.94
750.98	235.43
751.31	235.21
751.64	235.00
751.97	234.91
752.29	234.63
752.62	234.29
752.95	234.09
753.28	233.81
753.60	233.60
753.93	233.46
754.26	233.26
754.59	233.04
754.91	232.75
755.24	232.54
755.57	232.30
755.90	232.06
756.22	231.81
756.55	231.58
756.88	231.31
757.20	230.97
757.53	230.71
757.86	230.50
758.19	230.31
758.51	230.11
758.84	229.76
759.17	229.57
759.49	229.42
759.82	229.34
760.15	229.20
760.47	228.99
760.80	228.73
761.13	228.54
761.45	228.30
761.78	228.16
762.11	227.96
762.43	227.77
762.76	227.58
763.08	227.46
763.41	227.30
763.74	227.15
764.06	227.00
764.39	226.86
764.71	226.69
765.04	226.51
765.37	226.34
765.69	226.23
766.02	226.08
766.34	225.91
766.67	225.69
767.00	225.58
767.32	225.59
767.65	225.57
767.97	225.42
768.30	225.33
768.62	225.21
768.95	225.08
769.27	224.98
769.60	224.92
769.92	224.73
770.25	224.58
770.57	224.40
770.90	224.29
771.22	224.16
771.55	224.07
771.87	223.97
772.20	223.84
772.52	223.90
772.85	224.04
773.17	223.97
773.50	223.88
773.82	223.78
774.15	223.57
774.47	223.34
774.80	223.25
775.12	223.15
775.45	223.08
775.77	223.02
776.09	222.93
776.42	222.86
776.74	222.87
777.07	222.78
777.39	222.71
777.72	222.62
778.04	222.57
778.36	222.47
778.69	222.42
779.01	222.39
779.33	222.12
779.66	221.80
779.98	221.69
780.31	221.61
780.63	221.59
780.95	221.55
781.28	221.53
781.60	221.45
781.92	221.38
782.25	221.31
782.57	221.22
782.89	221.12
783.22	221.01
783.54	220.91
783.86	220.86
784.19	220.81
784.51	220.82
784.83	220.71
785.16	220.67
785.48	220.60
785.80	220.56
786.12	220.52
786.45	220.46
786.77	220.42
787.09	220.36
787.42	220.23
787.74	220.20
788.06	220.13
788.38	220.06
788.71	220.00
789.03	219.93
789.35	219.93
789.67	219.88
789.99	219.86
790.32	219.77
790.64	219.79
790.96	219.90
791.28	219.78
791.61	219.74
791.93	219.70
792.25	219.65
792.57	219.73
792.89	219.67
793.21	219.63
793.54	219.55
793.86	219.47
794.18	219.45
794.50	219.31
794.82	219.29
795.14	219.25
795.47	219.24
795.79	219.22
796.11	219.10
796.43	219.04
796.75	218.99
797.07	218.95
797.39	218.87
797.71	218.67
798.04	218.68
798.36	218.64
798.68	218.60
799.00	218.57
799.32	218.44
799.64	218.45
799.96	218.40
800.28	218.44
800.60	218.40
800.92	218.39
801.24	218.38
801.56	218.35
801.89	218.32
802.21	218.28
802.53	218.19
802.85	218.21
803.17	218.31
803.49	218.25
803.81	218.22
804.13	218.21
804.45	218.20
804.77	218.17
805.09	218.15
805.41	218.12
805.73	218.03
806.05	217.96
806.37	217.91
806.69	217.90
807.01	217.83
807.33	217.83
807.65	217.71
807.97	217.78
808.28	217.71
808.60	217.69
808.92	217.65
809.24	217.76
809.56	217.70
809.88	217.57
810.20	217.56
810.52	217.56
810.84	217.51
811.16	217.43
811.48	217.38
811.80	217.44
812.12	217.38
812.43	217.44
812.75	217.39
813.07	217.36
813.39	217.34
813.71	217.27
814.03	217.20
814.35	217.18
814.67	217.08
814.98	217.04
815.30	216.99
815.62	216.92
815.94	216.80
816.26	216.83
816.58	216.78
816.89	216.78
817.21	216.68
817.53	216.68
817.85	216.66
818.17	216.65
818.48	216.54
818.80	216.58
819.12	216.52
819.44	216.50
819.76	216.42
820.07	216.40
820.39	216.41
820.71	216.43
821.03	216.43
821.34	216.40
821.66	216.45
821.98	216.46
822.30	216.47
822.61	216.56
822.93	216.47
823.25	216.46
823.57	216.40
823.88	216.50
824.20	216.46
824.52	216.48
824.83	216.45
825.15	216.42
825.47	216.39
825.79	216.34
826.10	216.29
826.42	216.30
826.74	216.28
827.05	216.27
827.37	216.26
827.69	216.26
828.00	216.25
828.32	216.19
828.64	216.15
828.95	216.24
829.27	216.17
829.58	216.14
829.90	216.16
830.22	216.17
830.53	216.08
830.85	216.03
831.17	216.00
831.48	215.98
831.80	215.97
832.11	215.93
832.43	215.93
832.75	215.94
833.06	216.06
833.38	216.00
833.69	215.97
834.01	215.97
834.32	215.95
834.64	215.95
834.96	215.96
835.27	215.96
835.59	215.89
835.90	215.81
836.22	215.80
836.53	215.78
836.85	215.77
837.16	215.97
837.48	216.00
837.79	216.05
838.11	216.04
838.42	216.07
838.74	216.12
839.05	216.11
839.37	216.09
839.68	215.94
840.00	215.95
840.31	215.97
840.63	215.91
840.94	215.91
841.26	215.86
841.57	215.86
841.88	215.86
842.20	215.81
842.51	215.81
842.83	215.83
843.14	216.00
843.46	215.99
843.77	215.87
844.08	215.85
844.40	215.78
844.71	215.77
845.03	215.74
845.34	215.70
845.65	215.68
845.97	215.67
846.28	215.69
846.60	215.74
846.91	215.71
847.22	215.75
847.54	215.77
847.85	215.76
848.16	215.75
848.48	215.70
848.79	215.80
849.10	215.81
849.42	215.83
849.73	215.64
850.04	215.60
850.36	215.54
850.67	215.57
850.98	215.58
851.30	215.58
851.61	215.55
851.92	215.56
852.23	215.63
852.55	215.66
852.86	215.65
853.17	215.64
853.49	215.65
853.80	215.65
854.11	215.63
854.42	215.68
854.74	215.64
855.05	215.68
855.36	215.55
855.67	215.56
855.99	215.56
856.30	215.77
856.61	215.79
856.92	215.76
857.23	215.76
857.55	215.72
857.86	215.70
858.17	215.72
858.48	215.69
858.79	215.65
859.11	215.68
859.42	215.67
859.73	215.62
860.04	215.59
860.35	215.50
860.66	215.45
860.98	215.45
861.29	215.49
861.60	215.45
861.91	215.49
862.22	215.42
862.53	215.39
862.84	215.17
863.16	215.22
863.47	215.20
863.78	215.13
864.09	215.13
864.40	215.12
864.71	215.13
865.02	215.14
865.33	215.07
865.64	215.02
865.95	215.01
866.27	215.16
866.58	215.17
866.89	215.21
867.20	215.25
867.51	215.19
867.82	215.16
868.13	215.22
868.44	215.18
868.75	215.24
869.06	215.25
869.37	215.25
869.68	215.16
869.99	215.21
870.30	215.25
870.61	215.28
870.92	215.28
871.23	215.29
871.54	215.30
871.85	215.34
872.16	215.36
872.47	215.34
872.78	215.22
873.09	215.22
873.40	215.21
873.71	215.17
874.02	215.17
874.33	215.12
874.64	215.08
874.95	215.13
875.26	215.06
875.56	215.02
875.87	215.03
876.18	215.04
876.49	215.21
876.80	215.19
877.11	215.16
877.42	215.14
877.73	215.10
878.04	215.04
878.35	215.08
878.66	215.07
878.96	215.09
879.27	215.07
879.58	215.05
879.89	215.05
880.20	215.12
880.51	215.13
880.82	215.16
881.12	215.16
881.43	215.09
881.74	215.08
882.05	215.09
882.36	215.08
882.67	215.10
882.97	214.87
883.28	214.84
883.59	214.85
883.90	214.86
884.21	214.90
884.51	214.89
884.82	214.85
885.13	214.84
885.44	214.84
885.74	214.84
886.05	214.85
886.36	214.86
886.67	214.76
886.98	214.88
887.28	214.92
887.59	214.91
887.90	214.91
888.20	214.92
888.51	214.94
888.82	214.92
889.13	214.94
889.43	215.11
889.74	215.11
890.05	215.10
890.35	215.08
890.66	215.04
890.97	215.05
891.28	215.02
891.58	215.05
891.89	215.03
892.20	215.00
892.50	214.96
892.81	214.93
893.12	214.97
893.42	214.85
893.73	214.88
894.04	214.89
894.34	214.94
894.65	214.91
894.95	214.89
895.26	214.92
895.57	215.01
895.87	214.82
896.18	214.85
896.48	214.87
896.79	214.86
897.10	214.91
897.40	214.93
897.71	214.97
898.01	214.95
898.32	214.97
898.63	215.00
898.93	215.02
899.24	215.04
899.54	215.05
899.85	215.04
900.15	215.03
900.46	215.02
900.76	215.02
901.07	215.07
901.38	215.07
901.68	215.07
901.99	214.96
902.29	214.97
902.60	214.96
902.90	214.93
903.21	214.94
903.51	214.92
903.82	214.96
904.12	214.97
904.43	214.96
904.73	214.98
905.03	214.96
905.34	215.17
905.64	215.13
905.95	215.12
906.25	215.12
906.56	215.09
906.86	215.08
907.17	215.05
907.47	215.04
907.77	215.05
908.08	215.03
908.38	215.07
908.69	215.09
908.99	215.12
909.30	215.12
909.60	215.12
909.90	215.13
910.21	215.06
910.51	215.01
910.81	215.03
911.12	215.00
911.42	215.03
911.73	214.79
912.03	214.81
912.33	214.87
912.64	214.85
912.94	214.82
913.24	214.78
913.55	214.80
913.85	214.80
914.15	214.81
914.46	214.82
914.76	214.77
915.06	214.75
915.37	214.70
915.67	214.71
915.97	214.71
916.27	214.66
916.58	214.65
916.88	214.65
917.18	214.62
917.49	214.78
917.79	214.74
918.09	214.77
918.39	214.82
918.70	214.80
919.00	214.81
919.30	214.93
919.60	214.91
919.91	214.88
920.21	214.91
920.51	214.92
920.81	214.88
921.12	214.95
921.42	214.94
921.72	214.97
922.02	215.01
922.32	215.05
922.63	215.07
922.93	215.18
923.23	215.19
923.53	215.16
923.83	215.00
924.13	215.04
924.44	215.08
924.74	215.11
925.04	215.16
925.34	215.14
925.64	215.04
925.94	215.08
926.24	215.18
926.55	215.15
926.85	215.13
927.15	215.16
927.45	215.13
927.75	215.13
928.05	215.12
928.35	215.08
928.65	215.11
928.95	215.12
929.26	215.05
929.56	215.07
929.86	215.11
930.16	215.11
930.46	215.11
930.76	215.09
931.06	215.01
931.36	214.96
931.66	215.02
931.96	215.05
932.26	215.05
932.56	215.00
932.86	215.02
933.16	215.01
933.46	215.00
933.76	214.97
934.06	215.04
934.36	215.12
934.66	215.10
934.96	215.09
935.26	215.10
935.56	215.12
935.86	215.09
936.16	215.05
936.46	215.02
936.76	214.99
937.06	214.95
937.36	214.96
937.66	214.95
937.96	214.90
938.26	214.88
938.56	214.85
938.86	214.84
939.16	214.87
939.46	214.92
939.76	214.91
940.06	214.90
940.35	214.83
940.65	214.73
940.95	214.76
941.25	214.72
941.55	214.69
941.85	214.64
942.15	214.68
942.45	214.76
942.75	214.75
943.04	214.75
943.34	214.80
943.64	214.79
943.94	214.75
944.24	214.75
944.54	214.78
944.84	214.80
945.13	214.75
945.43	214.70
945.73	214.66
946.03	214.68
946.33	214.67
946.62	214.68
946.92	214.69
947.22	214.67
947.52	214.67
947.82	214.70
948.11	214.71
948.41	214.68
948.71	214.60
949.01	214.62
949.31	214.62
949.60	214.61
949.90	214.61
950.20	214.63
950.50	214.65
950.79	214.63
951.09	214.66
951.39	214.66
951.69	214.65
951.98	214.70
952.28	214.70
952.58	214.68
952.87	214.67
953.17	214.67
953.47	214.67
953.76	214.66
954.06	214.60
954.36	214.59
954.66	214.58
954.95	214.64
955.25	214.65
955.55	214.65
955.84	214.63
956.14	214.67
956.44	214.71
956.73	214.71
957.03	214.68
957.32	214.66
957.62	214.64
957.92	214.68
958.21	214.63
958.51	214.87
958.81	214.91
959.10	214.92
959.40	214.99
959.69	215.01
959.99	215.04
960.29	215.07
960.58	215.05
960.88	215.12
961.17	215.09
961.47	215.12
961.76	215.10
962.06	215.13
962.36	215.12
962.65	215.11
962.95	215.08
963.24	215.08
963.54	215.10
963.83	215.14
964.13	215.13
964.42	215.11
964.72	214.94
965.01	214.94
965.31	214.92
965.60	214.86
965.90	215.00
966.19	214.95
966.49	214.97
966.78	214.96
967.08	214.96
967.37	214.97
967.67	214.91
967.96	214.96
968.26	214.94
968.55	214.96
968.85	214.93
969.14	214.92
969.43	214.93
969.73	214.91
970.02	214.86
970.32	214.84
970.61	214.82
970.91	214.77
971.20	214.70
971.49	214.70
971.79	214.73
972.08	214.57
972.38	214.59
972.67	214.57
972.96	214.61
973.26	214.55
973.55	214.59
973.85	214.58
974.14	214.58
974.43	214.56
974.73	214.53
975.02	214.49
975.31	214.49
975.61	214.47
975.90	214.46
976.19	214.48
976.49	214.52
976.78	214.55
977.07	214.51
977.37	214.56
977.66	214.56
977.95	214.52
978.24	214.53
978.54	214.53
978.83	214.53
979.12	214.53
979.42	214.54
979.71	214.53
980.00	214.54
980.29	214.55
980.59	214.54
980.88	214.56
981.17	214.57
981.46	214.57
981.76	214.62
982.05	214.65
982.34	214.65
982.63	214.62
982.93	214.63
983.22	214.70
983.51	214.71
983.80	214.76
984.09	214.79
984.39	214.76
984.68	214.74
984.97	214.72
985.26	214.72
985.55	214.72
985.85	214.65
986.14	214.69
986.43	214.69
986.72	214.69
987.01	214.65
987.30	214.70
987.59	214.71
987.89	214.69
988.18	214.62
988.47	214.63
988.76	214.62
989.05	214.58
989.34	214.57
989.63	214.59
989.92	214.56
990.22	214.53
990.51	214.54
990.80	214.52
991.09	214.55
991.38	214.58
991.67	214.57
991.96	214.56
992.25	214.54
992.54	214.51
992.83	214.53
993.12	214.53
993.41	214.51
993.70	214.59
993.99	214.64
994.28	214.67
994.58	214.67
994.87	214.64
995.16	214.67
995.45	214.62
995.74	214.56
996.03	214.61
996.32	214.66
996.61	214.72
996.90	214.76
997.19	214.71
997.48	214.71
997.77	214.69
998.06	214.72
998.34	214.70
998.63	214.69
998.92	214.70
999.21	214.72
999.50	214.72
999.79	214.63
1000.08	214.60
1000.37	214.62
1000.66	214.60
1000.95	214.67
1001.24	214.65
1001.53	214.69
1001.82	214.68
1002.11	214.61
1002.40	214.60
1002.68	214.62
1002.97	214.76
1003.26	214.78
1003.55	214.73
1003.84	214.77
1004.13	214.85
1004.42	214.84
1004.71	214.86
1004.99	214.81
1005.28	214.83
1005.57	214.82
1005.86	214.81
1006.15	214.78
1006.44	214.73
1006.72	214.77
1007.01	214.75
1007.30	214.76
1007.59	214.73
1007.88	214.76
1008.17	214.77
1008.45	214.73
1008.74	214.65
1009.03	214.54
1009.32	214.51
1009.60	214.52
1009.89	214.48
1010.18	214.36
1010.47	214.37
1010.76	214.35
1011.04	214.38
1011.33	214.42
1011.62	214.44
1011.91	214.45
1012.19	214.46
1012.48	214.51
1012.77	214.48
1013.05	214.56
1013.34	214.57
1013.63	214.57
1013.92	214.56
1014.20	214.57
1014.49	214.58
1014.78	214.58
1015.06	214.54
1015.35	214.57
1015.64	214.59
1015.92	214.63
1016.21	214.68
1016.50	214.66
1016.78	214.66
1017.07	214.66
1017.36	214.60
1017.64	214.58
1017.93	214.61
1018.22	214.60
1018.50	214.56
1018.79	214.57
1019.08	214.48
1019.36	214.48
1019.65	214.44
1019.93	214.49
1020.22	214.52
1020.51	214.64
1020.79	214.63
1021.08	214.11
1021.36	213.96
1021.65	214.89
1021.94	214.36
1022.22	214.47
1022.51	213.73
1022.79	215.66
1023.08	214.80
1023.36	217.32
1023.65	214.12
>>>>>End Processed Spectral Data<<<<<
