SpectraSuite Data File
++++++++++++++++++++++++++++++++++++
Date: Tue Jan 29 16:09:36 EST 2013
User: group
Dark Spectrum Present: No
Reference Spectrum Present: No
Number of Sampled Component Spectra: 1
Spectrometers: USB2E7196
Integration Time (usec): 65000 (USB2E7196)
Spectra Averaged: 100 (USB2E7196)
Boxcar Smoothing: 10 (USB2E7196)
Correct for Electrical Dark: No (USB2E7196)
Strobe/Lamp Enabled: No (USB2E7196)
Correct for Detector Non-linearity: No (USB2E7196)
Correct for Stray Light: No (USB2E7196)
Number of Pixels in Processed Spectrum: 2048
>>>>>Begin Processed Spectral Data<<<<<
339.09	0.00
339.48	202.59
339.86	204.86
340.24	206.11
340.63	206.71
341.01	212.25
341.39	210.33
341.78	211.76
342.16	213.32
342.54	212.43
342.93	202.11
343.31	212.31
343.69	212.84
344.07	213.26
344.46	213.70
344.84	214.11
345.22	214.27
345.60	214.49
345.99	214.66
346.37	214.77
346.75	214.92
347.13	214.99
347.52	215.08
347.90	215.19
348.28	215.22
348.66	215.30
349.05	215.26
349.43	215.31
349.81	215.39
350.19	215.45
350.57	215.52
350.96	215.59
351.34	215.71
351.72	215.81
352.10	215.95
352.48	216.02
352.87	216.06
353.25	216.10
353.63	216.21
354.01	216.28
354.39	216.34
354.77	216.38
355.15	216.49
355.54	216.50
355.92	216.53
356.30	216.61
356.68	216.77
357.06	216.89
357.44	216.91
357.82	216.94
358.20	217.05
358.58	217.09
358.97	217.16
359.35	217.26
359.73	217.36
360.11	217.39
360.49	217.44
360.87	217.47
361.25	217.54
361.63	217.64
362.01	217.66
362.39	217.66
362.77	217.72
363.15	217.75
363.53	217.78
363.91	217.79
364.29	217.80
364.67	217.64
365.05	217.64
365.43	217.69
365.81	217.73
366.19	217.77
366.57	217.86
366.95	217.86
367.33	217.78
367.71	217.77
368.09	217.82
368.47	217.82
368.85	217.84
369.23	217.87
369.61	217.78
369.99	217.84
370.37	217.88
370.75	217.98
371.13	217.91
371.51	217.87
371.89	217.87
372.27	217.82
372.65	217.83
373.03	217.81
373.41	217.77
373.78	217.72
374.16	217.60
374.54	217.52
374.92	217.46
375.30	217.47
375.68	217.38
376.06	217.32
376.44	217.27
376.82	217.22
377.19	217.18
377.57	217.12
377.95	217.03
378.33	216.95
378.71	216.75
379.09	216.75
379.47	216.74
379.84	216.65
380.22	216.61
380.60	216.53
380.98	216.48
381.36	216.43
381.73	216.35
382.11	216.38
382.49	216.33
382.87	216.26
383.25	216.22
383.62	216.47
384.00	216.40
384.38	216.34
384.76	216.37
385.13	216.40
385.51	216.38
385.89	216.30
386.27	216.30
386.64	216.34
387.02	216.30
387.40	216.26
387.78	216.26
388.15	216.26
388.53	216.21
388.91	216.21
389.29	216.20
389.66	216.25
390.04	216.20
390.42	216.22
390.79	216.22
391.17	216.19
391.55	215.93
391.92	215.92
392.30	215.94
392.68	215.90
393.05	215.88
393.43	215.85
393.81	215.91
394.18	215.86
394.56	215.82
394.94	215.84
395.31	215.84
395.69	215.93
396.06	215.97
396.44	216.04
396.82	216.02
397.19	216.10
397.57	216.09
397.95	216.11
398.32	216.08
398.70	216.15
399.07	216.23
399.45	216.27
399.82	216.33
400.20	216.34
400.58	216.38
400.95	216.37
401.33	216.49
401.70	216.67
402.08	216.78
402.45	216.89
402.83	217.01
403.20	217.09
403.58	217.18
403.95	217.33
404.33	217.46
404.71	217.61
405.08	217.91
405.46	218.08
405.83	218.29
406.21	218.50
406.58	218.71
406.96	218.93
407.33	219.19
407.70	219.44
408.08	219.91
408.45	220.26
408.83	220.63
409.20	220.98
409.58	221.26
409.95	221.68
410.33	222.16
410.70	222.58
411.08	223.11
411.45	223.66
411.82	224.20
412.20	224.86
412.57	225.68
412.95	226.21
413.32	227.02
413.69	227.81
414.07	228.69
414.44	229.64
414.82	230.59
415.19	231.72
415.56	232.92
415.94	234.05
416.31	235.39
416.68	236.72
417.06	238.24
417.43	239.74
417.81	241.40
418.18	243.11
418.55	245.01
418.93	246.97
419.30	248.99
419.67	251.10
420.04	253.31
420.42	255.57
420.79	258.28
421.16	260.98
421.54	263.81
421.91	266.70
422.28	269.67
422.66	272.88
423.03	275.99
423.40	279.23
423.77	282.73
424.15	286.32
424.52	290.06
424.89	294.12
425.26	298.05
425.64	301.85
426.01	305.99
426.38	310.29
426.75	314.73
427.13	319.31
427.50	324.19
427.87	329.26
428.24	334.35
428.61	339.16
428.99	344.47
429.36	350.26
429.73	355.95
430.10	361.63
430.47	367.46
430.85	373.61
431.22	380.09
431.59	386.93
431.96	393.45
432.33	400.72
432.70	407.71
433.08	415.92
433.45	423.71
433.82	431.46
434.19	440.03
434.56	448.40
434.93	456.41
435.30	464.37
435.68	473.11
436.05	481.75
436.42	490.33
436.79	498.14
437.16	506.68
437.53	515.62
437.90	524.45
438.27	533.15
438.64	541.99
439.01	550.24
439.38	557.61
439.75	564.75
440.13	572.83
440.50	580.49
440.87	586.71
441.24	593.16
441.61	600.19
441.98	605.42
442.35	611.51
442.72	617.63
443.09	623.47
443.46	627.05
443.83	629.51
444.20	631.64
444.57	634.64
444.94	635.95
445.31	637.33
445.68	638.71
446.05	639.30
446.42	638.56
446.79	637.57
447.16	636.45
447.53	635.66
447.90	632.45
448.27	629.25
448.64	624.76
449.01	621.47
449.37	615.83
449.74	610.36
450.11	603.72
450.48	596.60
450.85	589.35
451.22	583.14
451.59	577.15
451.96	571.58
452.33	564.04
452.70	557.15
453.07	548.93
453.43	540.59
453.80	532.51
454.17	524.83
454.54	517.61
454.91	509.74
455.28	502.07
455.65	494.97
456.02	487.76
456.38	481.68
456.75	474.14
457.12	467.81
457.49	461.52
457.86	455.56
458.23	450.39
458.59	444.75
458.96	439.01
459.33	433.92
459.70	428.73
460.07	424.65
460.43	420.00
460.80	415.64
461.17	411.81
461.54	407.84
461.91	403.99
462.27	400.05
462.64	396.74
463.01	393.03
463.38	389.42
463.74	385.83
464.11	382.68
464.48	379.92
464.85	376.90
465.21	374.57
465.58	372.01
465.95	368.98
466.32	366.44
466.68	363.93
467.05	361.41
467.42	358.96
467.78	356.39
468.15	353.95
468.52	352.12
468.88	349.71
469.25	347.55
469.62	345.81
469.98	343.91
470.35	342.20
470.72	340.59
471.08	338.94
471.45	337.51
471.82	336.02
472.18	334.44
472.55	333.35
472.92	332.08
473.28	330.95
473.65	329.84
474.02	328.79
474.38	327.94
474.75	327.29
475.11	326.52
475.48	325.98
475.85	325.53
476.21	325.07
476.58	324.76
476.94	324.57
477.31	324.31
477.67	324.08
478.04	323.91
478.41	323.95
478.77	324.12
479.14	324.11
479.50	324.30
479.87	324.63
480.23	324.94
480.60	325.18
480.96	325.46
481.33	326.14
481.69	326.75
482.06	327.28
482.42	327.77
482.79	328.39
483.15	329.21
483.52	330.20
483.88	331.09
484.25	332.03
484.61	333.01
484.98	334.06
485.34	335.40
485.71	336.82
486.07	338.24
486.44	339.54
486.80	341.16
487.17	342.86
487.53	344.67
487.90	346.48
488.26	348.49
488.62	350.64
488.99	352.61
489.35	354.74
489.72	357.09
490.08	359.57
490.44	362.11
490.81	364.80
491.17	367.49
491.54	370.46
491.90	373.47
492.26	376.73
492.63	380.10
492.99	383.57
493.36	387.19
493.72	391.00
494.08	394.98
494.45	399.16
494.81	403.47
495.17	407.90
495.54	412.58
495.90	417.41
496.26	422.31
496.63	427.51
496.99	432.87
497.35	438.42
497.72	444.26
498.08	450.19
498.44	456.23
498.80	462.54
499.17	468.99
499.53	475.75
499.89	482.62
500.26	489.55
500.62	496.65
500.98	504.01
501.34	511.53
501.71	519.23
502.07	527.01
502.43	535.00
502.79	543.09
503.16	551.44
503.52	560.00
503.88	568.64
504.24	577.62
504.60	586.60
504.97	595.81
505.33	605.08
505.69	614.89
506.05	624.74
506.41	634.60
506.78	644.68
507.14	654.77
507.50	665.20
507.86	675.82
508.22	686.46
508.59	697.04
508.95	708.02
509.31	719.21
509.67	730.67
510.03	742.01
510.39	753.71
510.75	765.56
511.12	777.34
511.48	789.38
511.84	801.52
512.20	813.85
512.56	826.45
512.92	839.07
513.28	851.60
513.64	864.20
514.00	876.93
514.37	889.77
514.73	902.78
515.09	915.68
515.45	928.45
515.81	941.31
516.17	954.64
516.53	967.77
516.89	980.76
517.25	993.81
517.61	1007.17
517.97	1020.32
518.33	1033.26
518.69	1046.62
519.05	1060.17
519.41	1073.53
519.77	1087.18
520.13	1100.22
520.49	1113.25
520.85	1126.42
521.21	1139.59
521.57	1153.02
521.93	1165.89
522.29	1179.54
522.65	1192.84
523.01	1206.18
523.37	1219.26
523.73	1232.22
524.09	1245.02
524.45	1258.20
524.81	1271.27
525.17	1284.41
525.53	1297.35
525.89	1310.32
526.25	1323.09
526.61	1335.65
526.97	1348.39
527.33	1361.06
527.68	1374.26
528.04	1387.46
528.40	1400.26
528.76	1413.26
529.12	1425.88
529.48	1438.88
529.84	1450.75
530.20	1463.24
530.56	1475.66
530.91	1488.58
531.27	1501.16
531.63	1513.66
531.99	1526.19
532.35	1538.18
532.71	1550.12
533.07	1562.61
533.42	1574.58
533.78	1586.47
534.14	1598.21
534.50	1609.25
534.86	1620.52
535.21	1631.08
535.57	1642.14
535.93	1653.20
536.29	1664.03
536.65	1675.28
537.00	1685.90
537.36	1696.92
537.72	1707.68
538.08	1718.64
538.44	1729.21
538.79	1739.93
539.15	1750.46
539.51	1760.78
539.87	1771.73
540.22	1782.34
540.58	1793.07
540.94	1803.60
541.29	1813.52
541.65	1823.03
542.01	1833.30
542.37	1843.03
542.72	1852.89
543.08	1862.43
543.44	1872.59
543.79	1881.67
544.15	1890.68
544.51	1900.35
544.87	1910.02
545.22	1918.76
545.58	1927.35
545.94	1935.95
546.29	1944.27
546.65	1952.36
547.01	1960.34
547.36	1967.74
547.72	1975.22
548.07	1982.57
548.43	1990.20
548.79	1997.98
549.14	2005.92
549.50	2014.09
549.86	2021.73
550.21	2028.87
550.57	2036.38
550.92	2042.95
551.28	2050.31
551.64	2057.38
551.99	2064.72
552.35	2071.72
552.70	2078.44
553.06	2085.03
553.41	2091.22
553.77	2097.50
554.13	2103.78
554.48	2110.60
554.84	2117.56
555.19	2124.02
555.55	2130.42
555.90	2136.43
556.26	2142.79
556.61	2148.49
556.97	2153.13
557.32	2158.86
557.68	2165.24
558.03	2170.85
558.39	2175.96
558.74	2181.71
559.10	2187.24
559.45	2192.73
559.81	2198.07
560.16	2203.60
560.52	2209.39
560.87	2215.71
561.23	2221.77
561.58	2228.41
561.94	2233.67
562.29	2238.45
562.64	2244.37
563.00	2249.69
563.35	2255.45
563.71	2261.50
564.06	2267.29
564.42	2273.46
564.77	2278.63
565.12	2283.81
565.48	2289.02
565.83	2294.66
566.19	2300.19
566.54	2305.59
566.89	2310.16
567.25	2314.83
567.60	2320.59
567.96	2325.78
568.31	2330.48
568.66	2334.58
569.02	2338.44
569.37	2342.15
569.72	2346.62
570.08	2350.28
570.43	2353.58
570.78	2356.58
571.14	2359.10
571.49	2362.27
571.84	2365.87
572.20	2368.64
572.55	2371.84
572.90	2374.08
573.26	2377.10
573.61	2379.74
573.96	2382.13
574.31	2384.24
574.67	2386.05
575.02	2387.11
575.37	2388.60
575.72	2389.45
576.08	2391.15
576.43	2391.51
576.78	2392.52
577.13	2394.54
577.49	2395.72
577.84	2397.23
578.19	2398.91
578.54	2399.80
578.90	2400.91
579.25	2400.90
579.60	2401.24
579.95	2400.77
580.30	2401.34
580.66	2400.75
581.01	2399.03
581.36	2396.93
581.71	2395.71
582.06	2395.13
582.42	2394.47
582.77	2392.59
583.12	2391.16
583.47	2390.24
583.82	2389.81
584.17	2388.55
584.53	2386.43
584.88	2384.60
585.23	2382.79
585.58	2380.66
585.93	2378.55
586.28	2376.46
586.63	2374.31
586.98	2372.30
587.34	2370.37
587.69	2367.97
588.04	2366.14
588.39	2365.09
588.74	2362.64
589.09	2360.38
589.44	2357.39
589.79	2355.12
590.14	2353.42
590.49	2350.77
590.84	2346.93
591.19	2344.12
591.54	2340.88
591.89	2336.87
592.25	2333.79
592.60	2329.58
592.95	2325.73
593.30	2321.64
593.65	2317.37
594.00	2313.04
594.35	2310.07
594.70	2305.55
595.05	2301.21
595.40	2295.95
595.75	2290.58
596.10	2287.10
596.45	2282.30
596.80	2277.79
597.15	2272.54
597.50	2266.58
597.85	2261.61
598.19	2256.51
598.54	2250.92
598.89	2245.91
599.24	2241.52
599.59	2235.58
599.94	2230.14
600.29	2224.23
600.64	2218.63
600.99	2212.14
601.34	2206.85
601.69	2199.94
602.04	2193.61
602.39	2187.10
602.74	2181.09
603.08	2175.39
603.43	2169.01
603.78	2162.27
604.13	2155.26
604.48	2148.25
604.83	2142.38
605.18	2136.24
605.53	2129.41
605.87	2122.30
606.22	2115.70
606.57	2107.98
606.92	2100.24
607.27	2093.34
607.62	2086.70
607.96	2079.75
608.31	2073.22
608.66	2065.46
609.01	2057.96
609.36	2050.99
609.70	2043.30
610.05	2035.65
610.40	2027.48
610.75	2019.29
611.10	2011.75
611.44	2003.11
611.79	1994.31
612.14	1984.31
612.49	1973.90
612.83	1964.76
613.18	1955.78
613.53	1946.51
613.88	1936.83
614.22	1928.24
614.57	1918.31
614.92	1907.84
615.27	1897.82
615.61	1888.04
615.96	1878.39
616.31	1868.78
616.65	1859.49
617.00	1849.73
617.35	1840.03
617.70	1830.25
618.04	1820.14
618.39	1809.82
618.74	1800.20
619.08	1790.64
619.43	1781.95
619.78	1773.66
620.12	1764.85
620.47	1754.88
620.82	1744.48
621.16	1734.80
621.51	1724.87
621.85	1714.89
622.20	1704.40
622.55	1693.79
622.89	1683.84
623.24	1674.17
623.59	1664.45
623.93	1654.24
624.28	1644.59
624.62	1634.54
624.97	1624.33
625.32	1614.55
625.66	1605.85
626.01	1596.87
626.35	1587.50
626.70	1577.47
627.04	1567.47
627.39	1557.46
627.73	1548.34
628.08	1539.39
628.43	1529.87
628.77	1520.55
629.12	1511.93
629.46	1504.11
629.81	1495.69
630.15	1486.09
630.50	1476.24
630.84	1465.76
631.19	1455.87
631.53	1446.38
631.88	1436.16
632.22	1426.09
632.57	1416.80
632.91	1406.59
633.26	1396.77
633.60	1387.17
633.95	1377.86
634.29	1368.39
634.64	1358.98
634.98	1349.06
635.32	1339.75
635.67	1331.20
636.01	1322.01
636.36	1312.10
636.70	1302.64
637.05	1293.29
637.39	1284.27
637.73	1275.64
638.08	1268.17
638.42	1259.92
638.77	1251.19
639.11	1242.93
639.45	1235.05
639.80	1226.37
640.14	1217.67
640.49	1208.89
640.83	1200.15
641.17	1192.14
641.52	1183.83
641.86	1175.29
642.20	1167.50
642.55	1158.94
642.89	1150.09
643.23	1141.45
643.58	1133.40
643.92	1124.35
644.26	1115.67
644.61	1107.28
644.95	1098.55
645.29	1089.21
645.64	1080.15
645.98	1071.79
646.32	1063.93
646.66	1055.41
647.01	1047.11
647.35	1038.95
647.69	1030.61
648.04	1022.23
648.38	1013.16
648.72	1004.51
649.06	996.15
649.41	988.04
649.75	980.10
650.09	972.27
650.43	964.14
650.78	955.91
651.12	948.24
651.46	940.92
651.80	933.68
652.14	926.35
652.49	918.95
652.83	911.62
653.17	903.94
653.51	896.32
653.85	889.16
654.20	881.95
654.54	874.40
654.88	867.22
655.22	860.10
655.56	853.24
655.90	846.50
656.25	839.81
656.59	832.81
656.93	825.91
657.27	818.81
657.61	812.05
657.95	806.01
658.29	800.29
658.64	794.19
658.98	787.80
659.32	781.34
659.66	775.14
660.00	768.85
660.34	762.86
660.68	756.83
661.02	750.59
661.36	744.74
661.70	739.01
662.05	733.40
662.39	727.99
662.73	722.69
663.07	717.31
663.41	711.75
663.75	706.11
664.09	700.48
664.43	695.10
664.77	689.80
665.11	683.97
665.45	678.05
665.79	672.29
666.13	666.62
666.47	661.21
666.81	655.83
667.15	650.58
667.49	645.39
667.83	640.25
668.17	635.09
668.51	630.06
668.85	625.26
669.19	620.45
669.53	615.55
669.87	610.49
670.21	605.81
670.55	601.17
670.89	596.86
671.23	592.65
671.57	588.38
671.91	584.08
672.25	580.06
672.58	575.95
672.92	571.97
673.26	568.11
673.60	564.31
673.94	560.61
674.28	557.01
674.62	553.31
674.96	549.59
675.30	546.12
675.64	542.51
675.97	539.00
676.31	535.44
676.65	531.87
676.99	528.47
677.33	524.72
677.67	521.14
678.01	517.35
678.34	513.74
678.68	510.26
679.02	506.71
679.36	503.05
679.70	499.56
680.04	496.05
680.37	492.71
680.71	489.47
681.05	486.30
681.39	483.16
681.73	480.07
682.06	477.12
682.40	474.04
682.74	470.85
683.08	467.69
683.42	464.56
683.75	461.63
684.09	458.65
684.43	455.89
684.77	453.05
685.10	450.26
685.44	447.34
685.78	444.44
686.12	441.76
686.45	439.12
686.79	436.46
687.13	433.99
687.46	431.39
687.80	428.70
688.14	425.95
688.48	423.35
688.81	420.73
689.15	418.18
689.49	415.66
689.82	413.22
690.16	410.70
690.50	408.30
690.83	405.82
691.17	403.34
691.51	400.97
691.84	398.71
692.18	396.50
692.52	394.35
692.85	392.30
693.19	390.19
693.52	388.05
693.86	385.90
694.20	383.78
694.53	381.72
694.87	379.58
695.21	377.47
695.54	375.31
695.88	373.21
696.21	371.02
696.55	368.96
696.88	366.95
697.22	365.03
697.56	363.21
697.89	361.41
698.23	359.70
698.56	357.98
698.90	356.31
699.23	354.47
699.57	352.67
699.90	350.89
700.24	349.19
700.58	347.47
700.91	345.84
701.25	344.30
701.58	342.72
701.92	341.17
702.25	339.63
702.59	338.10
702.92	336.56
703.26	335.10
703.59	333.69
703.93	332.49
704.26	331.10
704.60	329.59
704.93	328.11
705.26	326.63
705.60	325.16
705.93	323.65
706.27	322.34
706.60	321.12
706.94	319.88
707.27	318.45
707.61	317.16
707.94	315.83
708.27	314.33
708.61	312.93
708.94	311.58
709.28	310.33
709.61	309.07
709.94	307.94
710.28	306.73
710.61	305.53
710.95	304.10
711.28	303.04
711.61	301.90
711.95	300.80
712.28	299.63
712.61	298.48
712.95	297.45
713.28	296.46
713.61	295.30
713.95	294.17
714.28	293.21
714.61	292.18
714.95	291.18
715.28	290.23
715.61	289.24
715.95	288.33
716.28	287.40
716.61	286.48
716.95	285.48
717.28	284.59
717.61	283.65
717.94	282.82
718.28	281.82
718.61	280.97
718.94	280.06
719.27	279.24
719.61	278.42
719.94	277.61
720.27	276.67
720.60	275.87
720.94	275.13
721.27	274.40
721.60	273.75
721.93	273.08
722.27	272.45
722.60	271.79
722.93	271.09
723.26	270.42
723.59	269.78
723.93	269.20
724.26	268.58
724.59	268.00
724.92	267.40
725.25	266.88
725.59	266.33
725.92	265.85
726.25	265.30
726.58	264.73
726.91	264.12
727.24	263.60
727.57	263.06
727.91	262.44
728.24	261.92
728.57	261.34
728.90	260.81
729.23	260.21
729.56	259.78
729.89	259.29
730.22	258.77
730.55	258.20
730.89	257.66
731.22	257.12
731.55	256.60
731.88	256.10
732.21	255.51
732.54	254.96
732.87	254.46
733.20	253.98
733.53	253.51
733.86	253.07
734.19	252.60
734.52	252.19
734.85	251.91
735.18	251.42
735.51	251.02
735.84	250.55
736.17	250.19
736.50	249.64
736.83	249.48
737.16	249.10
737.49	248.73
737.82	248.33
738.15	248.01
738.48	247.65
738.81	247.26
739.14	246.89
739.47	246.49
739.80	246.12
740.13	245.78
740.46	245.44
740.79	245.08
741.12	244.71
741.45	244.36
741.78	243.91
742.11	243.64
742.44	243.31
742.77	243.06
743.10	242.71
743.43	242.40
743.75	241.83
744.08	241.75
744.41	241.40
744.74	241.06
745.07	240.68
745.40	240.39
745.73	240.15
746.06	239.87
746.39	239.61
746.71	239.27
747.04	238.96
747.37	238.63
747.70	238.36
748.03	238.09
748.36	237.85
748.68	237.57
749.01	237.23
749.34	236.94
749.67	236.64
750.00	236.37
750.33	236.25
750.65	236.02
750.98	235.50
751.31	235.28
751.64	235.08
751.97	234.95
752.29	234.68
752.62	234.37
752.95	234.12
753.28	233.88
753.60	233.70
753.93	233.54
754.26	233.34
754.59	233.05
754.91	232.82
755.24	232.58
755.57	232.35
755.90	232.10
756.22	231.90
756.55	231.63
756.88	231.44
757.20	231.11
757.53	230.84
757.86	230.67
758.19	230.50
758.51	230.30
758.84	230.02
759.17	229.85
759.49	229.70
759.82	229.61
760.15	229.43
760.47	229.20
760.80	228.93
761.13	228.81
761.45	228.64
761.78	228.47
762.11	228.32
762.43	228.15
762.76	228.04
763.08	227.83
763.41	227.72
763.74	227.57
764.06	227.42
764.39	227.26
764.71	227.11
765.04	226.93
765.37	226.77
765.69	226.65
766.02	226.47
766.34	226.34
766.67	226.12
767.00	226.05
767.32	226.06
767.65	226.08
767.97	225.90
768.30	225.79
768.62	225.65
768.95	225.49
769.27	225.37
769.60	225.24
769.92	225.14
770.25	224.97
770.57	224.82
770.90	224.72
771.22	224.60
771.55	224.48
771.87	224.38
772.20	224.26
772.52	224.30
772.85	224.48
773.17	224.35
773.50	224.25
773.82	224.13
774.15	223.91
774.47	223.65
774.80	223.55
775.12	223.43
775.45	223.36
775.77	223.30
776.09	223.20
776.42	223.12
776.74	223.10
777.07	223.03
777.39	222.94
777.72	222.82
778.04	222.77
778.36	222.70
778.69	222.63
779.01	222.62
779.33	222.40
779.66	222.07
779.98	221.99
780.31	221.95
780.63	221.92
780.95	221.88
781.28	221.80
781.60	221.71
781.92	221.65
782.25	221.60
782.57	221.53
782.89	221.48
783.22	221.38
783.54	221.25
783.86	221.20
784.19	221.11
784.51	221.11
784.83	221.06
785.16	220.99
785.48	220.93
785.80	220.84
786.12	220.79
786.45	220.71
786.77	220.65
787.09	220.56
787.42	220.45
787.74	220.41
788.06	220.39
788.38	220.35
788.71	220.25
789.03	220.20
789.35	220.17
789.67	220.09
789.99	220.08
790.32	220.03
790.64	220.01
790.96	220.15
791.28	220.02
791.61	219.94
791.93	219.92
792.25	219.85
792.57	219.94
792.89	219.85
793.21	219.83
793.54	219.76
793.86	219.67
794.18	219.63
794.50	219.52
794.82	219.47
795.14	219.44
795.47	219.48
795.79	219.42
796.11	219.31
796.43	219.28
796.75	219.23
797.07	219.17
797.39	219.13
797.71	218.92
798.04	218.90
798.36	218.88
798.68	218.83
799.00	218.79
799.32	218.67
799.64	218.64
799.96	218.61
800.28	218.61
800.60	218.61
800.92	218.60
801.24	218.58
801.56	218.53
801.89	218.50
802.21	218.46
802.53	218.41
802.85	218.43
803.17	218.48
803.49	218.39
803.81	218.37
804.13	218.32
804.45	218.31
804.77	218.29
805.09	218.24
805.41	218.21
805.73	218.16
806.05	218.06
806.37	218.04
806.69	217.99
807.01	217.98
807.33	217.96
807.65	217.83
807.97	217.90
808.28	217.87
808.60	217.84
808.92	217.80
809.24	217.90
809.56	217.82
809.88	217.72
810.20	217.73
810.52	217.76
810.84	217.70
811.16	217.63
811.48	217.62
811.80	217.65
812.12	217.60
812.43	217.65
812.75	217.63
813.07	217.56
813.39	217.56
813.71	217.46
814.03	217.42
814.35	217.43
814.67	217.33
814.98	217.27
815.30	217.25
815.62	217.24
815.94	217.09
816.26	217.09
816.58	217.02
816.89	217.02
817.21	216.95
817.53	216.96
817.85	216.95
818.17	216.91
818.48	216.82
818.80	216.82
819.12	216.72
819.44	216.70
819.76	216.68
820.07	216.64
820.39	216.65
820.71	216.64
821.03	216.64
821.34	216.62
821.66	216.67
821.98	216.71
822.30	216.64
822.61	216.72
822.93	216.70
823.25	216.70
823.57	216.67
823.88	216.70
824.20	216.64
824.52	216.69
824.83	216.66
825.15	216.60
825.47	216.60
825.79	216.63
826.10	216.59
826.42	216.60
826.74	216.63
827.05	216.61
827.37	216.62
827.69	216.59
828.00	216.58
828.32	216.55
828.64	216.48
828.95	216.61
829.27	216.53
829.58	216.48
829.90	216.49
830.22	216.48
830.53	216.40
830.85	216.42
831.17	216.33
831.48	216.32
831.80	216.34
832.11	216.30
832.43	216.26
832.75	216.24
833.06	216.32
833.38	216.25
833.69	216.23
834.01	216.23
834.32	216.21
834.64	216.17
834.96	216.17
835.27	216.16
835.59	216.07
835.90	216.06
836.22	216.08
836.53	216.05
836.85	216.03
837.16	216.21
837.48	216.19
837.79	216.25
838.11	216.29
838.42	216.28
838.74	216.27
839.05	216.25
839.37	216.26
839.68	216.16
840.00	216.15
840.31	216.16
840.63	216.11
840.94	216.08
841.26	216.07
841.57	216.02
841.88	216.03
842.20	215.96
842.51	215.90
842.83	215.88
843.14	216.05
843.46	216.00
843.77	215.91
844.08	215.90
844.40	215.84
844.71	215.79
845.03	215.76
845.34	215.73
845.65	215.73
845.97	215.73
846.28	215.74
846.60	215.72
846.91	215.69
847.22	215.68
847.54	215.76
847.85	215.75
848.16	215.74
848.48	215.69
848.79	215.82
849.10	215.86
849.42	215.90
849.73	215.70
850.04	215.72
850.36	215.64
850.67	215.68
850.98	215.67
851.30	215.68
851.61	215.66
851.92	215.68
852.23	215.76
852.55	215.77
852.86	215.74
853.17	215.78
853.49	215.83
853.80	215.85
854.11	215.83
854.42	215.88
854.74	215.84
855.05	215.89
855.36	215.75
855.67	215.73
855.99	215.70
856.30	215.94
856.61	215.94
856.92	215.96
857.23	215.93
857.55	215.90
857.86	215.90
858.17	215.96
858.48	215.90
858.79	215.85
859.11	215.88
859.42	215.88
859.73	215.82
860.04	215.81
860.35	215.74
860.66	215.71
860.98	215.67
861.29	215.69
861.60	215.64
861.91	215.69
862.22	215.63
862.53	215.59
862.84	215.39
863.16	215.43
863.47	215.36
863.78	215.34
864.09	215.37
864.40	215.36
864.71	215.34
865.02	215.38
865.33	215.34
865.64	215.26
865.95	215.26
866.27	215.43
866.58	215.40
866.89	215.46
867.20	215.40
867.51	215.35
867.82	215.37
868.13	215.43
868.44	215.36
868.75	215.44
869.06	215.45
869.37	215.46
869.68	215.40
869.99	215.42
870.30	215.44
870.61	215.45
870.92	215.48
871.23	215.48
871.54	215.53
871.85	215.60
872.16	215.66
872.47	215.61
872.78	215.44
873.09	215.46
873.40	215.43
873.71	215.48
874.02	215.53
874.33	215.49
874.64	215.42
874.95	215.53
875.26	215.44
875.56	215.39
875.87	215.36
876.18	215.35
876.49	215.56
876.80	215.54
877.11	215.50
877.42	215.49
877.73	215.45
878.04	215.44
878.35	215.41
878.66	215.40
878.96	215.45
879.27	215.44
879.58	215.44
879.89	215.43
880.20	215.43
880.51	215.41
880.82	215.43
881.12	215.46
881.43	215.37
881.74	215.37
882.05	215.40
882.36	215.39
882.67	215.40
882.97	215.18
883.28	215.19
883.59	215.18
883.90	215.18
884.21	215.22
884.51	215.15
884.82	215.13
885.13	215.14
885.44	215.10
885.74	215.11
886.05	215.10
886.36	215.11
886.67	215.06
886.98	215.14
887.28	215.16
887.59	215.14
887.90	215.16
888.20	215.14
888.51	215.18
888.82	215.19
889.13	215.20
889.43	215.39
889.74	215.36
890.05	215.39
890.35	215.35
890.66	215.34
890.97	215.38
891.28	215.34
891.58	215.29
891.89	215.31
892.20	215.24
892.50	215.25
892.81	215.25
893.12	215.25
893.42	215.19
893.73	215.21
894.04	215.22
894.34	215.24
894.65	215.24
894.95	215.18
895.26	215.18
895.57	215.25
895.87	215.04
896.18	215.11
896.48	215.10
896.79	215.13
897.10	215.12
897.40	215.11
897.71	215.14
898.01	215.16
898.32	215.18
898.63	215.22
898.93	215.20
899.24	215.20
899.54	215.19
899.85	215.19
900.15	215.18
900.46	215.19
900.76	215.19
901.07	215.21
901.38	215.25
901.68	215.29
901.99	215.18
902.29	215.21
902.60	215.20
902.90	215.17
903.21	215.13
903.51	215.13
903.82	215.16
904.12	215.15
904.43	215.13
904.73	215.11
905.03	215.13
905.34	215.33
905.64	215.32
905.95	215.32
906.25	215.29
906.56	215.31
906.86	215.31
907.17	215.28
907.47	215.27
907.77	215.25
908.08	215.19
908.38	215.23
908.69	215.23
908.99	215.24
909.30	215.28
909.60	215.28
909.90	215.32
910.21	215.29
910.51	215.24
910.81	215.26
911.12	215.28
911.42	215.28
911.73	215.07
912.03	215.08
912.33	215.13
912.64	215.14
912.94	215.11
913.24	215.07
913.55	215.05
913.85	215.06
914.15	215.10
914.46	215.12
914.76	215.10
915.06	215.08
915.37	215.03
915.67	214.97
915.97	214.99
916.27	214.92
916.58	214.92
916.88	214.92
917.18	214.92
917.49	215.05
917.79	215.01
918.09	215.05
918.39	215.09
918.70	215.06
919.00	215.07
919.30	215.13
919.60	215.11
919.91	215.09
920.21	215.12
920.51	215.03
920.81	215.03
921.12	215.03
921.42	215.03
921.72	215.02
922.02	215.05
922.32	215.07
922.63	215.09
922.93	215.16
923.23	215.16
923.53	215.17
923.83	215.02
924.13	215.08
924.44	215.07
924.74	215.13
925.04	215.17
925.34	215.18
925.64	215.14
925.94	215.17
926.24	215.28
926.55	215.24
926.85	215.30
927.15	215.31
927.45	215.34
927.75	215.35
928.05	215.37
928.35	215.34
928.65	215.38
928.95	215.39
929.26	215.34
929.56	215.40
929.86	215.38
930.16	215.34
930.46	215.30
930.76	215.28
931.06	215.16
931.36	215.11
931.66	215.12
931.96	215.15
932.26	215.14
932.56	215.06
932.86	215.08
933.16	215.07
933.46	215.05
933.76	215.02
934.06	215.08
934.36	215.13
934.66	215.14
934.96	215.13
935.26	215.16
935.56	215.15
935.86	215.09
936.16	215.10
936.46	215.11
936.76	215.10
937.06	215.11
937.36	215.11
937.66	215.09
937.96	215.04
938.26	215.01
938.56	215.03
938.86	215.07
939.16	215.11
939.46	215.13
939.76	215.15
940.06	215.14
940.35	215.08
940.65	214.99
940.95	215.02
941.25	214.95
941.55	214.92
941.85	214.94
942.15	214.98
942.45	215.04
942.75	215.06
943.04	215.07
943.34	215.09
943.64	215.10
943.94	215.09
944.24	215.11
944.54	215.11
944.84	215.08
945.13	215.04
945.43	214.98
945.73	214.97
946.03	214.91
946.33	214.88
946.62	214.86
946.92	214.87
947.22	214.88
947.52	214.89
947.82	214.91
948.11	214.86
948.41	214.81
948.71	214.72
949.01	214.71
949.31	214.69
949.60	214.65
949.90	214.68
950.20	214.64
950.50	214.61
950.79	214.60
951.09	214.63
951.39	214.62
951.69	214.61
951.98	214.68
952.28	214.71
952.58	214.69
952.87	214.69
953.17	214.71
953.47	214.65
953.76	214.64
954.06	214.58
954.36	214.57
954.66	214.56
954.95	214.62
955.25	214.63
955.55	214.69
955.84	214.67
956.14	214.69
956.44	214.72
956.73	214.71
957.03	214.72
957.32	214.73
957.62	214.75
957.92	214.81
958.21	214.78
958.51	215.03
958.81	215.08
959.10	215.12
959.40	215.13
959.69	215.21
959.99	215.26
960.29	215.28
960.58	215.26
960.88	215.33
961.17	215.30
961.47	215.32
961.76	215.27
962.06	215.34
962.36	215.30
962.65	215.32
962.95	215.34
963.24	215.30
963.54	215.31
963.83	215.34
964.13	215.31
964.42	215.27
964.72	215.10
965.01	215.10
965.31	215.10
965.60	215.08
965.90	215.20
966.19	215.15
966.49	215.18
966.78	215.18
967.08	215.21
967.37	215.20
967.67	215.17
967.96	215.23
968.26	215.17
968.55	215.19
968.85	215.16
969.14	215.16
969.43	215.17
969.73	215.12
970.02	215.10
970.32	215.07
970.61	215.04
970.91	214.99
971.20	214.97
971.49	214.93
971.79	214.97
972.08	214.82
972.38	214.83
972.67	214.82
972.96	214.86
973.26	214.82
973.55	214.88
973.85	214.87
974.14	214.83
974.43	214.89
974.73	214.88
975.02	214.87
975.31	214.87
975.61	214.88
975.90	214.87
976.19	214.85
976.49	214.86
976.78	214.87
977.07	214.86
977.37	214.88
977.66	214.89
977.95	214.86
978.24	214.88
978.54	214.92
978.83	214.93
979.12	214.89
979.42	214.84
979.71	214.82
980.00	214.82
980.29	214.82
980.59	214.75
980.88	214.83
981.17	214.82
981.46	214.84
981.76	214.84
982.05	214.89
982.34	214.88
982.63	214.89
982.93	214.88
983.22	214.93
983.51	214.93
983.80	214.97
984.09	214.97
984.39	214.91
984.68	214.87
984.97	214.86
985.26	214.85
985.55	214.88
985.85	214.82
986.14	214.85
986.43	214.87
986.72	214.88
987.01	214.78
987.30	214.79
987.59	214.77
987.89	214.79
988.18	214.72
988.47	214.72
988.76	214.69
989.05	214.71
989.34	214.66
989.63	214.69
989.92	214.66
990.22	214.65
990.51	214.66
990.80	214.68
991.09	214.72
991.38	214.76
991.67	214.74
991.96	214.77
992.25	214.78
992.54	214.73
992.83	214.70
993.12	214.68
993.41	214.69
993.70	214.74
993.99	214.79
994.28	214.84
994.58	214.87
994.87	214.87
995.16	214.86
995.45	214.87
995.74	214.82
996.03	214.83
996.32	214.85
996.61	214.88
996.90	214.84
997.19	214.82
997.48	214.83
997.77	214.82
998.06	214.81
998.34	214.81
998.63	214.81
998.92	214.84
999.21	214.88
999.50	214.88
999.79	214.83
1000.08	214.81
1000.37	214.80
1000.66	214.78
1000.95	214.82
1001.24	214.84
1001.53	214.86
1001.82	214.88
1002.11	214.83
1002.40	214.86
1002.68	214.95
1002.97	215.10
1003.26	215.06
1003.55	215.01
1003.84	215.03
1004.13	215.13
1004.42	215.09
1004.71	215.09
1004.99	215.07
1005.28	215.12
1005.57	215.10
1005.86	215.08
1006.15	215.05
1006.44	214.98
1006.72	215.00
1007.01	214.96
1007.30	214.93
1007.59	214.87
1007.88	214.83
1008.17	214.84
1008.45	214.81
1008.74	214.70
1009.03	214.59
1009.32	214.60
1009.60	214.59
1009.89	214.55
1010.18	214.46
1010.47	214.46
1010.76	214.45
1011.04	214.49
1011.33	214.55
1011.62	214.57
1011.91	214.57
1012.19	214.57
1012.48	214.62
1012.77	214.61
1013.05	214.72
1013.34	214.73
1013.63	214.74
1013.92	214.78
1014.20	214.79
1014.49	214.76
1014.78	214.79
1015.06	214.71
1015.35	214.73
1015.64	214.74
1015.92	214.79
1016.21	214.77
1016.50	214.77
1016.78	214.81
1017.07	214.78
1017.36	214.68
1017.64	214.63
1017.93	214.65
1018.22	214.65
1018.50	214.66
1018.79	214.66
1019.08	214.56
1019.36	214.56
1019.65	214.55
1019.93	214.59
1020.22	214.62
1020.51	214.73
1020.79	214.70
1021.08	214.64
1021.36	214.72
1021.65	214.81
1021.94	214.69
1022.22	214.78
1022.51	214.14
1022.79	215.55
1023.08	215.09
1023.36	217.00
1023.65	214.26
>>>>>End Processed Spectral Data<<<<<
