SpectraSuite Data File
++++++++++++++++++++++++++++++++++++
Date: Tue Jan 29 16:43:50 EST 2013
User: group
Dark Spectrum Present: No
Reference Spectrum Present: No
Number of Sampled Component Spectra: 1
Spectrometers: USB2E7196
Integration Time (usec): 65000 (USB2E7196)
Spectra Averaged: 100 (USB2E7196)
Boxcar Smoothing: 10 (USB2E7196)
Correct for Electrical Dark: No (USB2E7196)
Strobe/Lamp Enabled: No (USB2E7196)
Correct for Detector Non-linearity: No (USB2E7196)
Correct for Stray Light: No (USB2E7196)
Number of Pixels in Processed Spectrum: 2048
>>>>>Begin Processed Spectral Data<<<<<
339.09	0.00
339.48	201.57
339.86	203.21
340.24	204.54
340.63	206.11
341.01	210.15
341.39	208.59
341.78	210.28
342.16	211.81
342.54	211.79
342.93	200.90
343.31	211.01
343.69	211.52
344.07	211.97
344.46	212.40
344.84	212.78
345.22	212.98
345.60	213.25
345.99	213.41
346.37	213.53
346.75	213.64
347.13	213.67
347.52	213.75
347.90	213.84
348.28	213.89
348.66	213.97
349.05	213.98
349.43	214.03
349.81	214.11
350.19	214.18
350.57	214.24
350.96	214.34
351.34	214.48
351.72	214.61
352.10	214.75
352.48	214.84
352.87	214.90
353.25	214.94
353.63	215.02
354.01	215.11
354.39	215.20
354.77	215.28
355.15	215.48
355.54	215.55
355.92	215.55
356.30	215.64
356.68	215.85
357.06	215.92
357.44	215.98
357.82	216.06
358.20	216.17
358.58	216.26
358.97	216.30
359.35	216.42
359.73	216.53
360.11	216.59
360.49	216.65
360.87	216.73
361.25	216.82
361.63	216.94
362.01	217.03
362.39	217.06
362.77	217.11
363.15	217.12
363.53	217.13
363.91	217.21
364.29	217.24
364.67	217.07
365.05	217.10
365.43	217.13
365.81	217.20
366.19	217.27
366.57	217.37
366.95	217.39
367.33	217.34
367.71	217.35
368.09	217.38
368.47	217.40
368.85	217.38
369.23	217.42
369.61	217.37
369.99	217.41
370.37	217.43
370.75	217.51
371.13	217.44
371.51	217.42
371.89	217.43
372.27	217.45
372.65	217.44
373.03	217.40
373.41	217.35
373.78	217.27
374.16	217.15
374.54	217.04
374.92	216.99
375.30	216.96
375.68	216.85
376.06	216.78
376.44	216.72
376.82	216.69
377.19	216.64
377.57	216.56
377.95	216.43
378.33	216.34
378.71	216.16
379.09	216.16
379.47	216.13
379.84	216.02
380.22	215.93
380.60	215.84
380.98	215.78
381.36	215.74
381.73	215.65
382.11	215.63
382.49	215.58
382.87	215.50
383.25	215.47
383.62	215.65
384.00	215.60
384.38	215.57
384.76	215.55
385.13	215.58
385.51	215.56
385.89	215.51
386.27	215.52
386.64	215.53
387.02	215.48
387.40	215.45
387.78	215.44
388.15	215.42
388.53	215.38
388.91	215.40
389.29	215.34
389.66	215.40
390.04	215.35
390.42	215.39
390.79	215.40
391.17	215.36
391.55	215.15
391.92	215.16
392.30	215.16
392.68	215.12
393.05	215.06
393.43	215.08
393.81	215.09
394.18	215.03
394.56	215.06
394.94	215.09
395.31	215.05
395.69	215.14
396.06	215.19
396.44	215.24
396.82	215.23
397.19	215.34
397.57	215.35
397.95	215.40
398.32	215.32
398.70	215.36
399.07	215.45
399.45	215.50
399.82	215.52
400.20	215.54
400.58	215.59
400.95	215.57
401.33	215.66
401.70	215.86
402.08	215.96
402.45	216.02
402.83	216.13
403.20	216.25
403.58	216.32
403.95	216.47
404.33	216.62
404.71	216.76
405.08	217.02
405.46	217.16
405.83	217.37
406.21	217.60
406.58	217.85
406.96	218.08
407.33	218.32
407.70	218.62
408.08	219.10
408.45	219.44
408.83	219.85
409.20	220.16
409.58	220.43
409.95	220.90
410.33	221.39
410.70	221.83
411.08	222.41
411.45	222.96
411.82	223.52
412.20	224.23
412.57	225.10
412.95	225.70
413.32	226.55
413.69	227.41
414.07	228.33
414.44	229.30
414.82	230.28
415.19	231.46
415.56	232.64
415.94	233.84
416.31	235.26
416.68	236.67
417.06	238.32
417.43	239.90
417.81	241.66
418.18	243.45
418.55	245.39
418.93	247.39
419.30	249.52
419.67	251.72
420.04	254.02
420.42	256.38
420.79	259.23
421.16	262.06
421.54	264.97
421.91	267.96
422.28	271.10
422.66	274.43
423.03	277.70
423.40	281.12
423.77	284.72
424.15	288.40
424.52	292.26
424.89	296.42
425.26	300.53
425.64	304.40
426.01	308.71
426.38	313.21
426.75	317.78
427.13	322.55
427.50	327.57
427.87	332.75
428.24	337.95
428.61	342.95
428.99	348.42
429.36	354.47
429.73	360.40
430.10	366.25
430.47	372.35
430.85	378.67
431.22	385.31
431.59	392.43
431.96	399.26
432.33	406.81
432.70	414.07
433.08	422.61
433.45	430.69
433.82	438.75
434.19	447.64
434.56	456.38
434.93	464.69
435.30	473.01
435.68	482.21
436.05	491.21
436.42	500.17
436.79	508.39
437.16	517.15
437.53	526.44
437.90	535.66
438.27	544.59
438.64	553.85
439.01	562.50
439.38	570.11
439.75	577.47
440.13	585.91
440.50	593.90
440.87	600.33
441.24	607.09
441.61	614.42
441.98	619.85
442.35	626.21
442.72	632.61
443.09	638.73
443.46	642.38
443.83	644.95
444.20	647.10
444.57	650.28
444.94	651.75
445.31	653.22
445.68	654.62
446.05	655.27
446.42	654.51
446.79	653.55
447.16	652.53
447.53	651.80
447.90	648.47
448.27	645.23
448.64	640.59
449.01	637.26
449.37	631.36
449.74	625.66
450.11	618.71
450.48	611.36
450.85	603.86
451.22	597.44
451.59	591.27
451.96	585.45
452.33	577.58
452.70	570.44
453.07	561.96
453.43	553.31
453.80	544.99
454.17	536.95
454.54	529.37
454.91	521.12
455.28	513.12
455.65	505.63
456.02	498.05
456.38	491.65
456.75	483.68
457.12	477.09
457.49	470.58
457.86	464.46
458.23	458.96
458.59	452.98
458.96	446.93
459.33	441.64
459.70	436.24
460.07	431.95
460.43	427.03
460.80	422.42
461.17	418.41
461.54	414.22
461.91	410.25
462.27	406.12
462.64	402.65
463.01	398.81
463.38	395.14
463.74	391.40
464.11	388.17
464.48	385.39
464.85	382.26
465.21	379.79
465.58	377.12
465.95	373.97
466.32	371.37
466.68	368.77
467.05	366.14
467.42	363.58
467.78	360.87
468.15	358.35
468.52	356.42
468.88	353.94
469.25	351.74
469.62	349.90
469.98	347.95
470.35	346.12
470.72	344.42
471.08	342.58
471.45	341.11
471.82	339.61
472.18	337.87
472.55	336.70
472.92	335.27
473.28	334.02
473.65	332.83
474.02	331.68
474.38	330.74
474.75	330.00
475.11	329.15
475.48	328.49
475.85	327.98
476.21	327.45
476.58	327.13
476.94	326.86
477.31	326.55
477.67	326.24
478.04	326.09
478.41	326.05
478.77	326.21
479.14	326.12
479.50	326.21
479.87	326.50
480.23	326.74
480.60	327.03
480.96	327.26
481.33	327.85
481.69	328.42
482.06	328.94
482.42	329.40
482.79	329.97
483.15	330.82
483.52	331.76
483.88	332.60
484.25	333.49
484.61	334.46
484.98	335.49
485.34	336.83
485.71	338.22
486.07	339.66
486.44	340.97
486.80	342.60
487.17	344.25
487.53	346.09
487.90	348.01
488.26	350.03
488.62	352.26
488.99	354.36
489.35	356.50
489.72	358.90
490.08	361.43
490.44	364.02
490.81	366.70
491.17	369.41
491.54	372.42
491.90	375.42
492.26	378.66
492.63	382.05
492.99	385.51
493.36	389.18
493.72	393.07
494.08	397.10
494.45	401.32
494.81	405.72
495.17	410.13
495.54	414.85
495.90	419.67
496.26	424.59
496.63	429.79
496.99	435.24
497.35	440.85
497.72	446.71
498.08	452.66
498.44	458.74
498.80	465.11
499.17	471.62
499.53	478.37
499.89	485.34
500.26	492.32
500.62	499.44
500.98	506.82
501.34	514.26
501.71	522.06
502.07	529.87
502.43	537.90
502.79	546.09
503.16	554.39
503.52	562.92
503.88	571.52
504.24	580.41
504.60	589.50
504.97	598.72
505.33	607.95
505.69	617.77
506.05	627.62
506.41	637.47
506.78	647.58
507.14	657.82
507.50	668.25
507.86	678.93
508.22	689.65
508.59	700.31
508.95	711.33
509.31	722.55
509.67	734.01
510.03	745.37
510.39	757.13
510.75	768.97
511.12	780.95
511.48	793.16
511.84	805.44
512.20	817.72
512.56	830.36
512.92	843.19
513.28	855.85
513.64	868.66
514.00	881.63
514.37	894.56
514.73	907.64
515.09	920.62
515.45	933.67
515.81	946.78
516.17	960.24
516.53	973.55
516.89	986.82
517.25	1000.01
517.61	1013.66
517.97	1027.11
518.33	1040.31
518.69	1053.75
519.05	1067.52
519.41	1081.29
519.77	1095.28
520.13	1108.56
520.49	1121.78
520.85	1135.29
521.21	1148.73
521.57	1162.44
521.93	1175.56
522.29	1189.39
522.65	1203.02
523.01	1216.65
523.37	1229.87
523.73	1243.22
524.09	1256.52
524.45	1269.85
524.81	1283.41
525.17	1296.82
525.53	1310.06
525.89	1323.44
526.25	1336.75
526.61	1349.67
526.97	1362.75
527.33	1375.86
527.68	1389.42
528.04	1402.97
528.40	1416.10
528.76	1429.45
529.12	1442.42
529.48	1455.88
529.84	1468.27
530.20	1481.19
530.56	1493.84
530.91	1507.25
531.27	1520.19
531.63	1532.90
531.99	1545.81
532.35	1558.17
532.71	1570.71
533.07	1583.59
533.42	1595.93
533.78	1608.10
534.14	1620.24
534.50	1631.72
534.86	1643.28
535.21	1654.26
535.57	1665.96
535.93	1677.34
536.29	1688.55
536.65	1700.12
537.00	1711.12
537.36	1722.56
537.72	1733.55
538.08	1745.01
538.44	1756.13
538.79	1767.29
539.15	1778.44
539.51	1789.24
539.87	1800.48
540.22	1811.27
540.58	1822.39
540.94	1833.45
541.29	1843.87
541.65	1853.75
542.01	1864.23
542.37	1874.18
542.72	1884.39
543.08	1894.10
543.44	1904.67
543.79	1913.95
544.15	1923.48
544.51	1933.63
544.87	1943.68
545.22	1953.02
545.58	1962.05
545.94	1971.01
546.29	1979.70
546.65	1988.06
547.01	1996.44
547.36	2004.33
547.72	2012.26
548.07	2019.94
548.43	2027.77
548.79	2035.68
549.14	2043.94
549.50	2052.50
549.86	2060.55
550.21	2068.11
550.57	2075.91
550.92	2082.72
551.28	2090.36
551.64	2097.65
551.99	2105.09
552.35	2112.18
552.70	2119.28
553.06	2125.95
553.41	2132.17
553.77	2138.64
554.13	2145.05
554.48	2152.12
554.84	2159.29
555.19	2165.86
555.55	2172.24
555.90	2178.52
556.26	2185.38
556.61	2191.44
556.97	2196.22
557.32	2201.98
557.68	2208.40
558.03	2214.20
558.39	2219.73
558.74	2225.68
559.10	2231.03
559.45	2236.70
559.81	2242.33
560.16	2247.79
560.52	2253.68
560.87	2260.10
561.23	2266.03
561.58	2272.59
561.94	2277.79
562.29	2282.39
562.64	2288.26
563.00	2293.87
563.35	2299.41
563.71	2305.09
564.06	2310.79
564.42	2316.68
564.77	2321.78
565.12	2327.04
565.48	2332.06
565.83	2337.40
566.19	2342.73
566.54	2348.31
566.89	2352.79
567.25	2357.22
567.60	2362.85
567.96	2367.91
568.31	2372.42
568.66	2376.64
569.02	2380.59
569.37	2384.34
569.72	2388.80
570.08	2392.23
570.43	2395.37
570.78	2398.47
571.14	2400.92
571.49	2404.04
571.84	2407.51
572.20	2410.35
572.55	2413.13
572.90	2415.23
573.26	2417.87
573.61	2420.39
573.96	2422.41
574.31	2424.29
574.67	2426.16
575.02	2426.79
575.37	2428.07
575.72	2428.55
576.08	2429.86
576.43	2429.76
576.78	2429.94
577.13	2431.35
577.49	2432.45
577.84	2433.21
578.19	2434.35
578.54	2434.86
578.90	2435.21
579.25	2434.95
579.60	2434.73
579.95	2433.91
580.30	2433.95
580.66	2433.16
581.01	2431.29
581.36	2428.67
581.71	2427.20
582.06	2425.81
582.42	2424.84
582.77	2422.54
583.12	2420.76
583.47	2419.18
583.82	2418.63
584.17	2417.16
584.53	2414.87
584.88	2412.69
585.23	2410.79
585.58	2408.35
585.93	2406.17
586.28	2403.96
586.63	2401.31
586.98	2398.99
587.34	2396.85
587.69	2394.28
588.04	2392.07
588.39	2390.56
588.74	2387.98
589.09	2385.04
589.44	2381.76
589.79	2379.09
590.14	2376.88
590.49	2373.95
590.84	2370.00
591.19	2366.64
591.54	2363.39
591.89	2359.13
592.25	2355.80
592.60	2351.52
592.95	2347.32
593.30	2342.96
593.65	2338.56
594.00	2334.10
594.35	2331.15
594.70	2326.41
595.05	2321.85
595.40	2316.32
595.75	2310.38
596.10	2306.65
596.45	2301.75
596.80	2296.93
597.15	2291.70
597.50	2285.79
597.85	2280.80
598.19	2275.53
598.54	2269.74
598.89	2264.32
599.24	2259.88
599.59	2253.53
599.94	2247.59
600.29	2241.42
600.64	2235.53
600.99	2228.53
601.34	2223.02
601.69	2215.97
602.04	2209.57
602.39	2202.77
602.74	2196.52
603.08	2190.92
603.43	2184.37
603.78	2177.37
604.13	2170.42
604.48	2163.16
604.83	2157.17
605.18	2151.01
605.53	2144.14
605.87	2137.09
606.22	2130.44
606.57	2122.42
606.92	2114.53
607.27	2107.45
607.62	2100.93
607.96	2093.96
608.31	2087.53
608.66	2079.74
609.01	2072.07
609.36	2065.15
609.70	2057.44
610.05	2049.72
610.40	2041.50
610.75	2033.08
611.10	2025.53
611.44	2016.60
611.79	2007.76
612.14	1997.68
612.49	1986.90
612.83	1977.45
613.18	1968.08
613.53	1958.78
613.88	1949.26
614.22	1940.55
614.57	1930.74
614.92	1919.99
615.27	1909.66
615.61	1899.53
615.96	1889.85
616.31	1880.18
616.65	1870.57
617.00	1860.94
617.35	1851.35
617.70	1841.63
618.04	1831.76
618.39	1821.48
618.74	1812.00
619.08	1802.48
619.43	1793.73
619.78	1785.50
620.12	1776.99
620.47	1767.55
620.82	1757.15
621.16	1747.39
621.51	1737.63
621.85	1727.88
622.20	1717.71
622.55	1707.17
622.89	1697.22
623.24	1687.61
623.59	1677.91
623.93	1667.87
624.28	1658.08
624.62	1647.98
624.97	1637.80
625.32	1627.97
625.66	1619.23
626.01	1610.51
626.35	1601.18
626.70	1591.27
627.04	1581.29
627.39	1571.13
627.73	1561.87
628.08	1553.10
628.43	1543.63
628.77	1534.37
629.12	1525.46
629.46	1517.66
629.81	1509.40
630.15	1500.03
630.50	1490.15
630.84	1479.70
631.19	1469.79
631.53	1460.58
631.88	1450.52
632.22	1440.50
632.57	1431.14
632.91	1421.07
633.26	1411.17
633.60	1401.57
633.95	1392.30
634.29	1382.87
634.64	1373.73
634.98	1363.78
635.32	1354.44
635.67	1345.93
636.01	1336.78
636.36	1327.24
636.70	1317.79
637.05	1308.56
637.39	1299.70
637.73	1291.24
638.08	1283.74
638.42	1275.66
638.77	1266.93
639.11	1258.72
639.45	1251.05
639.80	1242.64
640.14	1234.00
640.49	1225.26
640.83	1216.56
641.17	1208.39
641.52	1200.37
641.86	1191.80
642.20	1184.02
642.55	1175.53
642.89	1166.61
643.23	1157.98
643.58	1149.95
643.92	1140.93
644.26	1132.21
644.61	1123.79
644.95	1114.97
645.29	1105.74
645.64	1096.60
645.98	1088.14
646.32	1080.35
646.66	1071.90
647.01	1063.68
647.35	1055.59
647.69	1047.29
648.04	1038.97
648.38	1030.22
648.72	1021.43
649.06	1013.06
649.41	1004.87
649.75	996.90
650.09	989.17
650.43	981.16
650.78	972.69
651.12	965.08
651.46	957.69
651.80	950.45
652.14	943.31
652.49	935.85
652.83	928.58
653.17	920.90
653.51	913.21
653.85	905.91
654.20	898.63
654.54	891.15
654.88	883.90
655.22	876.75
655.56	869.70
655.90	862.90
656.25	856.18
656.59	849.31
656.93	842.34
657.27	835.19
657.61	828.22
657.95	822.21
658.29	816.24
658.64	810.18
658.98	803.72
659.32	797.18
659.66	790.93
660.00	784.53
660.34	778.41
660.68	772.27
661.02	765.94
661.36	759.95
661.70	754.14
662.05	748.52
662.39	742.99
662.73	737.56
663.07	732.13
663.41	726.48
663.75	720.75
664.09	714.99
664.43	709.49
664.77	704.13
665.11	698.33
665.45	692.35
665.79	686.43
666.13	680.77
666.47	675.21
666.81	669.75
667.15	664.40
667.49	659.20
667.83	653.94
668.17	648.63
668.51	643.56
668.85	638.57
669.19	633.57
669.53	628.54
669.87	623.43
670.21	618.71
670.55	613.97
670.89	609.46
671.23	605.13
671.57	600.79
671.91	596.42
672.25	592.18
672.58	588.09
672.92	584.01
673.26	580.03
673.60	576.07
673.94	572.19
674.28	568.52
674.62	564.74
674.96	560.99
675.30	557.53
675.64	553.79
675.97	550.22
676.31	546.67
676.65	543.07
676.99	539.65
677.33	535.72
677.67	532.08
678.01	528.25
678.34	524.59
678.68	521.01
679.02	517.41
679.36	513.72
679.70	510.09
680.04	506.54
680.37	503.08
680.71	499.76
681.05	496.54
681.39	493.25
681.73	490.11
682.06	487.04
682.40	483.93
682.74	480.76
683.08	477.48
683.42	474.24
683.75	471.17
684.09	468.03
684.43	465.22
684.77	462.24
685.10	459.37
685.44	456.43
685.78	453.51
686.12	450.74
686.45	447.98
686.79	445.22
687.13	442.66
687.46	440.00
687.80	437.29
688.14	434.45
688.48	431.72
688.81	428.98
689.15	426.35
689.49	423.64
689.82	421.03
690.16	418.45
690.50	416.00
690.83	413.52
691.17	410.96
691.51	408.45
691.84	406.17
692.18	403.87
692.52	401.62
692.85	399.49
693.19	397.32
693.52	395.10
693.86	392.93
694.20	390.66
694.53	388.47
694.87	386.21
695.21	384.03
695.54	381.89
695.88	379.72
696.21	377.51
696.55	375.38
696.88	373.31
697.22	371.27
697.56	369.29
697.89	367.38
698.23	365.60
698.56	363.77
698.90	361.99
699.23	360.11
699.57	358.18
699.90	356.23
700.24	354.36
700.58	352.64
700.91	350.93
701.25	349.38
701.58	347.78
701.92	346.19
702.25	344.59
702.59	342.95
702.92	341.36
703.26	339.78
703.59	338.32
703.93	337.03
704.26	335.60
704.60	334.05
704.93	332.52
705.26	331.00
705.60	329.50
705.93	327.96
706.27	326.60
706.60	325.33
706.94	324.11
707.27	322.67
707.61	321.32
707.94	319.95
708.27	318.39
708.61	316.93
708.94	315.56
709.28	314.20
709.61	312.96
709.94	311.73
710.28	310.46
710.61	309.22
710.95	307.77
711.28	306.69
711.61	305.52
711.95	304.36
712.28	303.14
712.61	301.97
712.95	300.92
713.28	299.89
713.61	298.75
713.95	297.56
714.28	296.59
714.61	295.47
714.95	294.39
715.28	293.39
715.61	292.32
715.95	291.33
716.28	290.35
716.61	289.38
716.95	288.37
717.28	287.45
717.61	286.49
717.94	285.58
718.28	284.52
718.61	283.60
718.94	282.72
719.27	281.85
719.61	281.00
719.94	280.09
720.27	279.07
720.60	278.21
720.94	277.42
721.27	276.62
721.60	275.92
721.93	275.21
722.27	274.55
722.60	273.87
722.93	273.15
723.26	272.52
723.59	271.81
723.93	271.19
724.26	270.53
724.59	269.88
724.92	269.25
725.25	268.70
725.59	268.16
725.92	267.58
726.25	267.06
726.58	266.46
726.91	265.85
727.24	265.33
727.57	264.74
727.91	264.10
728.24	263.56
728.57	262.95
728.90	262.38
729.23	261.73
729.56	261.33
729.89	260.77
730.22	260.18
730.55	259.61
730.89	259.04
731.22	258.49
731.55	257.97
731.88	257.47
732.21	256.90
732.54	256.32
732.87	255.80
733.20	255.25
733.53	254.76
733.86	254.32
734.19	253.79
734.52	253.38
734.85	253.09
735.18	252.56
735.51	252.23
735.84	251.85
736.17	251.43
736.50	250.86
736.83	250.70
737.16	250.31
737.49	249.93
737.82	249.52
738.15	249.15
738.48	248.76
738.81	248.34
739.14	247.93
739.47	247.57
739.80	247.17
740.13	246.86
740.46	246.47
740.79	246.11
741.12	245.74
741.45	245.31
741.78	244.87
742.11	244.62
742.44	244.20
742.77	243.83
743.10	243.48
743.43	243.12
743.75	242.52
744.08	242.45
744.41	242.11
744.74	241.76
745.07	241.35
745.40	241.05
745.73	240.81
746.06	240.45
746.39	240.14
746.71	239.80
747.04	239.43
747.37	239.10
747.70	238.78
748.03	238.49
748.36	238.25
748.68	237.92
749.01	237.55
749.34	237.25
749.67	236.93
750.00	236.69
750.33	236.56
750.65	236.33
750.98	235.78
751.31	235.49
751.64	235.27
751.97	235.16
752.29	234.89
752.62	234.51
752.95	234.25
753.28	233.97
753.60	233.73
753.93	233.55
754.26	233.35
754.59	233.05
754.91	232.79
755.24	232.54
755.57	232.31
755.90	232.08
756.22	231.83
756.55	231.61
756.88	231.32
757.20	230.98
757.53	230.74
757.86	230.54
758.19	230.35
758.51	230.12
758.84	229.78
759.17	229.58
759.49	229.42
759.82	229.36
760.15	229.21
760.47	229.00
760.80	228.75
761.13	228.58
761.45	228.40
761.78	228.19
762.11	228.02
762.43	227.83
762.76	227.66
763.08	227.53
763.41	227.38
763.74	227.24
764.06	227.08
764.39	226.91
764.71	226.74
765.04	226.57
765.37	226.40
765.69	226.29
766.02	226.11
766.34	225.97
766.67	225.73
767.00	225.60
767.32	225.58
767.65	225.52
767.97	225.37
768.30	225.26
768.62	225.16
768.95	224.99
769.27	224.88
769.60	224.77
769.92	224.61
770.25	224.45
770.57	224.30
770.90	224.19
771.22	224.05
771.55	223.95
771.87	223.84
772.20	223.74
772.52	223.79
772.85	223.93
773.17	223.80
773.50	223.67
773.82	223.53
774.15	223.35
774.47	223.17
774.80	223.08
775.12	222.96
775.45	222.89
775.77	222.82
776.09	222.72
776.42	222.64
776.74	222.62
777.07	222.52
777.39	222.45
777.72	222.37
778.04	222.30
778.36	222.17
778.69	222.11
779.01	222.03
779.33	221.76
779.66	221.43
779.98	221.36
780.31	221.32
780.63	221.31
780.95	221.25
781.28	221.18
781.60	221.07
781.92	221.04
782.25	220.96
782.57	220.89
782.89	220.82
783.22	220.70
783.54	220.55
783.86	220.52
784.19	220.44
784.51	220.41
784.83	220.32
785.16	220.29
785.48	220.20
785.80	220.12
786.12	220.11
786.45	220.08
786.77	220.01
787.09	219.96
787.42	219.86
787.74	219.78
788.06	219.73
788.38	219.65
788.71	219.54
789.03	219.49
789.35	219.46
789.67	219.40
789.99	219.40
790.32	219.34
790.64	219.28
790.96	219.37
791.28	219.24
791.61	219.18
791.93	219.09
792.25	219.03
792.57	219.17
792.89	219.04
793.21	219.03
793.54	218.97
793.86	218.87
794.18	218.82
794.50	218.78
794.82	218.73
795.14	218.75
795.47	218.77
795.79	218.72
796.11	218.61
796.43	218.56
796.75	218.51
797.07	218.46
797.39	218.43
797.71	218.25
798.04	218.23
798.36	218.19
798.68	218.20
799.00	218.22
799.32	218.06
799.64	218.10
799.96	218.03
800.28	218.05
800.60	218.05
800.92	218.01
801.24	217.94
801.56	217.95
801.89	217.85
802.21	217.80
802.53	217.71
802.85	217.74
803.17	217.79
803.49	217.68
803.81	217.67
804.13	217.63
804.45	217.57
804.77	217.56
805.09	217.52
805.41	217.43
805.73	217.33
806.05	217.23
806.37	217.17
806.69	217.11
807.01	217.06
807.33	217.05
807.65	216.96
807.97	217.04
808.28	216.94
808.60	216.92
808.92	216.85
809.24	216.96
809.56	216.89
809.88	216.80
810.20	216.84
810.52	216.84
810.84	216.76
811.16	216.72
811.48	216.68
811.80	216.74
812.12	216.74
812.43	216.79
812.75	216.77
813.07	216.73
813.39	216.70
813.71	216.63
814.03	216.57
814.35	216.53
814.67	216.42
814.98	216.41
815.30	216.40
815.62	216.36
815.94	216.21
816.26	216.21
816.58	216.17
816.89	216.13
817.21	216.06
817.53	216.09
817.85	216.08
818.17	216.05
818.48	215.93
818.80	215.98
819.12	215.92
819.44	215.90
819.76	215.85
820.07	215.87
820.39	215.83
820.71	215.84
821.03	215.84
821.34	215.80
821.66	215.81
821.98	215.81
822.30	215.78
822.61	215.89
822.93	215.86
823.25	215.84
823.57	215.83
823.88	215.87
824.20	215.85
824.52	215.88
824.83	215.86
825.15	215.85
825.47	215.82
825.79	215.79
826.10	215.73
826.42	215.72
826.74	215.74
827.05	215.76
827.37	215.72
827.69	215.68
828.00	215.70
828.32	215.69
828.64	215.62
828.95	215.75
829.27	215.69
829.58	215.68
829.90	215.72
830.22	215.70
830.53	215.63
830.85	215.56
831.17	215.50
831.48	215.49
831.80	215.48
832.11	215.42
832.43	215.37
832.75	215.39
833.06	215.49
833.38	215.41
833.69	215.40
834.01	215.43
834.32	215.42
834.64	215.36
834.96	215.36
835.27	215.35
835.59	215.24
835.90	215.17
836.22	215.13
836.53	215.09
836.85	215.04
837.16	215.24
837.48	215.25
837.79	215.31
838.11	215.33
838.42	215.30
838.74	215.35
839.05	215.38
839.37	215.36
839.68	215.26
840.00	215.25
840.31	215.26
840.63	215.22
840.94	215.20
841.26	215.18
841.57	215.17
841.88	215.17
842.20	215.14
842.51	215.13
842.83	215.14
843.14	215.28
843.46	215.31
843.77	215.15
844.08	215.16
844.40	215.09
844.71	215.05
845.03	215.05
845.34	215.00
845.65	214.94
845.97	214.92
846.28	214.91
846.60	214.91
846.91	214.87
847.22	214.84
847.54	214.91
847.85	214.92
848.16	214.90
848.48	214.88
848.79	214.96
849.10	214.97
849.42	214.98
849.73	214.80
850.04	214.75
850.36	214.70
850.67	214.73
850.98	214.70
851.30	214.71
851.61	214.69
851.92	214.72
852.23	214.77
852.55	214.77
852.86	214.76
853.17	214.76
853.49	214.78
853.80	214.87
854.11	214.85
854.42	214.87
854.74	214.81
855.05	214.83
855.36	214.72
855.67	214.72
855.99	214.69
856.30	214.93
856.61	214.96
856.92	214.96
857.23	214.95
857.55	214.94
857.86	214.94
858.17	214.98
858.48	214.90
858.79	214.87
859.11	214.88
859.42	214.87
859.73	214.87
860.04	214.84
860.35	214.71
860.66	214.64
860.98	214.64
861.29	214.68
861.60	214.65
861.91	214.72
862.22	214.71
862.53	214.69
862.84	214.43
863.16	214.47
863.47	214.45
863.78	214.43
864.09	214.45
864.40	214.44
864.71	214.46
865.02	214.48
865.33	214.46
865.64	214.43
865.95	214.43
866.27	214.55
866.58	214.53
866.89	214.56
867.20	214.55
867.51	214.50
867.82	214.53
868.13	214.60
868.44	214.50
868.75	214.51
869.06	214.52
869.37	214.55
869.68	214.45
869.99	214.42
870.30	214.40
870.61	214.41
870.92	214.38
871.23	214.33
871.54	214.39
871.85	214.45
872.16	214.47
872.47	214.44
872.78	214.31
873.09	214.32
873.40	214.32
873.71	214.33
874.02	214.34
874.33	214.28
874.64	214.22
874.95	214.27
875.26	214.25
875.56	214.23
875.87	214.20
876.18	214.25
876.49	214.48
876.80	214.48
877.11	214.43
877.42	214.41
877.73	214.42
878.04	214.36
878.35	214.35
878.66	214.34
878.96	214.34
879.27	214.32
879.58	214.31
879.89	214.31
880.20	214.38
880.51	214.41
880.82	214.42
881.12	214.45
881.43	214.42
881.74	214.38
882.05	214.34
882.36	214.36
882.67	214.36
882.97	214.14
883.28	214.14
883.59	214.11
883.90	214.17
884.21	214.19
884.51	214.20
884.82	214.18
885.13	214.16
885.44	214.15
885.74	214.17
886.05	214.18
886.36	214.16
886.67	214.08
886.98	214.16
887.28	214.21
887.59	214.19
887.90	214.21
888.20	214.22
888.51	214.30
888.82	214.26
889.13	214.25
889.43	214.44
889.74	214.42
890.05	214.45
890.35	214.42
890.66	214.39
890.97	214.33
891.28	214.29
891.58	214.33
891.89	214.34
892.20	214.35
892.50	214.39
892.81	214.38
893.12	214.39
893.42	214.29
893.73	214.24
894.04	214.22
894.34	214.25
894.65	214.25
894.95	214.21
895.26	214.25
895.57	214.35
895.87	214.14
896.18	214.19
896.48	214.20
896.79	214.19
897.10	214.19
897.40	214.22
897.71	214.26
898.01	214.24
898.32	214.27
898.63	214.24
898.93	214.19
899.24	214.22
899.54	214.20
899.85	214.19
900.15	214.20
900.46	214.20
900.76	214.19
901.07	214.23
901.38	214.24
901.68	214.26
901.99	214.14
902.29	214.16
902.60	214.14
902.90	214.14
903.21	214.15
903.51	214.15
903.82	214.23
904.12	214.21
904.43	214.24
904.73	214.21
905.03	214.21
905.34	214.41
905.64	214.38
905.95	214.41
906.25	214.41
906.56	214.41
906.86	214.44
907.17	214.42
907.47	214.38
907.77	214.36
908.08	214.31
908.38	214.34
908.69	214.35
908.99	214.38
909.30	214.36
909.60	214.35
909.90	214.36
910.21	214.31
910.51	214.28
910.81	214.28
911.12	214.28
911.42	214.31
911.73	214.09
912.03	214.11
912.33	214.12
912.64	214.12
912.94	214.11
913.24	214.05
913.55	214.03
913.85	214.02
914.15	214.07
914.46	214.11
914.76	214.07
915.06	214.09
915.37	214.07
915.67	214.04
915.97	214.05
916.27	214.02
916.58	214.00
916.88	214.02
917.18	213.98
917.49	214.16
917.79	214.13
918.09	214.15
918.39	214.20
918.70	214.19
919.00	214.20
919.30	214.30
919.60	214.30
919.91	214.30
920.21	214.32
920.51	214.26
920.81	214.23
921.12	214.28
921.42	214.26
921.72	214.27
922.02	214.28
922.32	214.35
922.63	214.36
922.93	214.45
923.23	214.44
923.53	214.44
923.83	214.30
924.13	214.32
924.44	214.32
924.74	214.34
925.04	214.36
925.34	214.36
925.64	214.27
925.94	214.28
926.24	214.37
926.55	214.34
926.85	214.39
927.15	214.39
927.45	214.38
927.75	214.37
928.05	214.38
928.35	214.40
928.65	214.38
928.95	214.38
929.26	214.30
929.56	214.35
929.86	214.36
930.16	214.34
930.46	214.35
930.76	214.38
931.06	214.28
931.36	214.22
931.66	214.23
931.96	214.24
932.26	214.25
932.56	214.19
932.86	214.20
933.16	214.17
933.46	214.13
933.76	214.11
934.06	214.14
934.36	214.22
934.66	214.25
934.96	214.22
935.26	214.23
935.56	214.25
935.86	214.18
936.16	214.15
936.46	214.15
936.76	214.11
937.06	214.06
937.36	214.10
937.66	214.16
937.96	214.15
938.26	214.08
938.56	214.06
938.86	214.06
939.16	214.11
939.46	214.10
939.76	214.14
940.06	214.13
940.35	214.08
940.65	213.95
940.95	213.93
941.25	213.89
941.55	213.86
941.85	213.87
942.15	213.91
942.45	213.94
942.75	213.94
943.04	213.95
943.34	213.98
943.64	213.96
943.94	213.90
944.24	213.92
944.54	213.97
944.84	214.00
945.13	213.95
945.43	213.88
945.73	213.88
946.03	213.85
946.33	213.85
946.62	213.85
946.92	213.83
947.22	213.86
947.52	213.88
947.82	213.92
948.11	213.91
948.41	213.87
948.71	213.83
949.01	213.83
949.31	213.83
949.60	213.81
949.90	213.87
950.20	213.87
950.50	213.86
950.79	213.82
951.09	213.83
951.39	213.83
951.69	213.84
951.98	213.94
952.28	213.94
952.58	213.91
952.87	213.90
953.17	213.97
953.47	213.88
953.76	213.85
954.06	213.81
954.36	213.79
954.66	213.77
954.95	213.85
955.25	213.83
955.55	213.83
955.84	213.78
956.14	213.74
956.44	213.74
956.73	213.74
957.03	213.76
957.32	213.76
957.62	213.75
957.92	213.78
958.21	213.72
958.51	214.00
958.81	214.06
959.10	214.08
959.40	214.10
959.69	214.15
959.99	214.18
960.29	214.19
960.58	214.16
960.88	214.24
961.17	214.20
961.47	214.25
961.76	214.25
962.06	214.29
962.36	214.29
962.65	214.31
962.95	214.32
963.24	214.29
963.54	214.28
963.83	214.31
964.13	214.31
964.42	214.24
964.72	214.06
965.01	214.06
965.31	214.04
965.60	213.96
965.90	214.10
966.19	214.05
966.49	214.06
966.78	214.10
967.08	214.07
967.37	214.10
967.67	214.05
967.96	214.08
968.26	214.08
968.55	214.10
968.85	214.08
969.14	214.08
969.43	214.07
969.73	214.07
970.02	214.06
970.32	214.05
970.61	214.05
970.91	213.98
971.20	213.91
971.49	213.94
971.79	213.99
972.08	213.86
972.38	213.90
972.67	213.88
972.96	213.89
973.26	213.87
973.55	213.91
973.85	213.91
974.14	213.90
974.43	213.95
974.73	213.91
975.02	213.90
975.31	213.90
975.61	213.91
975.90	213.85
976.19	213.83
976.49	213.85
976.78	213.86
977.07	213.86
977.37	213.89
977.66	213.89
977.95	213.87
978.24	213.86
978.54	213.89
978.83	213.87
979.12	213.86
979.42	213.85
979.71	213.80
980.00	213.80
980.29	213.77
980.59	213.70
980.88	213.71
981.17	213.71
981.46	213.68
981.76	213.70
982.05	213.79
982.34	213.82
982.63	213.81
982.93	213.82
983.22	213.87
983.51	213.87
983.80	213.87
984.09	213.90
984.39	213.89
984.68	213.86
984.97	213.87
985.26	213.86
985.55	213.92
985.85	213.89
986.14	213.91
986.43	213.95
986.72	213.98
987.01	213.97
987.30	213.95
987.59	213.95
987.89	213.95
988.18	213.83
988.47	213.84
988.76	213.82
989.05	213.80
989.34	213.76
989.63	213.82
989.92	213.80
990.22	213.74
990.51	213.75
990.80	213.74
991.09	213.76
991.38	213.81
991.67	213.75
991.96	213.72
992.25	213.73
992.54	213.71
992.83	213.69
993.12	213.68
993.41	213.73
993.70	213.80
993.99	213.85
994.28	213.92
994.58	213.92
994.87	213.89
995.16	213.86
995.45	213.86
995.74	213.79
996.03	213.82
996.32	213.86
996.61	213.89
996.90	213.88
997.19	213.86
997.48	213.80
997.77	213.79
998.06	213.80
998.34	213.80
998.63	213.83
998.92	213.80
999.21	213.83
999.50	213.81
999.79	213.74
1000.08	213.71
1000.37	213.74
1000.66	213.71
1000.95	213.77
1001.24	213.80
1001.53	213.81
1001.82	213.82
1002.11	213.78
1002.40	213.81
1002.68	213.83
1002.97	214.00
1003.26	214.00
1003.55	214.03
1003.84	214.02
1004.13	214.12
1004.42	214.10
1004.71	214.08
1004.99	214.06
1005.28	214.11
1005.57	214.15
1005.86	214.14
1006.15	214.12
1006.44	214.09
1006.72	214.12
1007.01	214.10
1007.30	214.10
1007.59	214.08
1007.88	214.07
1008.17	214.10
1008.45	214.06
1008.74	214.00
1009.03	213.90
1009.32	213.92
1009.60	213.90
1009.89	213.92
1010.18	213.82
1010.47	213.82
1010.76	213.81
1011.04	213.84
1011.33	213.86
1011.62	213.83
1011.91	213.82
1012.19	213.83
1012.48	213.83
1012.77	213.81
1013.05	213.91
1013.34	213.89
1013.63	213.85
1013.92	213.88
1014.20	213.86
1014.49	213.87
1014.78	213.88
1015.06	213.81
1015.35	213.81
1015.64	213.81
1015.92	213.82
1016.21	213.81
1016.50	213.82
1016.78	213.82
1017.07	213.83
1017.36	213.76
1017.64	213.72
1017.93	213.74
1018.22	213.71
1018.50	213.67
1018.79	213.69
1019.08	213.59
1019.36	213.61
1019.65	213.64
1019.93	213.69
1020.22	213.71
1020.51	213.79
1020.79	213.78
1021.08	213.04
1021.36	212.65
1021.65	213.89
1021.94	213.93
1022.22	213.81
1022.51	213.70
1022.79	214.90
1023.08	213.83
1023.36	215.96
1023.65	213.44
>>>>>End Processed Spectral Data<<<<<
