SpectraSuite Data File
++++++++++++++++++++++++++++++++++++
Date: Tue Jan 29 16:41:24 EST 2013
User: group
Dark Spectrum Present: No
Reference Spectrum Present: No
Number of Sampled Component Spectra: 1
Spectrometers: USB2E7196
Integration Time (usec): 65000 (USB2E7196)
Spectra Averaged: 100 (USB2E7196)
Boxcar Smoothing: 10 (USB2E7196)
Correct for Electrical Dark: No (USB2E7196)
Strobe/Lamp Enabled: No (USB2E7196)
Correct for Detector Non-linearity: No (USB2E7196)
Correct for Stray Light: No (USB2E7196)
Number of Pixels in Processed Spectrum: 2048
>>>>>Begin Processed Spectral Data<<<<<
339.09	0.00
339.48	202.13
339.86	203.15
340.24	204.72
340.63	205.76
341.01	210.97
341.39	208.71
341.78	209.59
342.16	211.85
342.54	211.54
342.93	200.96
343.31	211.09
343.69	211.62
344.07	212.11
344.46	212.54
344.84	212.99
345.22	213.13
345.60	213.41
345.99	213.62
346.37	213.73
346.75	213.85
347.13	213.97
347.52	214.03
347.90	214.17
348.28	214.23
348.66	214.31
349.05	214.28
349.43	214.36
349.81	214.43
350.19	214.51
350.57	214.59
350.96	214.69
351.34	214.82
351.72	214.92
352.10	214.99
352.48	215.10
352.87	215.13
353.25	215.21
353.63	215.25
354.01	215.34
354.39	215.44
354.77	215.55
355.15	215.67
355.54	215.76
355.92	215.77
356.30	215.85
356.68	216.05
357.06	216.15
357.44	216.17
357.82	216.23
358.20	216.30
358.58	216.34
358.97	216.41
359.35	216.53
359.73	216.64
360.11	216.72
360.49	216.77
360.87	216.82
361.25	216.90
361.63	217.04
362.01	217.11
362.39	217.10
362.77	217.12
363.15	217.10
363.53	217.14
363.91	217.19
364.29	217.24
364.67	217.09
365.05	217.11
365.43	217.16
365.81	217.21
366.19	217.31
366.57	217.39
366.95	217.39
367.33	217.33
367.71	217.34
368.09	217.38
368.47	217.38
368.85	217.40
369.23	217.44
369.61	217.36
369.99	217.40
370.37	217.46
370.75	217.58
371.13	217.53
371.51	217.48
371.89	217.47
372.27	217.44
372.65	217.41
373.03	217.38
373.41	217.33
373.78	217.28
374.16	217.16
374.54	217.09
374.92	217.02
375.30	216.99
375.68	216.89
376.06	216.85
376.44	216.79
376.82	216.73
377.19	216.68
377.57	216.63
377.95	216.51
378.33	216.42
378.71	216.24
379.09	216.24
379.47	216.21
379.84	216.13
380.22	216.06
380.60	216.01
380.98	215.95
381.36	215.90
381.73	215.83
382.11	215.84
382.49	215.79
382.87	215.74
383.25	215.70
383.62	215.88
384.00	215.80
384.38	215.76
384.76	215.77
385.13	215.79
385.51	215.76
385.89	215.71
386.27	215.70
386.64	215.66
387.02	215.60
387.40	215.55
387.78	215.55
388.15	215.53
388.53	215.49
388.91	215.45
389.29	215.43
389.66	215.44
390.04	215.34
390.42	215.39
390.79	215.36
391.17	215.33
391.55	215.11
391.92	215.11
392.30	215.15
392.68	215.10
393.05	215.06
393.43	215.04
393.81	215.06
394.18	215.02
394.56	215.06
394.94	215.11
395.31	215.11
395.69	215.17
396.06	215.20
396.44	215.22
396.82	215.22
397.19	215.34
397.57	215.32
397.95	215.38
398.32	215.33
398.70	215.41
399.07	215.49
399.45	215.50
399.82	215.55
400.20	215.56
400.58	215.60
400.95	215.59
401.33	215.70
401.70	215.94
402.08	216.03
402.45	216.12
402.83	216.28
403.20	216.38
403.58	216.47
403.95	216.62
404.33	216.80
404.71	216.96
405.08	217.18
405.46	217.37
405.83	217.60
406.21	217.81
406.58	218.06
406.96	218.28
407.33	218.59
407.70	218.91
408.08	219.38
408.45	219.75
408.83	220.12
409.20	220.45
409.58	220.72
409.95	221.18
410.33	221.67
410.70	222.09
411.08	222.65
411.45	223.22
411.82	223.81
412.20	224.49
412.57	225.32
412.95	225.92
413.32	226.77
413.69	227.57
414.07	228.49
414.44	229.44
414.82	230.46
415.19	231.65
415.56	232.81
415.94	233.99
416.31	235.41
416.68	236.85
417.06	238.47
417.43	239.99
417.81	241.72
418.18	243.49
418.55	245.42
418.93	247.45
419.30	249.60
419.67	251.83
420.04	254.13
420.42	256.55
420.79	259.39
421.16	262.21
421.54	265.12
421.91	268.11
422.28	271.23
422.66	274.52
423.03	277.76
423.40	281.14
423.77	284.78
424.15	288.46
424.52	292.34
424.89	296.57
425.26	300.66
425.64	304.56
426.01	308.85
426.38	313.34
426.75	317.85
427.13	322.55
427.50	327.52
427.87	332.71
428.24	337.89
428.61	342.89
428.99	348.39
429.36	354.43
429.73	360.33
430.10	366.23
430.47	372.28
430.85	378.62
431.22	385.35
431.59	392.46
431.96	399.30
432.33	406.75
432.70	414.00
433.08	422.57
433.45	430.67
433.82	438.69
434.19	447.59
434.56	456.37
434.93	464.77
435.30	473.06
435.68	482.27
436.05	491.32
436.42	500.25
436.79	508.41
437.16	517.22
437.53	526.55
437.90	535.75
438.27	544.76
438.64	553.96
439.01	562.53
439.38	570.18
439.75	577.46
440.13	585.88
440.50	593.82
440.87	600.30
441.24	607.00
441.61	614.37
441.98	619.78
442.35	626.11
442.72	632.42
443.09	638.52
443.46	642.19
443.83	644.72
444.20	646.95
444.57	650.16
444.94	651.60
445.31	653.05
445.68	654.44
446.05	655.08
446.42	654.33
446.79	653.33
447.16	652.19
447.53	651.49
447.90	648.27
448.27	645.06
448.64	640.37
449.01	637.04
449.37	631.15
449.74	625.47
450.11	618.59
450.48	611.24
450.85	603.83
451.22	597.40
451.59	591.23
451.96	585.34
452.33	577.47
452.70	570.37
453.07	561.83
453.43	553.19
453.80	544.86
454.17	536.84
454.54	529.25
454.91	521.09
455.28	513.07
455.65	505.54
456.02	497.94
456.38	491.56
456.75	483.62
457.12	477.00
457.49	470.47
457.86	464.28
458.23	458.81
458.59	452.79
458.96	446.79
459.33	441.45
459.70	436.06
460.07	431.72
460.43	426.76
460.80	422.18
461.17	418.16
461.54	413.96
461.91	409.89
462.27	405.80
462.64	402.30
463.01	398.51
463.38	394.82
463.74	391.13
464.11	387.85
464.48	385.03
464.85	381.90
465.21	379.48
465.58	376.78
465.95	373.63
466.32	370.97
466.68	368.35
467.05	365.75
467.42	363.19
467.78	360.52
468.15	357.99
468.52	356.04
468.88	353.54
469.25	351.33
469.62	349.55
469.98	347.58
470.35	345.77
470.72	344.04
471.08	342.24
471.45	340.74
471.82	339.22
472.18	337.50
472.55	336.27
472.92	334.83
473.28	333.63
473.65	332.47
474.02	331.39
474.38	330.49
474.75	329.73
475.11	328.89
475.48	328.30
475.85	327.81
476.21	327.30
476.58	326.95
476.94	326.68
477.31	326.37
477.67	326.13
478.04	325.96
478.41	325.93
478.77	326.06
479.14	325.99
479.50	326.15
479.87	326.48
480.23	326.85
480.60	327.08
480.96	327.41
481.33	328.03
481.69	328.62
482.06	329.08
482.42	329.53
482.79	330.18
483.15	330.98
483.52	331.90
483.88	332.84
484.25	333.78
484.61	334.85
484.98	335.89
485.34	337.19
485.71	338.53
486.07	339.94
486.44	341.26
486.80	342.88
487.17	344.50
487.53	346.33
487.90	348.19
488.26	350.22
488.62	352.39
488.99	354.39
489.35	356.49
489.72	358.86
490.08	361.42
490.44	363.97
490.81	366.67
491.17	369.35
491.54	372.29
491.90	375.31
492.26	378.53
492.63	381.93
492.99	385.43
493.36	389.14
493.72	393.07
494.08	397.15
494.45	401.39
494.81	405.77
495.17	410.22
495.54	414.92
495.90	419.72
496.26	424.61
496.63	429.84
496.99	435.30
497.35	440.94
497.72	446.72
498.08	452.70
498.44	458.77
498.80	465.23
499.17	471.76
499.53	478.45
499.89	485.37
500.26	492.27
500.62	499.31
500.98	506.71
501.34	514.17
501.71	521.94
502.07	529.71
502.43	537.75
502.79	545.89
503.16	554.34
503.52	563.01
503.88	571.69
504.24	580.63
504.60	589.75
504.97	598.99
505.33	608.33
505.69	618.08
506.05	628.01
506.41	637.90
506.78	648.01
507.14	658.38
507.50	668.86
507.86	679.63
508.22	690.50
508.59	701.14
508.95	712.18
509.31	723.40
509.67	734.88
510.03	746.33
510.39	758.05
510.75	769.88
511.12	781.82
511.48	793.95
511.84	806.24
512.20	818.56
512.56	831.21
512.92	843.97
513.28	856.72
513.64	869.54
514.00	882.44
514.37	895.43
514.73	908.52
515.09	921.56
515.45	934.54
515.81	947.63
516.17	961.16
516.53	974.52
516.89	987.70
517.25	1000.88
517.61	1014.54
517.97	1027.92
518.33	1041.05
518.69	1054.58
519.05	1068.43
519.41	1082.20
519.77	1096.14
520.13	1109.47
520.49	1122.77
520.85	1136.33
521.21	1149.61
521.57	1163.42
521.93	1176.49
522.29	1190.21
522.65	1203.93
523.01	1217.60
523.37	1230.83
523.73	1244.14
524.09	1257.29
524.45	1270.76
524.81	1284.41
525.17	1297.76
525.53	1311.12
525.89	1324.50
526.25	1337.83
526.61	1350.69
526.97	1363.81
527.33	1376.87
527.68	1390.44
528.04	1403.89
528.40	1417.02
528.76	1430.56
529.12	1443.43
529.48	1456.90
529.84	1469.21
530.20	1482.11
530.56	1494.73
530.91	1508.03
531.27	1521.03
531.63	1533.93
531.99	1546.82
532.35	1559.11
532.71	1571.60
533.07	1584.68
533.42	1597.21
533.78	1609.40
534.14	1621.59
534.50	1633.03
534.86	1644.65
535.21	1655.66
535.57	1667.35
535.93	1678.67
536.29	1689.85
536.65	1701.44
537.00	1712.52
537.36	1724.17
537.72	1735.27
538.08	1746.95
538.44	1758.14
538.79	1769.28
539.15	1780.34
539.51	1791.24
539.87	1802.67
540.22	1813.65
540.58	1824.74
540.94	1835.68
541.29	1846.04
541.65	1855.85
542.01	1866.33
542.37	1876.54
542.72	1886.88
543.08	1896.68
543.44	1907.32
543.79	1916.70
544.15	1926.28
544.51	1936.25
544.87	1946.20
545.22	1955.52
545.58	1964.35
545.94	1973.17
546.29	1981.75
546.65	1990.12
547.01	1998.41
547.36	2006.22
547.72	2013.96
548.07	2021.41
548.43	2029.13
548.79	2037.07
549.14	2045.50
549.50	2054.17
549.86	2062.20
550.21	2069.58
550.57	2077.40
550.92	2084.22
551.28	2091.79
551.64	2099.16
551.99	2106.76
552.35	2114.00
552.70	2120.88
553.06	2127.79
553.41	2134.13
553.77	2140.78
554.13	2147.25
554.48	2154.33
554.84	2161.51
555.19	2168.05
555.55	2174.69
555.90	2181.01
556.26	2187.80
556.61	2193.84
556.97	2198.58
557.32	2204.25
557.68	2210.66
558.03	2216.55
558.39	2221.96
558.74	2227.95
559.10	2233.38
559.45	2238.94
559.81	2244.46
560.16	2249.86
560.52	2255.56
560.87	2262.00
561.23	2267.77
561.58	2274.41
561.94	2279.47
562.29	2284.18
562.64	2290.17
563.00	2295.76
563.35	2301.37
563.71	2307.18
564.06	2312.88
564.42	2318.78
564.77	2323.75
565.12	2329.05
565.48	2333.95
565.83	2339.37
566.19	2344.61
566.54	2349.92
566.89	2354.53
567.25	2359.10
567.60	2364.99
567.96	2370.07
568.31	2374.60
568.66	2378.95
569.02	2382.90
569.37	2386.68
569.72	2390.96
570.08	2394.50
570.43	2397.43
570.78	2400.47
571.14	2402.84
571.49	2405.77
571.84	2409.27
572.20	2412.29
572.55	2415.10
572.90	2417.46
573.26	2420.11
573.61	2422.67
573.96	2424.74
574.31	2426.62
574.67	2428.28
575.02	2428.92
575.37	2430.34
575.72	2430.90
576.08	2432.28
576.43	2432.24
576.78	2432.50
577.13	2434.02
577.49	2435.21
577.84	2436.18
578.19	2437.40
578.54	2437.95
578.90	2438.55
579.25	2438.20
579.60	2437.99
579.95	2437.16
580.30	2437.04
580.66	2436.28
581.01	2434.58
581.36	2432.10
581.71	2430.55
582.06	2429.33
582.42	2428.29
582.77	2425.84
583.12	2424.09
583.47	2422.49
583.82	2421.76
584.17	2420.51
584.53	2418.18
584.88	2415.77
585.23	2413.88
585.58	2411.34
585.93	2409.21
586.28	2406.94
586.63	2404.47
586.98	2402.04
587.34	2400.08
587.69	2397.47
588.04	2395.26
588.39	2393.59
588.74	2391.06
589.09	2388.36
589.44	2385.11
589.79	2382.45
590.14	2380.45
590.49	2377.53
590.84	2373.74
591.19	2370.52
591.54	2367.28
591.89	2363.15
592.25	2359.79
592.60	2355.47
592.95	2351.26
593.30	2346.94
593.65	2342.46
594.00	2337.90
594.35	2334.79
594.70	2330.01
595.05	2325.41
595.40	2319.93
595.75	2314.03
596.10	2310.32
596.45	2305.37
596.80	2300.71
597.15	2295.40
597.50	2289.42
597.85	2284.51
598.19	2279.15
598.54	2273.18
598.89	2267.80
599.24	2263.20
599.59	2257.01
599.94	2250.95
600.29	2244.98
600.64	2238.95
600.99	2232.12
601.34	2226.66
601.69	2219.61
602.04	2213.16
602.39	2206.58
602.74	2200.38
603.08	2194.94
603.43	2188.42
603.78	2181.59
604.13	2174.43
604.48	2166.92
604.83	2160.61
605.18	2154.18
605.53	2147.14
605.87	2140.13
606.22	2133.22
606.57	2125.24
606.92	2117.30
607.27	2110.39
607.62	2103.72
607.96	2096.62
608.31	2090.17
608.66	2082.39
609.01	2074.79
609.36	2067.58
609.70	2059.72
610.05	2051.93
610.40	2043.51
610.75	2035.06
611.10	2027.14
611.44	2018.25
611.79	2009.78
612.14	1999.84
612.49	1989.20
612.83	1979.93
613.18	1970.72
613.53	1961.45
613.88	1951.76
614.22	1943.08
614.57	1933.16
614.92	1922.48
615.27	1912.25
615.61	1901.94
615.96	1892.25
616.31	1882.69
616.65	1873.40
617.00	1863.68
617.35	1854.18
617.70	1844.41
618.04	1834.42
618.39	1824.43
618.74	1814.69
619.08	1805.08
619.43	1796.49
619.78	1788.35
620.12	1779.68
620.47	1770.06
620.82	1759.68
621.16	1750.04
621.51	1740.23
621.85	1730.52
622.20	1720.34
622.55	1709.90
622.89	1700.07
623.24	1690.38
623.59	1680.60
623.93	1670.32
624.28	1660.59
624.62	1650.46
624.97	1640.27
625.32	1630.45
625.66	1621.56
626.01	1612.86
626.35	1603.44
626.70	1593.37
627.04	1583.21
627.39	1573.15
627.73	1563.84
628.08	1555.14
628.43	1545.60
628.77	1536.37
629.12	1527.47
629.46	1519.68
629.81	1511.39
630.15	1501.99
630.50	1492.32
630.84	1481.89
631.19	1472.13
631.53	1462.91
631.88	1452.75
632.22	1442.74
632.57	1433.48
632.91	1423.39
633.26	1413.55
633.60	1404.06
633.95	1394.78
634.29	1385.43
634.64	1376.18
634.98	1366.32
635.32	1356.96
635.67	1348.50
636.01	1339.24
636.36	1329.63
636.70	1320.10
637.05	1310.71
637.39	1301.80
637.73	1293.01
638.08	1285.50
638.42	1277.36
638.77	1268.58
639.11	1260.27
639.45	1252.42
639.80	1243.90
640.14	1235.17
640.49	1226.36
640.83	1217.52
641.17	1209.45
641.52	1201.31
641.86	1192.78
642.20	1184.99
642.55	1176.41
642.89	1167.56
643.23	1159.01
643.58	1150.80
643.92	1141.81
644.26	1133.09
644.61	1124.64
644.95	1116.01
645.29	1106.79
645.64	1097.57
645.98	1089.01
646.32	1081.16
646.66	1072.72
647.01	1064.46
647.35	1056.38
647.69	1048.18
648.04	1040.02
648.38	1031.11
648.72	1022.34
649.06	1013.90
649.41	1005.67
649.75	997.69
650.09	989.83
650.43	981.74
650.78	973.53
651.12	965.85
651.46	958.48
651.80	951.24
652.14	943.95
652.49	936.40
652.83	929.12
653.17	921.45
653.51	913.88
653.85	906.69
654.20	899.49
654.54	892.00
654.88	884.72
655.22	877.42
655.56	870.53
655.90	863.73
656.25	857.01
656.59	850.11
656.93	843.04
657.27	835.93
657.61	828.97
657.95	822.86
658.29	816.93
658.64	810.85
658.98	804.33
659.32	797.76
659.66	791.40
660.00	785.10
660.34	779.11
660.68	772.92
661.02	766.46
661.36	760.35
661.70	754.56
662.05	748.90
662.39	743.39
662.73	737.91
663.07	732.44
663.41	726.87
663.75	721.20
664.09	715.49
664.43	710.03
664.77	704.62
665.11	698.69
665.45	692.78
665.79	686.99
666.13	681.29
666.47	675.71
666.81	670.31
667.15	664.94
667.49	659.70
667.83	654.40
668.17	649.32
668.51	644.22
668.85	639.27
669.19	634.33
669.53	629.36
669.87	624.23
670.21	619.48
670.55	614.73
670.89	610.18
671.23	605.92
671.57	601.51
671.91	597.21
672.25	593.13
672.58	588.96
672.92	584.79
673.26	580.91
673.60	577.04
673.94	573.23
674.28	569.47
674.62	565.71
674.96	561.98
675.30	558.33
675.64	554.69
675.97	551.05
676.31	547.41
676.65	543.77
676.99	540.30
677.33	536.45
677.67	532.73
678.01	528.92
678.34	525.21
678.68	521.64
679.02	518.03
679.36	514.30
679.70	510.54
680.04	506.92
680.37	503.37
680.71	500.00
681.05	496.79
681.39	493.47
681.73	490.23
682.06	487.16
682.40	484.07
682.74	480.81
683.08	477.53
683.42	474.24
683.75	471.19
684.09	468.10
684.43	465.24
684.77	462.29
685.10	459.38
685.44	456.45
685.78	453.46
686.12	450.66
686.45	447.89
686.79	445.28
687.13	442.74
687.46	440.10
687.80	437.32
688.14	434.45
688.48	431.77
688.81	429.10
689.15	426.48
689.49	423.80
689.82	421.25
690.16	418.61
690.50	416.23
690.83	413.69
691.17	411.10
691.51	408.56
691.84	406.24
692.18	403.97
692.52	401.72
692.85	399.60
693.19	397.42
693.52	395.20
693.86	392.91
694.20	390.70
694.53	388.51
694.87	386.34
695.21	384.17
695.54	382.01
695.88	379.79
696.21	377.57
696.55	375.45
696.88	373.36
697.22	371.37
697.56	369.44
697.89	367.50
698.23	365.77
698.56	364.02
698.90	362.20
699.23	360.33
699.57	358.41
699.90	356.51
700.24	354.66
700.58	352.87
700.91	351.18
701.25	349.60
701.58	347.95
701.92	346.37
702.25	344.74
702.59	343.10
702.92	341.55
703.26	339.95
703.59	338.45
703.93	337.16
704.26	335.72
704.60	334.14
704.93	332.63
705.26	331.09
705.60	329.53
705.93	327.99
706.27	326.59
706.60	325.31
706.94	324.05
707.27	322.65
707.61	321.29
707.94	319.93
708.27	318.40
708.61	316.94
708.94	315.50
709.28	314.24
709.61	313.03
709.94	311.77
710.28	310.56
710.61	309.31
710.95	307.87
711.28	306.75
711.61	305.55
711.95	304.40
712.28	303.19
712.61	302.07
712.95	301.01
713.28	299.96
713.61	298.78
713.95	297.58
714.28	296.55
714.61	295.46
714.95	294.40
715.28	293.34
715.61	292.32
715.95	291.35
716.28	290.35
716.61	289.30
716.95	288.30
717.28	287.36
717.61	286.39
717.94	285.46
718.28	284.41
718.61	283.54
718.94	282.63
719.27	281.76
719.61	280.90
719.94	280.02
720.27	279.05
720.60	278.17
720.94	277.38
721.27	276.59
721.60	275.88
721.93	275.17
722.27	274.54
722.60	273.86
722.93	273.14
723.26	272.41
723.59	271.71
723.93	271.10
724.26	270.41
724.59	269.77
724.92	269.17
725.25	268.64
725.59	268.05
725.92	267.52
726.25	266.95
726.58	266.36
726.91	265.77
727.24	265.19
727.57	264.64
727.91	264.00
728.24	263.48
728.57	262.86
728.90	262.30
729.23	261.67
729.56	261.20
729.89	260.66
730.22	260.11
730.55	259.56
730.89	258.98
731.22	258.43
731.55	257.89
731.88	257.31
732.21	256.76
732.54	256.20
732.87	255.64
733.20	255.13
733.53	254.58
733.86	254.08
734.19	253.59
734.52	253.18
734.85	252.90
735.18	252.40
735.51	252.02
735.84	251.57
736.17	251.18
736.50	250.66
736.83	250.49
737.16	250.13
737.49	249.75
737.82	249.34
738.15	249.01
738.48	248.62
738.81	248.22
739.14	247.78
739.47	247.42
739.80	247.03
740.13	246.68
740.46	246.32
740.79	245.94
741.12	245.58
741.45	245.19
741.78	244.72
742.11	244.44
742.44	244.06
742.77	243.79
743.10	243.42
743.43	243.06
743.75	242.47
744.08	242.38
744.41	241.99
744.74	241.62
745.07	241.22
745.40	240.92
745.73	240.71
746.06	240.40
746.39	240.05
746.71	239.72
747.04	239.38
747.37	239.03
747.70	238.75
748.03	238.43
748.36	238.16
748.68	237.88
749.01	237.51
749.34	237.21
749.67	236.92
750.00	236.68
750.33	236.55
750.65	236.29
750.98	235.75
751.31	235.54
751.64	235.32
751.97	235.19
752.29	234.94
752.62	234.57
752.95	234.32
753.28	234.05
753.60	233.79
753.93	233.60
754.26	233.39
754.59	233.09
754.91	232.86
755.24	232.59
755.57	232.31
755.90	232.10
756.22	231.87
756.55	231.60
756.88	231.30
757.20	230.92
757.53	230.66
757.86	230.46
758.19	230.24
758.51	230.03
758.84	229.73
759.17	229.50
759.49	229.35
759.82	229.25
760.15	229.12
760.47	228.93
760.80	228.68
761.13	228.53
761.45	228.35
761.78	228.16
762.11	227.99
762.43	227.83
762.76	227.65
763.08	227.48
763.41	227.30
763.74	227.17
764.06	227.02
764.39	226.83
764.71	226.67
765.04	226.50
765.37	226.33
765.69	226.19
766.02	226.05
766.34	225.89
766.67	225.67
767.00	225.57
767.32	225.58
767.65	225.62
767.97	225.48
768.30	225.36
768.62	225.26
768.95	225.10
769.27	224.98
769.60	224.90
769.92	224.75
770.25	224.58
770.57	224.42
770.90	224.29
771.22	224.21
771.55	224.10
771.87	224.00
772.20	223.90
772.52	223.96
772.85	224.10
773.17	223.97
773.50	223.83
773.82	223.69
774.15	223.46
774.47	223.18
774.80	223.08
775.12	222.98
775.45	222.86
775.77	222.79
776.09	222.70
776.42	222.59
776.74	222.58
777.07	222.51
777.39	222.41
777.72	222.30
778.04	222.25
778.36	222.16
778.69	222.08
779.01	222.01
779.33	221.74
779.66	221.39
779.98	221.31
780.31	221.24
780.63	221.25
780.95	221.19
781.28	221.09
781.60	221.00
781.92	220.90
782.25	220.86
782.57	220.81
782.89	220.74
783.22	220.65
783.54	220.54
783.86	220.51
784.19	220.49
784.51	220.52
784.83	220.42
785.16	220.35
785.48	220.30
785.80	220.24
786.12	220.21
786.45	220.17
786.77	220.09
787.09	220.06
787.42	219.94
787.74	219.90
788.06	219.85
788.38	219.78
788.71	219.74
789.03	219.67
789.35	219.61
789.67	219.53
789.99	219.48
790.32	219.38
790.64	219.33
790.96	219.42
791.28	219.26
791.61	219.16
791.93	219.08
792.25	219.03
792.57	219.11
792.89	219.03
793.21	219.00
793.54	218.97
793.86	218.89
794.18	218.83
794.50	218.77
794.82	218.74
795.14	218.73
795.47	218.70
795.79	218.66
796.11	218.57
796.43	218.52
796.75	218.49
797.07	218.44
797.39	218.38
797.71	218.18
798.04	218.19
798.36	218.19
798.68	218.16
799.00	218.12
799.32	217.95
799.64	217.97
799.96	217.94
800.28	217.94
800.60	217.87
800.92	217.85
801.24	217.80
801.56	217.80
801.89	217.75
802.21	217.76
802.53	217.75
802.85	217.82
803.17	217.87
803.49	217.82
803.81	217.78
804.13	217.74
804.45	217.72
804.77	217.70
805.09	217.69
805.41	217.66
805.73	217.61
806.05	217.59
806.37	217.55
806.69	217.48
807.01	217.43
807.33	217.44
807.65	217.33
807.97	217.39
808.28	217.33
808.60	217.32
808.92	217.23
809.24	217.31
809.56	217.22
809.88	217.14
810.20	217.10
810.52	217.13
810.84	217.08
811.16	217.01
811.48	216.97
811.80	217.02
812.12	217.01
812.43	217.01
812.75	216.97
813.07	216.92
813.39	216.91
813.71	216.87
814.03	216.84
814.35	216.84
814.67	216.74
814.98	216.67
815.30	216.65
815.62	216.60
815.94	216.42
816.26	216.41
816.58	216.33
816.89	216.33
817.21	216.28
817.53	216.29
817.85	216.30
818.17	216.29
818.48	216.16
818.80	216.16
819.12	216.10
819.44	216.04
819.76	215.99
820.07	215.95
820.39	215.92
820.71	215.91
821.03	215.89
821.34	215.89
821.66	215.93
821.98	215.91
822.30	215.90
822.61	216.04
822.93	216.00
823.25	216.00
823.57	215.97
823.88	215.96
824.20	215.93
824.52	215.96
824.83	215.93
825.15	215.89
825.47	215.85
825.79	215.88
826.10	215.87
826.42	215.87
826.74	215.93
827.05	215.91
827.37	215.89
827.69	215.90
828.00	215.87
828.32	215.84
828.64	215.81
828.95	215.90
829.27	215.81
829.58	215.80
829.90	215.85
830.22	215.88
830.53	215.84
830.85	215.80
831.17	215.70
831.48	215.65
831.80	215.69
832.11	215.66
832.43	215.58
832.75	215.59
833.06	215.65
833.38	215.57
833.69	215.58
834.01	215.57
834.32	215.54
834.64	215.52
834.96	215.50
835.27	215.50
835.59	215.40
835.90	215.34
836.22	215.31
836.53	215.22
836.85	215.14
837.16	215.33
837.48	215.36
837.79	215.44
838.11	215.49
838.42	215.48
838.74	215.52
839.05	215.52
839.37	215.52
839.68	215.41
840.00	215.40
840.31	215.40
840.63	215.37
840.94	215.31
841.26	215.28
841.57	215.26
841.88	215.28
842.20	215.26
842.51	215.22
842.83	215.22
843.14	215.44
843.46	215.45
843.77	215.28
844.08	215.26
844.40	215.18
844.71	215.14
845.03	215.12
845.34	215.08
845.65	215.08
845.97	215.06
846.28	215.05
846.60	215.06
846.91	215.02
847.22	214.99
847.54	215.08
847.85	215.07
848.16	215.06
848.48	215.00
848.79	215.06
849.10	215.10
849.42	215.14
849.73	214.89
850.04	214.88
850.36	214.85
850.67	214.86
850.98	214.87
851.30	214.88
851.61	214.86
851.92	214.84
852.23	214.90
852.55	214.90
852.86	214.93
853.17	214.91
853.49	214.96
853.80	215.01
854.11	214.97
854.42	214.99
854.74	214.95
855.05	214.95
855.36	214.83
855.67	214.84
855.99	214.80
856.30	215.03
856.61	215.04
856.92	215.03
857.23	215.00
857.55	214.96
857.86	214.95
858.17	214.98
858.48	214.92
858.79	214.85
859.11	214.88
859.42	214.86
859.73	214.83
860.04	214.83
860.35	214.75
860.66	214.71
860.98	214.69
861.29	214.71
861.60	214.71
861.91	214.79
862.22	214.74
862.53	214.69
862.84	214.47
863.16	214.51
863.47	214.48
863.78	214.46
864.09	214.52
864.40	214.52
864.71	214.49
865.02	214.55
865.33	214.54
865.64	214.50
865.95	214.50
866.27	214.66
866.58	214.60
866.89	214.62
867.20	214.63
867.51	214.57
867.82	214.56
868.13	214.62
868.44	214.56
868.75	214.63
869.06	214.66
869.37	214.68
869.68	214.60
869.99	214.60
870.30	214.62
870.61	214.62
870.92	214.55
871.23	214.54
871.54	214.55
871.85	214.59
872.16	214.61
872.47	214.56
872.78	214.39
873.09	214.41
873.40	214.42
873.71	214.42
874.02	214.44
874.33	214.45
874.64	214.43
874.95	214.46
875.26	214.41
875.56	214.40
875.87	214.38
876.18	214.38
876.49	214.62
876.80	214.61
877.11	214.55
877.42	214.59
877.73	214.60
878.04	214.57
878.35	214.58
878.66	214.55
878.96	214.56
879.27	214.59
879.58	214.60
879.89	214.54
880.20	214.63
880.51	214.61
880.82	214.60
881.12	214.58
881.43	214.52
881.74	214.48
882.05	214.50
882.36	214.52
882.67	214.55
882.97	214.30
883.28	214.24
883.59	214.29
883.90	214.29
884.21	214.29
884.51	214.30
884.82	214.25
885.13	214.26
885.44	214.24
885.74	214.24
886.05	214.23
886.36	214.25
886.67	214.17
886.98	214.30
887.28	214.30
887.59	214.29
887.90	214.32
888.20	214.31
888.51	214.34
888.82	214.29
889.13	214.29
889.43	214.49
889.74	214.49
890.05	214.46
890.35	214.46
890.66	214.44
890.97	214.40
891.28	214.37
891.58	214.37
891.89	214.39
892.20	214.36
892.50	214.32
892.81	214.33
893.12	214.35
893.42	214.25
893.73	214.27
894.04	214.28
894.34	214.31
894.65	214.31
894.95	214.28
895.26	214.29
895.57	214.37
895.87	214.14
896.18	214.21
896.48	214.24
896.79	214.23
897.10	214.25
897.40	214.26
897.71	214.30
898.01	214.30
898.32	214.33
898.63	214.35
898.93	214.41
899.24	214.41
899.54	214.40
899.85	214.39
900.15	214.37
900.46	214.40
900.76	214.39
901.07	214.42
901.38	214.41
901.68	214.44
901.99	214.33
902.29	214.34
902.60	214.31
902.90	214.27
903.21	214.27
903.51	214.28
903.82	214.31
904.12	214.33
904.43	214.33
904.73	214.30
905.03	214.32
905.34	214.49
905.64	214.46
905.95	214.47
906.25	214.47
906.56	214.45
906.86	214.42
907.17	214.39
907.47	214.39
907.77	214.37
908.08	214.34
908.38	214.36
908.69	214.37
908.99	214.39
909.30	214.42
909.60	214.42
909.90	214.44
910.21	214.37
910.51	214.33
910.81	214.35
911.12	214.35
911.42	214.36
911.73	214.15
912.03	214.16
912.33	214.20
912.64	214.22
912.94	214.18
913.24	214.15
913.55	214.18
913.85	214.16
914.15	214.17
914.46	214.20
914.76	214.18
915.06	214.20
915.37	214.19
915.67	214.14
915.97	214.15
916.27	214.10
916.58	214.14
916.88	214.12
917.18	214.10
917.49	214.24
917.79	214.22
918.09	214.23
918.39	214.29
918.70	214.24
919.00	214.20
919.30	214.32
919.60	214.30
919.91	214.27
920.21	214.27
920.51	214.26
920.81	214.24
921.12	214.29
921.42	214.25
921.72	214.21
922.02	214.25
922.32	214.26
922.63	214.24
922.93	214.35
923.23	214.37
923.53	214.35
923.83	214.20
924.13	214.23
924.44	214.26
924.74	214.30
925.04	214.34
925.34	214.37
925.64	214.27
925.94	214.26
926.24	214.36
926.55	214.33
926.85	214.35
927.15	214.37
927.45	214.36
927.75	214.37
928.05	214.40
928.35	214.37
928.65	214.41
928.95	214.46
929.26	214.39
929.56	214.42
929.86	214.45
930.16	214.44
930.46	214.41
930.76	214.39
931.06	214.27
931.36	214.23
931.66	214.28
931.96	214.31
932.26	214.34
932.56	214.27
932.86	214.29
933.16	214.28
933.46	214.27
933.76	214.23
934.06	214.29
934.36	214.34
934.66	214.34
934.96	214.31
935.26	214.27
935.56	214.27
935.86	214.22
936.16	214.20
936.46	214.19
936.76	214.15
937.06	214.11
937.36	214.12
937.66	214.15
937.96	214.12
938.26	214.08
938.56	214.08
938.86	214.08
939.16	214.12
939.46	214.13
939.76	214.13
940.06	214.14
940.35	214.09
940.65	213.98
940.95	214.01
941.25	213.92
941.55	213.91
941.85	213.90
942.15	213.90
942.45	213.94
942.75	213.96
943.04	213.96
943.34	213.99
943.64	213.98
943.94	213.93
944.24	213.90
944.54	213.91
944.84	213.92
945.13	213.88
945.43	213.87
945.73	213.86
946.03	213.84
946.33	213.81
946.62	213.81
946.92	213.82
947.22	213.83
947.52	213.88
947.82	213.93
948.11	213.92
948.41	213.90
948.71	213.88
949.01	213.86
949.31	213.87
949.60	213.84
949.90	213.85
950.20	213.83
950.50	213.85
950.79	213.83
951.09	213.85
951.39	213.85
951.69	213.79
951.98	213.86
952.28	213.89
952.58	213.87
952.87	213.87
953.17	213.90
953.47	213.84
953.76	213.82
954.06	213.78
954.36	213.76
954.66	213.76
954.95	213.79
955.25	213.79
955.55	213.81
955.84	213.80
956.14	213.84
956.44	213.88
956.73	213.84
957.03	213.87
957.32	213.86
957.62	213.86
957.92	213.90
958.21	213.86
958.51	214.10
958.81	214.13
959.10	214.15
959.40	214.18
959.69	214.22
959.99	214.27
960.29	214.28
960.58	214.25
960.88	214.30
961.17	214.29
961.47	214.32
961.76	214.31
962.06	214.34
962.36	214.29
962.65	214.31
962.95	214.32
963.24	214.30
963.54	214.31
963.83	214.32
964.13	214.31
964.42	214.26
964.72	214.09
965.01	214.09
965.31	214.06
965.60	214.02
965.90	214.12
966.19	214.04
966.49	214.04
966.78	214.05
967.08	214.08
967.37	214.08
967.67	214.03
967.96	214.07
968.26	214.08
968.55	214.14
968.85	214.14
969.14	214.14
969.43	214.15
969.73	214.14
970.02	214.11
970.32	214.12
970.61	214.11
970.91	214.05
971.20	214.03
971.49	214.03
971.79	214.04
972.08	213.91
972.38	213.94
972.67	213.95
972.96	213.99
973.26	213.95
973.55	214.03
973.85	214.04
974.14	214.02
974.43	214.03
974.73	213.95
975.02	213.93
975.31	213.89
975.61	213.87
975.90	213.85
976.19	213.85
976.49	213.83
976.78	213.84
977.07	213.83
977.37	213.86
977.66	213.88
977.95	213.85
978.24	213.92
978.54	213.98
978.83	213.97
979.12	213.95
979.42	213.94
979.71	213.88
980.00	213.87
980.29	213.88
980.59	213.85
980.88	213.92
981.17	213.92
981.46	213.97
981.76	213.97
982.05	214.05
982.34	214.08
982.63	214.10
982.93	214.10
983.22	214.15
983.51	214.17
983.80	214.21
984.09	214.24
984.39	214.17
984.68	214.13
984.97	214.13
985.26	214.12
985.55	214.11
985.85	214.07
986.14	214.13
986.43	214.15
986.72	214.11
987.01	214.05
987.30	214.04
987.59	214.00
987.89	214.00
988.18	213.92
988.47	213.90
988.76	213.88
989.05	213.86
989.34	213.81
989.63	213.84
989.92	213.81
990.22	213.80
990.51	213.81
990.80	213.80
991.09	213.83
991.38	213.83
991.67	213.82
991.96	213.82
992.25	213.80
992.54	213.75
992.83	213.80
993.12	213.80
993.41	213.82
993.70	213.90
993.99	213.95
994.28	213.97
994.58	214.00
994.87	213.98
995.16	213.98
995.45	213.96
995.74	213.91
996.03	213.90
996.32	213.91
996.61	213.95
996.90	213.92
997.19	213.89
997.48	213.92
997.77	213.92
998.06	213.90
998.34	213.90
998.63	213.92
998.92	213.94
999.21	213.98
999.50	214.00
999.79	213.92
1000.08	213.90
1000.37	213.90
1000.66	213.85
1000.95	213.90
1001.24	213.92
1001.53	213.93
1001.82	213.92
1002.11	213.88
1002.40	213.92
1002.68	213.94
1002.97	214.10
1003.26	214.10
1003.55	214.05
1003.84	214.07
1004.13	214.16
1004.42	214.15
1004.71	214.16
1004.99	214.10
1005.28	214.15
1005.57	214.16
1005.86	214.16
1006.15	214.15
1006.44	214.12
1006.72	214.17
1007.01	214.15
1007.30	214.16
1007.59	214.15
1007.88	214.16
1008.17	214.17
1008.45	214.10
1008.74	214.04
1009.03	213.97
1009.32	213.95
1009.60	213.95
1009.89	213.94
1010.18	213.82
1010.47	213.80
1010.76	213.80
1011.04	213.81
1011.33	213.78
1011.62	213.77
1011.91	213.77
1012.19	213.78
1012.48	213.76
1012.77	213.76
1013.05	213.86
1013.34	213.83
1013.63	213.81
1013.92	213.80
1014.20	213.81
1014.49	213.81
1014.78	213.85
1015.06	213.74
1015.35	213.78
1015.64	213.79
1015.92	213.82
1016.21	213.83
1016.50	213.82
1016.78	213.83
1017.07	213.84
1017.36	213.78
1017.64	213.76
1017.93	213.75
1018.22	213.74
1018.50	213.79
1018.79	213.79
1019.08	213.66
1019.36	213.72
1019.65	213.70
1019.93	213.76
1020.22	213.77
1020.51	213.89
1020.79	213.87
1021.08	213.84
1021.36	213.98
1021.65	214.21
1021.94	213.47
1022.22	214.48
1022.51	212.98
1022.79	214.71
1023.08	213.98
1023.36	216.28
1023.65	213.47
>>>>>End Processed Spectral Data<<<<<
