SpectraSuite Data File
++++++++++++++++++++++++++++++++++++
Date: Tue Jan 29 16:10:50 EST 2013
User: group
Dark Spectrum Present: No
Reference Spectrum Present: No
Number of Sampled Component Spectra: 1
Spectrometers: USB2E7196
Integration Time (usec): 65000 (USB2E7196)
Spectra Averaged: 100 (USB2E7196)
Boxcar Smoothing: 10 (USB2E7196)
Correct for Electrical Dark: No (USB2E7196)
Strobe/Lamp Enabled: No (USB2E7196)
Correct for Detector Non-linearity: No (USB2E7196)
Correct for Stray Light: No (USB2E7196)
Number of Pixels in Processed Spectrum: 2048
>>>>>Begin Processed Spectral Data<<<<<
339.09	0.00
339.48	202.51
339.86	204.63
340.24	205.98
340.63	206.68
341.01	211.51
341.39	209.97
341.78	211.14
342.16	212.75
342.54	212.80
342.93	201.94
343.31	212.14
343.69	212.72
344.07	213.17
344.46	213.62
344.84	214.04
345.22	214.22
345.60	214.47
345.99	214.66
346.37	214.77
346.75	214.86
347.13	214.95
347.52	215.03
347.90	215.13
348.28	215.13
348.66	215.20
349.05	215.18
349.43	215.25
349.81	215.31
350.19	215.36
350.57	215.43
350.96	215.53
351.34	215.62
351.72	215.71
352.10	215.77
352.48	215.81
352.87	215.84
353.25	215.90
353.63	215.93
354.01	215.99
354.39	216.10
354.77	216.19
355.15	216.32
355.54	216.35
355.92	216.35
356.30	216.45
356.68	216.63
357.06	216.71
357.44	216.76
357.82	216.78
358.20	216.86
358.58	216.91
358.97	216.95
359.35	217.06
359.73	217.11
360.11	217.21
360.49	217.31
360.87	217.34
361.25	217.39
361.63	217.51
362.01	217.55
362.39	217.57
362.77	217.62
363.15	217.58
363.53	217.61
363.91	217.63
364.29	217.65
364.67	217.48
365.05	217.49
365.43	217.55
365.81	217.62
366.19	217.71
366.57	217.80
366.95	217.79
367.33	217.74
367.71	217.76
368.09	217.81
368.47	217.75
368.85	217.76
369.23	217.81
369.61	217.75
369.99	217.82
370.37	217.83
370.75	217.93
371.13	217.89
371.51	217.88
371.89	217.93
372.27	217.92
372.65	217.92
373.03	217.90
373.41	217.82
373.78	217.75
374.16	217.62
374.54	217.52
374.92	217.47
375.30	217.43
375.68	217.34
376.06	217.29
376.44	217.26
376.82	217.25
377.19	217.17
377.57	217.12
377.95	216.98
378.33	216.90
378.71	216.70
379.09	216.71
379.47	216.66
379.84	216.56
380.22	216.49
380.60	216.43
380.98	216.34
381.36	216.32
381.73	216.27
382.11	216.27
382.49	216.25
382.87	216.22
383.25	216.18
383.62	216.40
384.00	216.33
384.38	216.31
384.76	216.31
385.13	216.36
385.51	216.32
385.89	216.27
386.27	216.27
386.64	216.29
387.02	216.26
387.40	216.20
387.78	216.22
388.15	216.18
388.53	216.15
388.91	216.14
389.29	216.12
389.66	216.11
390.04	216.06
390.42	216.07
390.79	216.04
391.17	216.04
391.55	215.77
391.92	215.74
392.30	215.77
392.68	215.72
393.05	215.68
393.43	215.68
393.81	215.70
394.18	215.65
394.56	215.63
394.94	215.63
395.31	215.63
395.69	215.69
396.06	215.74
396.44	215.77
396.82	215.76
397.19	215.85
397.57	215.86
397.95	215.90
398.32	215.87
398.70	215.94
399.07	215.97
399.45	216.03
399.82	216.09
400.20	216.08
400.58	216.14
400.95	216.14
401.33	216.28
401.70	216.52
402.08	216.65
402.45	216.74
402.83	216.89
403.20	217.02
403.58	217.08
403.95	217.22
404.33	217.39
404.71	217.54
405.08	217.80
405.46	217.99
405.83	218.15
406.21	218.36
406.58	218.58
406.96	218.81
407.33	219.07
407.70	219.35
408.08	219.81
408.45	220.14
408.83	220.52
409.20	220.83
409.58	221.05
409.95	221.44
410.33	221.92
410.70	222.31
411.08	222.86
411.45	223.42
411.82	224.00
412.20	224.68
412.57	225.52
412.95	226.04
413.32	226.85
413.69	227.73
414.07	228.58
414.44	229.50
414.82	230.51
415.19	231.65
415.56	232.81
415.94	233.96
416.31	235.32
416.68	236.68
417.06	238.23
417.43	239.73
417.81	241.41
418.18	243.15
418.55	245.05
418.93	246.98
419.30	248.99
419.67	251.10
420.04	253.28
420.42	255.59
420.79	258.31
421.16	260.97
421.54	263.75
421.91	266.65
422.28	269.65
422.66	272.84
423.03	276.00
423.40	279.23
423.77	282.70
424.15	286.19
424.52	289.89
424.89	293.93
425.26	297.90
425.64	301.65
426.01	305.77
426.38	310.08
426.75	314.48
427.13	319.05
427.50	323.85
427.87	328.88
428.24	333.86
428.61	338.67
428.99	344.01
429.36	349.81
429.73	355.54
430.10	361.25
430.47	367.10
430.85	373.21
431.22	379.67
431.59	386.54
431.96	393.11
432.33	400.33
432.70	407.35
433.08	415.60
433.45	423.37
433.82	431.18
434.19	439.76
434.56	448.15
434.93	456.24
435.30	464.29
435.68	473.05
436.05	481.78
436.42	490.44
436.79	498.37
437.16	506.82
437.53	515.77
437.90	524.52
438.27	533.19
438.64	542.10
439.01	550.31
439.38	557.66
439.75	564.77
440.13	572.92
440.50	580.50
440.87	586.72
441.24	593.09
441.61	600.12
441.98	605.34
442.35	611.45
442.72	617.50
443.09	623.30
443.46	626.89
443.83	629.25
444.20	631.33
444.57	634.31
444.94	635.63
445.31	637.01
445.68	638.32
446.05	638.88
446.42	638.02
446.79	637.18
447.16	636.08
447.53	635.32
447.90	632.08
448.27	628.96
448.64	624.43
449.01	621.33
449.37	615.60
449.74	610.04
450.11	603.39
450.48	596.27
450.85	589.06
451.22	582.82
451.59	576.93
451.96	571.32
452.33	563.75
452.70	556.98
453.07	548.79
453.43	540.59
453.80	532.57
454.17	524.93
454.54	517.59
454.91	509.67
455.28	502.00
455.65	494.89
456.02	487.73
456.38	481.60
456.75	474.01
457.12	467.76
457.49	461.57
457.86	455.62
458.23	450.46
458.59	444.77
458.96	439.04
459.33	433.93
459.70	428.74
460.07	424.64
460.43	419.90
460.80	415.49
461.17	411.63
461.54	407.62
461.91	403.71
462.27	399.73
462.64	396.47
463.01	392.81
463.38	389.22
463.74	385.61
464.11	382.53
464.48	379.73
464.85	376.70
465.21	374.33
465.58	371.77
465.95	368.71
466.32	366.20
466.68	363.66
467.05	361.14
467.42	358.70
467.78	356.15
468.15	353.75
468.52	351.94
468.88	349.54
469.25	347.37
469.62	345.68
469.98	343.85
470.35	342.13
470.72	340.55
471.08	338.84
471.45	337.41
471.82	335.95
472.18	334.40
472.55	333.26
472.92	331.93
473.28	330.76
473.65	329.72
474.02	328.69
474.38	327.90
474.75	327.23
475.11	326.48
475.48	325.93
475.85	325.46
476.21	325.02
476.58	324.69
476.94	324.52
477.31	324.24
477.67	324.02
478.04	323.89
478.41	323.87
478.77	324.06
479.14	324.01
479.50	324.17
479.87	324.44
480.23	324.77
480.60	325.04
480.96	325.36
481.33	325.92
481.69	326.45
482.06	327.01
482.42	327.47
482.79	328.05
483.15	328.83
483.52	329.85
483.88	330.73
484.25	331.68
484.61	332.68
484.98	333.75
485.34	335.07
485.71	336.46
486.07	337.90
486.44	339.23
486.80	340.83
487.17	342.48
487.53	344.31
487.90	346.17
488.26	348.19
488.62	350.35
488.99	352.39
489.35	354.58
489.72	356.91
490.08	359.40
490.44	361.99
490.81	364.68
491.17	367.40
491.54	370.37
491.90	373.40
492.26	376.63
492.63	380.06
492.99	383.49
493.36	387.09
493.72	390.94
494.08	394.92
494.45	399.15
494.81	403.50
495.17	407.94
495.54	412.65
495.90	417.48
496.26	422.40
496.63	427.59
496.99	433.00
497.35	438.56
497.72	444.37
498.08	450.28
498.44	456.34
498.80	462.67
499.17	469.11
499.53	475.72
499.89	482.63
500.26	489.55
500.62	496.66
500.98	504.05
501.34	511.49
501.71	519.20
502.07	526.96
502.43	534.95
502.79	543.04
503.16	551.35
503.52	559.89
503.88	568.52
504.24	577.42
504.60	586.36
504.97	595.56
505.33	604.81
505.69	614.68
506.05	624.49
506.41	634.26
506.78	644.30
507.14	654.53
507.50	664.87
507.86	675.54
508.22	686.21
508.59	696.82
508.95	707.86
509.31	719.14
509.67	730.47
510.03	741.85
510.39	753.68
510.75	765.43
511.12	777.23
511.48	789.29
511.84	801.48
512.20	813.78
512.56	826.36
512.92	839.07
513.28	851.52
513.64	864.17
514.00	876.90
514.37	889.69
514.73	902.65
515.09	915.54
515.45	928.20
515.81	941.00
516.17	954.25
516.53	967.27
516.89	980.15
517.25	993.16
517.61	1006.49
517.97	1019.56
518.33	1032.54
518.69	1045.97
519.05	1059.49
519.41	1072.92
519.77	1086.51
520.13	1099.62
520.49	1112.56
520.85	1125.70
521.21	1138.83
521.57	1152.35
521.93	1165.26
522.29	1178.84
522.65	1192.18
523.01	1205.49
523.37	1218.53
523.73	1231.49
524.09	1244.43
524.45	1257.58
524.81	1270.89
525.17	1283.96
525.53	1296.82
525.89	1309.86
526.25	1322.65
526.61	1335.11
526.97	1347.96
527.33	1360.67
527.68	1373.69
528.04	1386.86
528.40	1399.66
528.76	1412.67
529.12	1425.17
529.48	1438.13
529.84	1450.07
530.20	1462.56
530.56	1475.03
530.91	1488.07
531.27	1500.66
531.63	1513.03
531.99	1525.55
532.35	1537.52
532.71	1549.57
533.07	1562.09
533.42	1574.03
533.78	1585.90
534.14	1597.68
534.50	1608.67
534.86	1619.90
535.21	1630.48
535.57	1641.72
535.93	1652.72
536.29	1663.50
536.65	1674.66
537.00	1685.30
537.36	1696.28
537.72	1706.97
538.08	1717.88
538.44	1728.41
538.79	1739.12
539.15	1749.65
539.51	1759.97
539.87	1770.89
540.22	1781.41
540.58	1791.99
540.94	1802.57
541.29	1812.59
541.65	1822.21
542.01	1832.44
542.37	1842.20
542.72	1852.27
543.08	1861.75
543.44	1872.00
543.79	1881.06
544.15	1890.20
544.51	1900.02
544.87	1909.72
545.22	1918.51
545.58	1927.24
545.94	1935.90
546.29	1944.26
546.65	1952.43
547.01	1960.42
547.36	1967.85
547.72	1975.32
548.07	1982.76
548.43	1990.22
548.79	1997.71
549.14	2005.54
549.50	2013.56
549.86	2021.08
550.21	2028.07
550.57	2035.38
550.92	2041.74
551.28	2049.09
551.64	2056.27
551.99	2063.44
552.35	2070.37
552.70	2077.07
553.06	2083.48
553.41	2089.54
553.77	2095.73
554.13	2102.00
554.48	2108.86
554.84	2115.67
555.19	2122.01
555.55	2128.31
555.90	2134.51
556.26	2141.11
556.61	2146.94
556.97	2151.78
557.32	2157.61
557.68	2163.90
558.03	2169.59
558.39	2174.95
558.74	2180.78
559.10	2186.24
559.45	2191.69
559.81	2197.14
560.16	2202.74
560.52	2208.60
560.87	2214.90
561.23	2221.04
561.58	2227.65
561.94	2232.82
562.29	2237.71
562.64	2244.08
563.00	2249.68
563.35	2255.16
563.71	2261.06
564.06	2266.65
564.42	2272.63
564.77	2277.74
565.12	2282.99
565.48	2288.31
565.83	2293.78
566.19	2299.20
566.54	2304.53
566.89	2309.12
567.25	2313.69
567.60	2319.38
567.96	2324.66
568.31	2329.30
568.66	2333.45
569.02	2337.27
569.37	2341.10
569.72	2345.45
570.08	2348.80
570.43	2352.03
570.78	2355.26
571.14	2357.88
571.49	2361.06
571.84	2364.54
572.20	2367.36
572.55	2370.34
572.90	2372.59
573.26	2375.60
573.61	2378.16
573.96	2380.35
574.31	2382.52
574.67	2384.56
575.02	2385.39
575.37	2386.78
575.72	2387.70
576.08	2389.33
576.43	2389.74
576.78	2390.47
577.13	2392.31
577.49	2393.58
577.84	2394.90
578.19	2396.52
578.54	2397.37
578.90	2398.50
579.25	2398.44
579.60	2398.78
579.95	2398.41
580.30	2398.81
580.66	2398.30
581.01	2396.85
581.36	2394.85
581.71	2393.66
582.06	2392.75
582.42	2392.29
582.77	2390.43
583.12	2389.18
583.47	2387.99
583.82	2387.58
584.17	2386.57
584.53	2384.54
584.88	2382.68
585.23	2380.85
585.58	2378.76
585.93	2376.66
586.28	2374.61
586.63	2372.59
586.98	2370.43
587.34	2368.65
587.69	2366.38
588.04	2364.46
588.39	2363.14
588.74	2360.83
589.09	2358.43
589.44	2355.41
589.79	2353.02
590.14	2351.31
590.49	2348.49
590.84	2344.95
591.19	2342.12
591.54	2338.81
591.89	2334.88
592.25	2331.58
592.60	2327.58
592.95	2323.56
593.30	2319.56
593.65	2315.27
594.00	2311.15
594.35	2308.27
594.70	2303.73
595.05	2299.29
595.40	2294.12
595.75	2288.63
596.10	2285.01
596.45	2280.32
596.80	2275.98
597.15	2270.81
597.50	2264.95
597.85	2260.17
598.19	2255.03
598.54	2249.32
598.89	2244.43
599.24	2240.08
599.59	2234.23
599.94	2228.57
600.29	2222.73
600.64	2217.05
600.99	2210.62
601.34	2205.14
601.69	2198.23
602.04	2192.01
602.39	2185.58
602.74	2179.59
603.08	2174.18
603.43	2167.86
603.78	2161.03
604.13	2153.98
604.48	2146.94
604.83	2140.89
605.18	2134.57
605.53	2127.68
605.87	2120.73
606.22	2114.07
606.57	2106.33
606.92	2098.57
607.27	2091.78
607.62	2085.25
607.96	2078.26
608.31	2071.75
608.66	2063.99
609.01	2056.63
609.36	2049.52
609.70	2041.91
610.05	2034.23
610.40	2026.00
610.75	2017.79
611.10	2010.31
611.44	2001.71
611.79	1992.99
612.14	1983.01
612.49	1972.66
612.83	1963.53
613.18	1954.37
613.53	1945.02
613.88	1935.45
614.22	1926.87
614.57	1916.78
614.92	1906.24
615.27	1896.14
615.61	1886.22
615.96	1876.62
616.31	1866.98
616.65	1857.81
617.00	1847.90
617.35	1838.21
617.70	1828.53
618.04	1818.45
618.39	1808.16
618.74	1798.46
619.08	1788.96
619.43	1780.40
619.78	1772.14
620.12	1763.41
620.47	1753.74
620.82	1743.55
621.16	1733.81
621.51	1723.97
621.85	1714.31
622.20	1703.90
622.55	1693.33
622.89	1683.42
623.24	1673.73
623.59	1663.98
623.93	1653.83
624.28	1644.28
624.62	1634.22
624.97	1623.91
625.32	1614.33
625.66	1605.36
626.01	1596.53
626.35	1587.09
626.70	1576.93
627.04	1566.74
627.39	1556.70
627.73	1547.47
628.08	1538.34
628.43	1528.74
628.77	1519.40
629.12	1510.53
629.46	1502.79
629.81	1494.37
630.15	1484.78
630.50	1474.98
630.84	1464.51
631.19	1454.58
631.53	1445.06
631.88	1434.84
632.22	1424.85
632.57	1415.40
632.91	1405.44
633.26	1395.55
633.60	1386.00
633.95	1376.76
634.29	1367.42
634.64	1358.09
634.98	1348.22
635.32	1338.99
635.67	1330.48
636.01	1321.28
636.36	1311.50
636.70	1301.84
637.05	1292.63
637.39	1283.69
637.73	1275.00
638.08	1267.49
638.42	1259.18
638.77	1250.44
639.11	1242.29
639.45	1234.42
639.80	1225.79
640.14	1217.07
640.49	1208.29
640.83	1199.48
641.17	1191.37
641.52	1183.12
641.86	1174.55
642.20	1166.60
642.55	1158.03
642.89	1149.17
643.23	1140.52
643.58	1132.44
643.92	1123.51
644.26	1114.89
644.61	1106.49
644.95	1097.88
645.29	1088.65
645.64	1079.60
645.98	1071.25
646.32	1063.27
646.66	1054.86
647.01	1046.50
647.35	1038.37
647.69	1030.02
648.04	1021.77
648.38	1012.93
648.72	1004.19
649.06	995.83
649.41	987.68
649.75	979.72
650.09	971.87
650.43	963.85
650.78	955.63
651.12	947.92
651.46	940.46
651.80	933.21
652.14	925.91
652.49	918.47
652.83	911.16
653.17	903.49
653.51	895.99
653.85	888.80
654.20	881.64
654.54	874.12
654.88	866.95
655.22	859.81
655.56	852.84
655.90	846.15
656.25	839.49
656.59	832.62
656.93	825.69
657.27	818.67
657.61	811.89
657.95	805.88
658.29	800.11
658.64	794.02
658.98	787.63
659.32	781.07
659.66	774.92
660.00	768.55
660.34	762.62
660.68	756.63
661.02	750.33
661.36	744.50
661.70	738.85
662.05	733.22
662.39	727.80
662.73	722.59
663.07	717.27
663.41	711.68
663.75	706.12
664.09	700.51
664.43	695.21
664.77	689.87
665.11	684.16
665.45	678.27
665.79	672.54
666.13	666.91
666.47	661.53
666.81	656.22
667.15	651.01
667.49	645.85
667.83	640.56
668.17	635.46
668.51	630.41
668.85	625.55
669.19	620.75
669.53	615.79
669.87	610.69
670.21	605.97
670.55	601.32
670.89	596.96
671.23	592.71
671.57	588.32
671.91	584.08
672.25	579.99
672.58	575.90
672.92	571.85
673.26	567.99
673.60	564.22
673.94	560.32
674.28	556.75
674.62	553.01
674.96	549.34
675.30	545.90
675.64	542.26
675.97	538.79
676.31	535.28
676.65	531.75
676.99	528.32
677.33	524.55
677.67	520.93
678.01	517.09
678.34	513.49
678.68	510.06
679.02	506.49
679.36	502.79
679.70	499.23
680.04	495.82
680.37	492.47
680.71	489.17
681.05	486.12
681.39	482.96
681.73	479.85
682.06	476.89
682.40	473.80
682.74	470.68
683.08	467.50
683.42	464.38
683.75	461.45
684.09	458.50
684.43	455.74
684.77	452.91
685.10	450.17
685.44	447.36
685.78	444.50
686.12	441.79
686.45	439.16
686.79	436.58
687.13	434.08
687.46	431.48
687.80	428.82
688.14	426.04
688.48	423.45
688.81	420.85
689.15	418.36
689.49	415.77
689.82	413.31
690.16	410.75
690.50	408.31
690.83	405.82
691.17	403.35
691.51	400.96
691.84	398.78
692.18	396.59
692.52	394.41
692.85	392.33
693.19	390.21
693.52	388.10
693.86	385.94
694.20	383.78
694.53	381.70
694.87	379.59
695.21	377.46
695.54	375.37
695.88	373.24
696.21	371.04
696.55	368.98
696.88	367.00
697.22	365.08
697.56	363.29
697.89	361.49
698.23	359.82
698.56	358.04
698.90	356.33
699.23	354.44
699.57	352.61
699.90	350.75
700.24	349.06
700.58	347.36
700.91	345.74
701.25	344.23
701.58	342.67
701.92	341.16
702.25	339.62
702.59	338.06
702.92	336.63
703.26	335.11
703.59	333.67
703.93	332.39
704.26	330.99
704.60	329.50
704.93	328.08
705.26	326.56
705.60	325.16
705.93	323.70
706.27	322.45
706.60	321.23
706.94	320.04
707.27	318.61
707.61	317.26
707.94	315.96
708.27	314.47
708.61	313.06
708.94	311.69
709.28	310.45
709.61	309.21
709.94	308.01
710.28	306.88
710.61	305.75
710.95	304.39
711.28	303.35
711.61	302.19
711.95	301.04
712.28	299.91
712.61	298.76
712.95	297.70
713.28	296.67
713.61	295.57
713.95	294.45
714.28	293.51
714.61	292.47
714.95	291.49
715.28	290.47
715.61	289.45
715.95	288.54
716.28	287.58
716.61	286.63
716.95	285.63
717.28	284.68
717.61	283.71
717.94	282.82
718.28	281.78
718.61	280.92
718.94	280.03
719.27	279.17
719.61	278.36
719.94	277.51
720.27	276.56
720.60	275.68
720.94	274.91
721.27	274.14
721.60	273.51
721.93	272.79
722.27	272.23
722.60	271.60
722.93	270.88
723.26	270.26
723.59	269.60
723.93	268.99
724.26	268.38
724.59	267.76
724.92	267.20
725.25	266.72
725.59	266.17
725.92	265.68
726.25	265.19
726.58	264.63
726.91	264.04
727.24	263.53
727.57	263.04
727.91	262.44
728.24	261.94
728.57	261.36
728.90	260.84
729.23	260.20
729.56	259.76
729.89	259.25
730.22	258.68
730.55	258.14
730.89	257.62
731.22	257.11
731.55	256.59
731.88	256.08
732.21	255.52
732.54	254.98
732.87	254.46
733.20	253.93
733.53	253.49
733.86	253.06
734.19	252.57
734.52	252.17
734.85	251.87
735.18	251.41
735.51	251.02
735.84	250.58
736.17	250.22
736.50	249.73
736.83	249.57
737.16	249.21
737.49	248.86
737.82	248.45
738.15	248.11
738.48	247.77
738.81	247.41
739.14	247.01
739.47	246.66
739.80	246.29
740.13	245.99
740.46	245.59
740.79	245.20
741.12	244.87
741.45	244.50
741.78	244.05
742.11	243.79
742.44	243.43
742.77	243.14
743.10	242.82
743.43	242.45
743.75	241.88
744.08	241.79
744.41	241.46
744.74	241.13
745.07	240.77
745.40	240.48
745.73	240.20
746.06	239.94
746.39	239.68
746.71	239.36
747.04	239.00
747.37	238.69
747.70	238.44
748.03	238.12
748.36	237.85
748.68	237.56
749.01	237.19
749.34	236.92
749.67	236.62
750.00	236.34
750.33	236.23
750.65	235.96
750.98	235.46
751.31	235.22
751.64	234.97
751.97	234.82
752.29	234.56
752.62	234.28
752.95	234.00
753.28	233.71
753.60	233.48
753.93	233.32
754.26	233.11
754.59	232.85
754.91	232.60
755.24	232.37
755.57	232.15
755.90	231.95
756.22	231.72
756.55	231.48
756.88	231.24
757.20	230.92
757.53	230.69
757.86	230.47
758.19	230.27
758.51	230.09
758.84	229.82
759.17	229.62
759.49	229.41
759.82	229.34
760.15	229.20
760.47	228.98
760.80	228.73
761.13	228.59
761.45	228.39
761.78	228.24
762.11	228.06
762.43	227.92
762.76	227.70
763.08	227.56
763.41	227.43
763.74	227.30
764.06	227.15
764.39	227.04
764.71	226.92
765.04	226.74
765.37	226.60
765.69	226.43
766.02	226.31
766.34	226.18
766.67	225.96
767.00	225.85
767.32	225.89
767.65	225.90
767.97	225.75
768.30	225.65
768.62	225.53
768.95	225.41
769.27	225.26
769.60	225.18
769.92	225.02
770.25	224.88
770.57	224.71
770.90	224.59
771.22	224.42
771.55	224.31
771.87	224.24
772.20	224.09
772.52	224.17
772.85	224.29
773.17	224.19
773.50	224.06
773.82	223.92
774.15	223.70
774.47	223.49
774.80	223.37
775.12	223.25
775.45	223.14
775.77	223.06
776.09	222.99
776.42	222.92
776.74	222.90
777.07	222.82
777.39	222.76
777.72	222.65
778.04	222.62
778.36	222.52
778.69	222.43
779.01	222.40
779.33	222.13
779.66	221.83
779.98	221.72
780.31	221.67
780.63	221.68
780.95	221.66
781.28	221.57
781.60	221.51
781.92	221.46
782.25	221.42
782.57	221.34
782.89	221.23
783.22	221.15
783.54	221.02
783.86	220.95
784.19	220.87
784.51	220.84
784.83	220.74
785.16	220.66
785.48	220.59
785.80	220.53
786.12	220.50
786.45	220.46
786.77	220.45
787.09	220.37
787.42	220.25
787.74	220.17
788.06	220.13
788.38	220.09
788.71	220.02
789.03	219.97
789.35	219.95
789.67	219.90
789.99	219.86
790.32	219.81
790.64	219.79
790.96	219.91
791.28	219.83
791.61	219.76
791.93	219.74
792.25	219.70
792.57	219.81
792.89	219.70
793.21	219.65
793.54	219.56
793.86	219.53
794.18	219.50
794.50	219.44
794.82	219.40
795.14	219.35
795.47	219.35
795.79	219.29
796.11	219.21
796.43	219.17
796.75	219.11
797.07	219.08
797.39	219.05
797.71	218.87
798.04	218.84
798.36	218.84
798.68	218.79
799.00	218.79
799.32	218.65
799.64	218.68
799.96	218.65
800.28	218.66
800.60	218.60
800.92	218.56
801.24	218.51
801.56	218.49
801.89	218.47
802.21	218.45
802.53	218.39
802.85	218.42
803.17	218.48
803.49	218.44
803.81	218.42
804.13	218.35
804.45	218.31
804.77	218.31
805.09	218.30
805.41	218.26
805.73	218.20
806.05	218.09
806.37	218.03
806.69	218.00
807.01	217.95
807.33	217.98
807.65	217.87
807.97	217.93
808.28	217.85
808.60	217.83
808.92	217.78
809.24	217.89
809.56	217.80
809.88	217.71
810.20	217.70
810.52	217.70
810.84	217.64
811.16	217.59
811.48	217.56
811.80	217.58
812.12	217.54
812.43	217.53
812.75	217.52
813.07	217.49
813.39	217.46
813.71	217.41
814.03	217.33
814.35	217.32
814.67	217.24
814.98	217.21
815.30	217.17
815.62	217.10
815.94	216.93
816.26	216.92
816.58	216.87
816.89	216.87
817.21	216.77
817.53	216.78
817.85	216.77
818.17	216.74
818.48	216.66
818.80	216.71
819.12	216.66
819.44	216.62
819.76	216.60
820.07	216.55
820.39	216.54
820.71	216.54
821.03	216.54
821.34	216.49
821.66	216.53
821.98	216.54
822.30	216.53
822.61	216.62
822.93	216.60
823.25	216.57
823.57	216.55
823.88	216.60
824.20	216.60
824.52	216.63
824.83	216.60
825.15	216.58
825.47	216.53
825.79	216.53
826.10	216.49
826.42	216.46
826.74	216.49
827.05	216.47
827.37	216.48
827.69	216.46
828.00	216.44
828.32	216.43
828.64	216.38
828.95	216.48
829.27	216.43
829.58	216.40
829.90	216.43
830.22	216.42
830.53	216.35
830.85	216.30
831.17	216.25
831.48	216.23
831.80	216.22
832.11	216.20
832.43	216.21
832.75	216.22
833.06	216.34
833.38	216.29
833.69	216.28
834.01	216.26
834.32	216.24
834.64	216.26
834.96	216.24
835.27	216.23
835.59	216.14
835.90	216.07
836.22	216.07
836.53	216.02
836.85	215.99
837.16	216.20
837.48	216.21
837.79	216.23
838.11	216.27
838.42	216.28
838.74	216.27
839.05	216.24
839.37	216.20
839.68	216.07
840.00	216.04
840.31	216.03
840.63	216.02
840.94	215.99
841.26	215.98
841.57	215.98
841.88	216.00
842.20	215.95
842.51	215.93
842.83	215.93
843.14	216.12
843.46	216.11
843.77	215.97
844.08	215.95
844.40	215.88
844.71	215.81
845.03	215.77
845.34	215.79
845.65	215.78
845.97	215.79
846.28	215.80
846.60	215.84
846.91	215.80
847.22	215.81
847.54	215.85
847.85	215.85
848.16	215.77
848.48	215.74
848.79	215.85
849.10	215.89
849.42	215.89
849.73	215.70
850.04	215.70
850.36	215.62
850.67	215.68
850.98	215.74
851.30	215.80
851.61	215.80
851.92	215.77
852.23	215.82
852.55	215.85
852.86	215.84
853.17	215.82
853.49	215.87
853.80	215.90
854.11	215.92
854.42	215.94
854.74	215.96
855.05	215.97
855.36	215.87
855.67	215.87
855.99	215.87
856.30	216.13
856.61	216.09
856.92	216.10
857.23	216.05
857.55	215.96
857.86	215.92
858.17	215.93
858.48	215.87
858.79	215.83
859.11	215.82
859.42	215.80
859.73	215.78
860.04	215.76
860.35	215.65
860.66	215.57
860.98	215.55
861.29	215.59
861.60	215.53
861.91	215.56
862.22	215.53
862.53	215.49
862.84	215.24
863.16	215.34
863.47	215.30
863.78	215.28
864.09	215.31
864.40	215.30
864.71	215.31
865.02	215.34
865.33	215.30
865.64	215.25
865.95	215.25
866.27	215.38
866.58	215.36
866.89	215.45
867.20	215.45
867.51	215.38
867.82	215.37
868.13	215.46
868.44	215.42
868.75	215.45
869.06	215.45
869.37	215.47
869.68	215.36
869.99	215.42
870.30	215.43
870.61	215.45
870.92	215.42
871.23	215.38
871.54	215.41
871.85	215.46
872.16	215.51
872.47	215.48
872.78	215.35
873.09	215.37
873.40	215.27
873.71	215.27
874.02	215.30
874.33	215.25
874.64	215.20
874.95	215.24
875.26	215.21
875.56	215.20
875.87	215.19
876.18	215.16
876.49	215.35
876.80	215.35
877.11	215.29
877.42	215.34
877.73	215.36
878.04	215.33
878.35	215.34
878.66	215.33
878.96	215.34
879.27	215.32
879.58	215.32
879.89	215.35
880.20	215.41
880.51	215.42
880.82	215.43
881.12	215.43
881.43	215.38
881.74	215.36
882.05	215.36
882.36	215.39
882.67	215.41
882.97	215.19
883.28	215.17
883.59	215.17
883.90	215.14
884.21	215.16
884.51	215.14
884.82	215.09
885.13	215.12
885.44	215.13
885.74	215.18
886.05	215.16
886.36	215.16
886.67	215.09
886.98	215.19
887.28	215.20
887.59	215.21
887.90	215.22
888.20	215.20
888.51	215.26
888.82	215.19
889.13	215.22
889.43	215.38
889.74	215.37
890.05	215.39
890.35	215.39
890.66	215.37
890.97	215.34
891.28	215.33
891.58	215.31
891.89	215.29
892.20	215.23
892.50	215.21
892.81	215.20
893.12	215.20
893.42	215.08
893.73	215.09
894.04	215.08
894.34	215.09
894.65	215.07
894.95	215.01
895.26	215.04
895.57	215.13
895.87	214.92
896.18	214.95
896.48	214.93
896.79	214.92
897.10	214.94
897.40	214.96
897.71	214.98
898.01	214.96
898.32	214.99
898.63	214.99
898.93	215.01
899.24	215.01
899.54	215.01
899.85	215.02
900.15	215.03
900.46	215.01
900.76	215.01
901.07	215.01
901.38	215.03
901.68	215.05
901.99	214.94
902.29	214.97
902.60	214.94
902.90	214.93
903.21	214.94
903.51	214.95
903.82	215.00
904.12	214.97
904.43	215.00
904.73	214.96
905.03	214.97
905.34	215.16
905.64	215.15
905.95	215.13
906.25	215.12
906.56	215.08
906.86	215.09
907.17	215.11
907.47	215.16
907.77	215.16
908.08	215.12
908.38	215.12
908.69	215.12
908.99	215.15
909.30	215.18
909.60	215.17
909.90	215.18
910.21	215.13
910.51	215.11
910.81	215.10
911.12	215.12
911.42	215.15
911.73	214.92
912.03	214.93
912.33	214.98
912.64	215.01
912.94	215.00
913.24	214.99
913.55	214.96
913.85	214.96
914.15	214.98
914.46	215.01
914.76	215.02
915.06	215.01
915.37	214.99
915.67	214.99
915.97	215.01
916.27	214.96
916.58	214.98
916.88	214.99
917.18	215.00
917.49	215.13
917.79	215.12
918.09	215.17
918.39	215.22
918.70	215.20
919.00	215.21
919.30	215.32
919.60	215.29
919.91	215.24
920.21	215.23
920.51	215.18
920.81	215.12
921.12	215.15
921.42	215.14
921.72	215.17
922.02	215.13
922.32	215.12
922.63	215.14
922.93	215.22
923.23	215.25
923.53	215.20
923.83	215.08
924.13	215.10
924.44	215.08
924.74	215.11
925.04	215.15
925.34	215.14
925.64	215.04
925.94	215.06
926.24	215.20
926.55	215.19
926.85	215.23
927.15	215.26
927.45	215.22
927.75	215.21
928.05	215.19
928.35	215.20
928.65	215.22
928.95	215.19
929.26	215.09
929.56	215.09
929.86	215.14
930.16	215.10
930.46	215.06
930.76	215.05
931.06	214.96
931.36	214.91
931.66	214.91
931.96	214.93
932.26	214.93
932.56	214.83
932.86	214.83
933.16	214.83
933.46	214.80
933.76	214.79
934.06	214.84
934.36	214.88
934.66	214.88
934.96	214.87
935.26	214.91
935.56	214.96
935.86	214.94
936.16	214.92
936.46	214.90
936.76	214.92
937.06	214.89
937.36	214.90
937.66	214.91
937.96	214.91
938.26	214.84
938.56	214.82
938.86	214.87
939.16	214.93
939.46	214.93
939.76	214.97
940.06	214.94
940.35	214.92
940.65	214.82
940.95	214.82
941.25	214.75
941.55	214.73
941.85	214.70
942.15	214.75
942.45	214.77
942.75	214.77
943.04	214.77
943.34	214.81
943.64	214.78
943.94	214.80
944.24	214.83
944.54	214.86
944.84	214.83
945.13	214.74
945.43	214.68
945.73	214.67
946.03	214.63
946.33	214.65
946.62	214.64
946.92	214.66
947.22	214.69
947.52	214.74
947.82	214.78
948.11	214.78
948.41	214.73
948.71	214.69
949.01	214.70
949.31	214.68
949.60	214.70
949.90	214.76
950.20	214.73
950.50	214.70
950.79	214.71
951.09	214.77
951.39	214.79
951.69	214.76
951.98	214.77
952.28	214.80
952.58	214.81
952.87	214.81
953.17	214.84
953.47	214.80
953.76	214.79
954.06	214.76
954.36	214.72
954.66	214.71
954.95	214.73
955.25	214.74
955.55	214.73
955.84	214.67
956.14	214.67
956.44	214.65
956.73	214.62
957.03	214.62
957.32	214.62
957.62	214.57
957.92	214.65
958.21	214.63
958.51	214.86
958.81	214.88
959.10	214.89
959.40	214.96
959.69	215.00
959.99	215.02
960.29	215.04
960.58	215.02
960.88	215.10
961.17	215.13
961.47	215.15
961.76	215.15
962.06	215.19
962.36	215.16
962.65	215.19
962.95	215.21
963.24	215.20
963.54	215.21
963.83	215.24
964.13	215.21
964.42	215.15
964.72	214.98
965.01	214.98
965.31	214.97
965.60	214.88
965.90	214.99
966.19	214.94
966.49	214.93
966.78	214.95
967.08	214.93
967.37	214.89
967.67	214.84
967.96	214.88
968.26	214.90
968.55	214.94
968.85	214.91
969.14	214.92
969.43	214.92
969.73	214.90
970.02	214.89
970.32	214.89
970.61	214.91
970.91	214.84
971.20	214.80
971.49	214.80
971.79	214.82
972.08	214.68
972.38	214.68
972.67	214.68
972.96	214.69
973.26	214.67
973.55	214.73
973.85	214.75
974.14	214.73
974.43	214.74
974.73	214.69
975.02	214.68
975.31	214.66
975.61	214.64
975.90	214.61
976.19	214.61
976.49	214.62
976.78	214.66
977.07	214.66
977.37	214.66
977.66	214.64
977.95	214.64
978.24	214.67
978.54	214.73
978.83	214.72
979.12	214.71
979.42	214.68
979.71	214.65
980.00	214.63
980.29	214.66
980.59	214.63
980.88	214.68
981.17	214.67
981.46	214.68
981.76	214.69
982.05	214.75
982.34	214.77
982.63	214.75
982.93	214.73
983.22	214.79
983.51	214.82
983.80	214.89
984.09	214.87
984.39	214.86
984.68	214.86
984.97	214.89
985.26	214.90
985.55	214.92
985.85	214.87
986.14	214.93
986.43	214.93
986.72	214.91
987.01	214.85
987.30	214.86
987.59	214.85
987.89	214.89
988.18	214.81
988.47	214.79
988.76	214.78
989.05	214.77
989.34	214.75
989.63	214.81
989.92	214.75
990.22	214.74
990.51	214.70
990.80	214.63
991.09	214.63
991.38	214.63
991.67	214.62
991.96	214.58
992.25	214.59
992.54	214.55
992.83	214.57
993.12	214.57
993.41	214.60
993.70	214.65
993.99	214.65
994.28	214.71
994.58	214.75
994.87	214.72
995.16	214.72
995.45	214.70
995.74	214.65
996.03	214.71
996.32	214.74
996.61	214.81
996.90	214.83
997.19	214.80
997.48	214.80
997.77	214.76
998.06	214.83
998.34	214.80
998.63	214.83
998.92	214.79
999.21	214.82
999.50	214.84
999.79	214.78
1000.08	214.76
1000.37	214.74
1000.66	214.73
1000.95	214.79
1001.24	214.81
1001.53	214.84
1001.82	214.78
1002.11	214.68
1002.40	214.70
1002.68	214.75
1002.97	214.91
1003.26	214.90
1003.55	214.87
1003.84	214.90
1004.13	214.95
1004.42	214.94
1004.71	214.91
1004.99	214.88
1005.28	214.96
1005.57	214.90
1005.86	214.88
1006.15	214.86
1006.44	214.83
1006.72	214.87
1007.01	214.82
1007.30	214.82
1007.59	214.76
1007.88	214.78
1008.17	214.86
1008.45	214.83
1008.74	214.73
1009.03	214.61
1009.32	214.59
1009.60	214.57
1009.89	214.55
1010.18	214.46
1010.47	214.43
1010.76	214.44
1011.04	214.46
1011.33	214.45
1011.62	214.48
1011.91	214.52
1012.19	214.53
1012.48	214.53
1012.77	214.52
1013.05	214.64
1013.34	214.63
1013.63	214.63
1013.92	214.65
1014.20	214.60
1014.49	214.57
1014.78	214.60
1015.06	214.54
1015.35	214.57
1015.64	214.61
1015.92	214.65
1016.21	214.67
1016.50	214.69
1016.78	214.71
1017.07	214.74
1017.36	214.66
1017.64	214.65
1017.93	214.68
1018.22	214.67
1018.50	214.70
1018.79	214.69
1019.08	214.56
1019.36	214.58
1019.65	214.59
1019.93	214.64
1020.22	214.66
1020.51	214.77
1020.79	214.75
1021.08	214.27
1021.36	214.70
1021.65	214.88
1021.94	214.17
1022.22	214.65
1022.51	214.67
1022.79	215.67
1023.08	214.60
1023.36	216.61
1023.65	214.31
>>>>>End Processed Spectral Data<<<<<
