SpectraSuite Data File
++++++++++++++++++++++++++++++++++++
Date: Tue Jan 29 16:47:45 EST 2013
User: group
Dark Spectrum Present: No
Reference Spectrum Present: No
Number of Sampled Component Spectra: 1
Spectrometers: USB2E7196
Integration Time (usec): 65000 (USB2E7196)
Spectra Averaged: 100 (USB2E7196)
Boxcar Smoothing: 10 (USB2E7196)
Correct for Electrical Dark: No (USB2E7196)
Strobe/Lamp Enabled: No (USB2E7196)
Correct for Detector Non-linearity: No (USB2E7196)
Correct for Stray Light: No (USB2E7196)
Number of Pixels in Processed Spectrum: 2048
>>>>>Begin Processed Spectral Data<<<<<
339.09	0.00
339.48	201.72
339.86	203.75
340.24	204.52
340.63	206.59
341.01	210.80
341.39	208.74
341.78	210.83
342.16	211.93
342.54	212.22
342.93	201.16
343.31	211.31
343.69	211.87
344.07	212.32
344.46	212.79
344.84	213.15
345.22	213.33
345.60	213.56
345.99	213.74
346.37	213.86
346.75	213.95
347.13	214.03
347.52	214.11
347.90	214.23
348.28	214.22
348.66	214.28
349.05	214.25
349.43	214.29
349.81	214.37
350.19	214.43
350.57	214.46
350.96	214.57
351.34	214.68
351.72	214.74
352.10	214.83
352.48	214.84
352.87	214.94
353.25	214.96
353.63	215.05
354.01	215.05
354.39	215.12
354.77	215.19
355.15	215.31
355.54	215.35
355.92	215.31
356.30	215.40
356.68	215.58
357.06	215.67
357.44	215.70
357.82	215.76
358.20	215.86
358.58	215.92
358.97	215.99
359.35	216.09
359.73	216.19
360.11	216.24
360.49	216.34
360.87	216.34
361.25	216.44
361.63	216.55
362.01	216.63
362.39	216.64
362.77	216.69
363.15	216.72
363.53	216.75
363.91	216.83
364.29	216.81
364.67	216.61
365.05	216.60
365.43	216.65
365.81	216.69
366.19	216.77
366.57	216.86
366.95	216.86
367.33	216.78
367.71	216.78
368.09	216.82
368.47	216.81
368.85	216.78
369.23	216.83
369.61	216.77
369.99	216.83
370.37	216.87
370.75	216.97
371.13	216.89
371.51	216.83
371.89	216.83
372.27	216.85
372.65	216.87
373.03	216.86
373.41	216.79
373.78	216.75
374.16	216.62
374.54	216.50
374.92	216.43
375.30	216.43
375.68	216.35
376.06	216.31
376.44	216.25
376.82	216.27
377.19	216.19
377.57	216.12
377.95	216.00
378.33	215.91
378.71	215.72
379.09	215.74
379.47	215.76
379.84	215.70
380.22	215.63
380.60	215.57
380.98	215.53
381.36	215.47
381.73	215.41
382.11	215.39
382.49	215.34
382.87	215.32
383.25	215.26
383.62	215.44
384.00	215.33
384.38	215.31
384.76	215.30
385.13	215.33
385.51	215.32
385.89	215.26
386.27	215.29
386.64	215.30
387.02	215.21
387.40	215.14
387.78	215.11
388.15	215.07
388.53	215.04
388.91	215.01
389.29	214.97
389.66	215.01
390.04	214.98
390.42	215.04
390.79	215.03
391.17	215.01
391.55	214.78
391.92	214.80
392.30	214.83
392.68	214.75
393.05	214.73
393.43	214.71
393.81	214.75
394.18	214.70
394.56	214.68
394.94	214.77
395.31	214.76
395.69	214.84
396.06	214.89
396.44	214.93
396.82	214.95
397.19	215.10
397.57	215.10
397.95	215.14
398.32	215.11
398.70	215.16
399.07	215.22
399.45	215.27
399.82	215.30
400.20	215.34
400.58	215.41
400.95	215.37
401.33	215.51
401.70	215.72
402.08	215.81
402.45	215.91
402.83	216.01
403.20	216.12
403.58	216.20
403.95	216.36
404.33	216.49
404.71	216.67
405.08	216.92
405.46	217.07
405.83	217.27
406.21	217.49
406.58	217.71
406.96	217.97
407.33	218.23
407.70	218.53
408.08	218.98
408.45	219.34
408.83	219.78
409.20	220.12
409.58	220.40
409.95	220.88
410.33	221.34
410.70	221.79
411.08	222.34
411.45	222.91
411.82	223.48
412.20	224.17
412.57	224.97
412.95	225.53
413.32	226.33
413.69	227.18
414.07	228.09
414.44	229.10
414.82	230.12
415.19	231.32
415.56	232.52
415.94	233.74
416.31	235.17
416.68	236.56
417.06	238.16
417.43	239.71
417.81	241.44
418.18	243.23
418.55	245.19
418.93	247.26
419.30	249.41
419.67	251.66
420.04	253.99
420.42	256.38
420.79	259.22
421.16	262.04
421.54	264.91
421.91	267.89
422.28	271.02
422.66	274.35
423.03	277.59
423.40	281.00
423.77	284.63
424.15	288.30
424.52	292.15
424.89	296.35
425.26	300.45
425.64	304.35
426.01	308.66
426.38	313.18
426.75	317.77
427.13	322.51
427.50	327.55
427.87	332.77
428.24	337.99
428.61	343.01
428.99	348.54
429.36	354.66
429.73	360.60
430.10	366.51
430.47	372.59
430.85	378.90
431.22	385.62
431.59	392.69
431.96	399.53
432.33	407.04
432.70	414.29
433.08	422.81
433.45	430.94
433.82	439.00
434.19	447.92
434.56	456.68
434.93	465.03
435.30	473.31
435.68	482.47
436.05	491.51
436.42	500.46
436.79	508.59
437.16	517.36
437.53	526.69
437.90	535.89
438.27	544.89
438.64	554.16
439.01	562.72
439.38	570.34
439.75	577.71
440.13	586.25
440.50	594.32
440.87	600.78
441.24	607.44
441.61	614.83
441.98	620.25
442.35	626.55
442.72	632.95
443.09	639.02
443.46	642.76
443.83	645.26
444.20	647.49
444.57	650.72
444.94	652.24
445.31	653.69
445.68	655.05
446.05	655.72
446.42	654.98
446.79	654.12
447.16	653.07
447.53	652.37
447.90	649.04
448.27	645.69
448.64	641.08
449.01	637.75
449.37	631.82
449.74	626.13
450.11	619.22
450.48	611.75
450.85	604.26
451.22	597.75
451.59	591.63
451.96	585.74
452.33	577.87
452.70	570.71
453.07	562.18
453.43	553.57
453.80	545.18
454.17	537.18
454.54	529.51
454.91	521.29
455.28	513.22
455.65	505.70
456.02	498.19
456.38	491.81
456.75	483.85
457.12	477.24
457.49	470.65
457.86	464.43
458.23	459.04
458.59	453.11
458.96	447.08
459.33	441.75
459.70	436.36
460.07	432.11
460.43	427.16
460.80	422.55
461.17	418.53
461.54	414.32
461.91	410.26
462.27	406.13
462.64	402.70
463.01	398.91
463.38	395.20
463.74	391.47
464.11	388.20
464.48	385.38
464.85	382.27
465.21	379.85
465.58	377.25
465.95	374.05
466.32	371.42
466.68	368.85
467.05	366.25
467.42	363.71
467.78	360.96
468.15	358.43
468.52	356.49
468.88	353.96
469.25	351.75
469.62	349.91
469.98	347.98
470.35	346.09
470.72	344.36
471.08	342.55
471.45	341.03
471.82	339.44
472.18	337.75
472.55	336.50
472.92	335.09
473.28	333.82
473.65	332.71
474.02	331.55
474.38	330.58
474.75	329.80
475.11	328.93
475.48	328.33
475.85	327.84
476.21	327.33
476.58	326.98
476.94	326.73
477.31	326.40
477.67	326.09
478.04	325.94
478.41	325.86
478.77	326.02
479.14	325.98
479.50	326.14
479.87	326.45
480.23	326.78
480.60	327.03
480.96	327.31
481.33	327.92
481.69	328.49
482.06	329.05
482.42	329.53
482.79	330.12
483.15	330.91
483.52	331.81
483.88	332.70
484.25	333.62
484.61	334.65
484.98	335.69
485.34	337.00
485.71	338.39
486.07	339.88
486.44	341.20
486.80	342.80
487.17	344.45
487.53	346.26
487.90	348.12
488.26	350.11
488.62	352.26
488.99	354.24
489.35	356.43
489.72	358.77
490.08	361.28
490.44	363.89
490.81	366.61
491.17	369.34
491.54	372.31
491.90	375.35
492.26	378.55
492.63	381.99
492.99	385.51
493.36	389.18
493.72	393.01
494.08	396.99
494.45	401.26
494.81	405.63
495.17	410.10
495.54	414.82
495.90	419.61
496.26	424.49
496.63	429.70
496.99	435.09
497.35	440.68
497.72	446.48
498.08	452.38
498.44	458.45
498.80	464.89
499.17	471.36
499.53	478.06
499.89	485.00
500.26	491.98
500.62	499.05
500.98	506.44
501.34	513.93
501.71	521.71
502.07	529.47
502.43	537.45
502.79	545.61
503.16	553.98
503.52	562.56
503.88	571.27
504.24	580.25
504.60	589.26
504.97	598.45
505.33	607.72
505.69	617.62
506.05	627.42
506.41	637.25
506.78	647.38
507.14	657.58
507.50	667.96
507.86	678.54
508.22	689.28
508.59	699.92
508.95	710.91
509.31	722.19
509.67	733.59
510.03	744.97
510.39	756.61
510.75	768.38
511.12	780.32
511.48	792.37
511.84	804.60
512.20	816.95
512.56	829.59
512.92	842.36
513.28	855.03
513.64	867.83
514.00	880.68
514.37	893.63
514.73	906.74
515.09	919.79
515.45	932.83
515.81	945.87
516.17	959.29
516.53	972.61
516.89	985.71
517.25	998.93
517.61	1012.49
517.97	1025.97
518.33	1039.15
518.69	1052.67
519.05	1066.45
519.41	1080.11
519.77	1094.02
520.13	1107.39
520.49	1120.66
520.85	1134.03
521.21	1147.32
521.57	1161.12
521.93	1174.15
522.29	1187.94
522.65	1201.59
523.01	1215.32
523.37	1228.58
523.73	1241.97
524.09	1255.17
524.45	1268.56
524.81	1282.05
525.17	1295.48
525.53	1308.72
525.89	1322.11
526.25	1335.31
526.61	1348.23
526.97	1361.49
527.33	1374.61
527.68	1388.10
528.04	1401.67
528.40	1414.89
528.76	1428.49
529.12	1441.40
529.48	1454.90
529.84	1467.22
530.20	1480.07
530.56	1492.64
530.91	1505.93
531.27	1518.84
531.63	1531.60
531.99	1544.41
532.35	1556.79
532.71	1569.26
533.07	1582.19
533.42	1594.55
533.78	1606.85
534.14	1618.92
534.50	1630.20
534.86	1641.75
535.21	1652.74
535.57	1664.38
535.93	1675.58
536.29	1686.64
536.65	1698.05
537.00	1709.05
537.36	1720.62
537.72	1731.66
538.08	1743.12
538.44	1754.11
538.79	1765.22
539.15	1776.33
539.51	1787.15
539.87	1798.44
540.22	1809.35
540.58	1820.47
540.94	1831.44
541.29	1841.64
541.65	1851.48
542.01	1861.91
542.37	1872.00
542.72	1882.07
543.08	1891.82
543.44	1902.47
543.79	1911.81
544.15	1921.23
544.51	1931.20
544.87	1941.05
545.22	1950.38
545.58	1959.28
545.94	1968.38
546.29	1977.10
546.65	1985.45
547.01	1993.78
547.36	2001.53
547.72	2009.45
548.07	2016.90
548.43	2024.62
548.79	2032.62
549.14	2040.95
549.50	2049.58
549.86	2057.60
550.21	2065.30
550.57	2073.00
550.92	2079.82
551.28	2087.35
551.64	2094.80
551.99	2102.39
552.35	2109.53
552.70	2116.38
553.06	2123.15
553.41	2129.45
553.77	2135.92
554.13	2142.38
554.48	2149.45
554.84	2156.70
555.19	2163.08
555.55	2169.51
555.90	2175.90
556.26	2182.82
556.61	2189.01
556.97	2193.87
557.32	2199.61
557.68	2205.94
558.03	2211.63
558.39	2217.10
558.74	2223.12
559.10	2228.45
559.45	2234.08
559.81	2239.67
560.16	2245.16
560.52	2250.89
560.87	2257.12
561.23	2262.95
561.58	2269.47
561.94	2274.71
562.29	2279.39
562.64	2285.44
563.00	2291.26
563.35	2296.71
563.71	2302.27
564.06	2307.89
564.42	2313.63
564.77	2318.58
565.12	2323.77
565.48	2328.87
565.83	2334.13
566.19	2339.43
566.54	2344.93
566.89	2349.35
567.25	2353.86
567.60	2359.40
567.96	2364.40
568.31	2368.93
568.66	2373.09
569.02	2376.98
569.37	2380.61
569.72	2384.70
570.08	2388.19
570.43	2391.16
570.78	2394.24
571.14	2396.60
571.49	2399.49
571.84	2402.96
572.20	2405.81
572.55	2408.76
572.90	2410.98
573.26	2413.63
573.61	2416.23
573.96	2418.28
574.31	2420.26
574.67	2422.03
575.02	2422.69
575.37	2424.27
575.72	2424.93
576.08	2426.38
576.43	2426.31
576.78	2426.71
577.13	2428.23
577.49	2429.24
577.84	2430.02
578.19	2431.05
578.54	2431.49
578.90	2432.04
579.25	2431.85
579.60	2431.67
579.95	2430.64
580.30	2430.46
580.66	2429.71
581.01	2427.66
581.36	2424.98
581.71	2423.25
582.06	2421.83
582.42	2420.82
582.77	2418.29
583.12	2416.47
583.47	2414.79
583.82	2414.10
584.17	2412.56
584.53	2410.35
584.88	2408.17
585.23	2406.25
585.58	2403.87
585.93	2401.79
586.28	2399.44
586.63	2396.66
586.98	2394.08
587.34	2392.04
587.69	2389.40
588.04	2387.12
588.39	2385.48
588.74	2383.11
589.09	2380.37
589.44	2377.05
589.79	2374.53
590.14	2372.46
590.49	2369.36
590.84	2365.28
591.19	2361.91
591.54	2358.54
591.89	2354.26
592.25	2350.82
592.60	2346.43
592.95	2342.16
593.30	2337.95
593.65	2333.50
594.00	2329.13
594.35	2326.17
594.70	2321.52
595.05	2317.02
595.40	2311.47
595.75	2305.69
596.10	2301.82
596.45	2296.78
596.80	2292.13
597.15	2286.84
597.50	2280.78
597.85	2275.78
598.19	2270.66
598.54	2264.83
598.89	2259.64
599.24	2255.16
599.59	2248.93
599.94	2243.10
600.29	2237.13
600.64	2231.01
600.99	2223.98
601.34	2218.38
601.69	2211.32
602.04	2204.71
602.39	2197.88
602.74	2191.64
603.08	2186.05
603.43	2179.53
603.78	2172.67
604.13	2165.60
604.48	2158.16
604.83	2152.03
605.18	2145.81
605.53	2138.88
605.87	2131.85
606.22	2125.01
606.57	2117.03
606.92	2108.90
607.27	2101.79
607.62	2095.25
607.96	2088.33
608.31	2081.99
608.66	2074.16
609.01	2066.66
609.36	2059.53
609.70	2051.97
610.05	2044.29
610.40	2035.93
610.75	2027.53
611.10	2019.80
611.44	2010.90
611.79	2002.19
612.14	1992.26
612.49	1981.49
612.83	1972.12
613.18	1962.77
613.53	1953.45
613.88	1943.86
614.22	1935.31
614.57	1925.50
614.92	1914.82
615.27	1904.54
615.61	1894.34
615.96	1884.75
616.31	1875.11
616.65	1865.69
617.00	1856.10
617.35	1846.56
617.70	1837.02
618.04	1827.19
618.39	1817.17
618.74	1807.68
619.08	1798.07
619.43	1789.47
619.78	1781.39
620.12	1772.84
620.47	1763.44
620.82	1753.19
621.16	1743.58
621.51	1733.81
621.85	1724.11
622.20	1713.85
622.55	1703.44
622.89	1693.57
623.24	1683.96
623.59	1674.18
623.93	1664.21
624.28	1654.27
624.62	1644.22
624.97	1633.91
625.32	1624.15
625.66	1615.23
626.01	1606.50
626.35	1597.36
626.70	1587.32
627.04	1577.45
627.39	1567.43
627.73	1558.20
628.08	1549.33
628.43	1539.82
628.77	1530.74
629.12	1521.88
629.46	1514.16
629.81	1505.94
630.15	1496.64
630.50	1486.92
630.84	1476.58
631.19	1466.86
631.53	1457.79
631.88	1447.65
632.22	1437.79
632.57	1428.50
632.91	1418.47
633.26	1408.68
633.60	1399.21
633.95	1390.08
634.29	1380.61
634.64	1371.40
634.98	1361.41
635.32	1352.15
635.67	1343.75
636.01	1334.50
636.36	1324.81
636.70	1315.34
637.05	1305.98
637.39	1297.09
637.73	1288.61
638.08	1281.07
638.42	1272.85
638.77	1264.14
639.11	1256.07
639.45	1248.44
639.80	1239.90
640.14	1231.23
640.49	1222.45
640.83	1213.58
641.17	1205.43
641.52	1197.43
641.86	1188.85
642.20	1181.24
642.55	1172.71
642.89	1163.84
643.23	1155.27
643.58	1147.25
643.92	1138.36
644.26	1129.76
644.61	1121.48
644.95	1112.71
645.29	1103.57
645.64	1094.51
645.98	1085.99
646.32	1078.18
646.66	1069.60
647.01	1061.44
647.35	1053.47
647.69	1045.29
648.04	1037.19
648.38	1028.44
648.72	1019.68
649.06	1011.26
649.41	1003.03
649.75	995.21
650.09	987.41
650.43	979.47
650.78	971.23
651.12	963.44
651.46	956.00
651.80	948.71
652.14	941.47
652.49	933.96
652.83	926.65
653.17	919.08
653.51	911.45
653.85	904.33
654.20	897.15
654.54	889.72
654.88	882.47
655.22	875.22
655.56	868.24
655.90	861.46
656.25	854.87
656.59	848.02
656.93	841.04
657.27	833.97
657.61	826.96
657.95	820.85
658.29	814.92
658.64	808.89
658.98	802.46
659.32	795.90
659.66	789.75
660.00	783.46
660.34	777.33
660.68	771.16
661.02	764.82
661.36	758.78
661.70	753.01
662.05	747.36
662.39	741.91
662.73	736.47
663.07	731.10
663.41	725.47
663.75	719.76
664.09	714.07
664.43	708.57
664.77	703.24
665.11	697.44
665.45	691.61
665.79	685.79
666.13	680.06
666.47	674.53
666.81	669.12
667.15	663.72
667.49	658.55
667.83	653.30
668.17	648.03
668.51	642.91
668.85	637.93
669.19	633.05
669.53	628.05
669.87	622.94
670.21	618.15
670.55	613.41
670.89	608.97
671.23	604.62
671.57	600.26
671.91	596.00
672.25	591.80
672.58	587.68
672.92	583.61
673.26	579.74
673.60	575.94
673.94	572.02
674.28	568.44
674.62	564.71
674.96	560.98
675.30	557.44
675.64	553.73
675.97	550.12
676.31	546.48
676.65	542.82
676.99	539.43
677.33	535.57
677.67	531.99
678.01	528.14
678.34	524.50
678.68	520.96
679.02	517.31
679.36	513.64
679.70	509.96
680.04	506.33
680.37	502.79
680.71	499.47
681.05	496.34
681.39	493.05
681.73	489.83
682.06	486.78
682.40	483.64
682.74	480.50
683.08	477.22
683.42	473.98
683.75	470.96
684.09	467.91
684.43	465.05
684.77	462.06
685.10	459.15
685.44	456.18
685.78	453.20
686.12	450.40
686.45	447.66
686.79	444.95
687.13	442.40
687.46	439.77
687.80	436.96
688.14	434.05
688.48	431.32
688.81	428.63
689.15	426.02
689.49	423.44
689.82	420.84
690.16	418.28
690.50	415.80
690.83	413.25
691.17	410.65
691.51	408.17
691.84	405.88
692.18	403.61
692.52	401.34
692.85	399.19
693.19	396.99
693.52	394.81
693.86	392.63
694.20	390.38
694.53	388.22
694.87	386.04
695.21	383.89
695.54	381.76
695.88	379.53
696.21	377.30
696.55	375.12
696.88	373.04
697.22	371.01
697.56	369.07
697.89	367.20
698.23	365.44
698.56	363.65
698.90	361.89
699.23	359.97
699.57	358.10
699.90	356.22
700.24	354.36
700.58	352.52
700.91	350.81
701.25	349.29
701.58	347.64
701.92	346.03
702.25	344.44
702.59	342.79
702.92	341.26
703.26	339.67
703.59	338.18
703.93	336.92
704.26	335.46
704.60	333.94
704.93	332.38
705.26	330.82
705.60	329.25
705.93	327.64
706.27	326.33
706.60	325.07
706.94	323.84
707.27	322.46
707.61	321.14
707.94	319.81
708.27	318.26
708.61	316.81
708.94	315.43
709.28	314.09
709.61	312.80
709.94	311.54
710.28	310.31
710.61	309.13
710.95	307.65
711.28	306.57
711.61	305.37
711.95	304.27
712.28	303.10
712.61	301.96
712.95	300.90
713.28	299.85
713.61	298.66
713.95	297.48
714.28	296.44
714.61	295.38
714.95	294.32
715.28	293.27
715.61	292.26
715.95	291.30
716.28	290.33
716.61	289.40
716.95	288.42
717.28	287.46
717.61	286.47
717.94	285.60
718.28	284.55
718.61	283.64
718.94	282.66
719.27	281.78
719.61	280.92
719.94	280.03
720.27	279.01
720.60	278.14
720.94	277.33
721.27	276.57
721.60	275.86
721.93	275.10
722.27	274.45
722.60	273.77
722.93	273.03
723.26	272.36
723.59	271.61
723.93	271.00
724.26	270.36
724.59	269.68
724.92	269.01
725.25	268.45
725.59	267.90
725.92	267.36
726.25	266.75
726.58	266.19
726.91	265.60
727.24	265.09
727.57	264.54
727.91	263.89
728.24	263.33
728.57	262.73
728.90	262.18
729.23	261.55
729.56	261.08
729.89	260.55
730.22	259.98
730.55	259.43
730.89	258.88
731.22	258.34
731.55	257.81
731.88	257.30
732.21	256.75
732.54	256.21
732.87	255.70
733.20	255.22
733.53	254.72
733.86	254.24
734.19	253.70
734.52	253.27
734.85	252.96
735.18	252.48
735.51	252.08
735.84	251.63
736.17	251.25
736.50	250.67
736.83	250.49
737.16	250.06
737.49	249.68
737.82	249.24
738.15	248.87
738.48	248.48
738.81	248.09
739.14	247.67
739.47	247.29
739.80	246.91
740.13	246.58
740.46	246.16
740.79	245.76
741.12	245.40
741.45	245.03
741.78	244.60
742.11	244.32
742.44	243.94
742.77	243.62
743.10	243.28
743.43	242.97
743.75	242.41
744.08	242.32
744.41	241.96
744.74	241.60
745.07	241.19
745.40	240.91
745.73	240.65
746.06	240.30
746.39	240.02
746.71	239.69
747.04	239.30
747.37	239.01
747.70	238.76
748.03	238.46
748.36	238.18
748.68	237.84
749.01	237.51
749.34	237.21
749.67	236.93
750.00	236.66
750.33	236.50
750.65	236.21
750.98	235.71
751.31	235.47
751.64	235.27
751.97	235.15
752.29	234.85
752.62	234.49
752.95	234.23
753.28	233.91
753.60	233.67
753.93	233.53
754.26	233.31
754.59	233.01
754.91	232.78
755.24	232.53
755.57	232.32
755.90	232.06
756.22	231.84
756.55	231.57
756.88	231.28
757.20	230.96
757.53	230.72
757.86	230.48
758.19	230.27
758.51	230.05
758.84	229.74
759.17	229.57
759.49	229.40
759.82	229.38
760.15	229.19
760.47	229.00
760.80	228.70
761.13	228.52
761.45	228.33
761.78	228.11
762.11	227.90
762.43	227.69
762.76	227.51
763.08	227.34
763.41	227.20
763.74	227.10
764.06	226.94
764.39	226.76
764.71	226.61
765.04	226.43
765.37	226.27
765.69	226.16
766.02	226.00
766.34	225.85
766.67	225.58
767.00	225.50
767.32	225.45
767.65	225.46
767.97	225.30
768.30	225.22
768.62	225.12
768.95	224.97
769.27	224.87
769.60	224.76
769.92	224.59
770.25	224.43
770.57	224.23
770.90	224.11
771.22	223.97
771.55	223.84
771.87	223.75
772.20	223.58
772.52	223.63
772.85	223.78
773.17	223.68
773.50	223.57
773.82	223.45
774.15	223.28
774.47	223.07
774.80	222.96
775.12	222.83
775.45	222.73
775.77	222.67
776.09	222.57
776.42	222.48
776.74	222.48
777.07	222.35
777.39	222.25
777.72	222.13
778.04	222.09
778.36	221.98
778.69	221.88
779.01	221.84
779.33	221.56
779.66	221.25
779.98	221.15
780.31	221.08
780.63	221.09
780.95	221.04
781.28	220.98
781.60	220.89
781.92	220.85
782.25	220.80
782.57	220.73
782.89	220.67
783.22	220.61
783.54	220.49
783.86	220.47
784.19	220.42
784.51	220.43
784.83	220.34
785.16	220.27
785.48	220.20
785.80	220.14
786.12	220.11
786.45	220.02
786.77	219.98
787.09	219.88
787.42	219.70
787.74	219.62
788.06	219.51
788.38	219.49
788.71	219.36
789.03	219.29
789.35	219.27
789.67	219.20
789.99	219.13
790.32	219.05
790.64	219.01
790.96	219.14
791.28	219.00
791.61	218.93
791.93	218.89
792.25	218.88
792.57	218.96
792.89	218.84
793.21	218.80
793.54	218.72
793.86	218.65
794.18	218.64
794.50	218.55
794.82	218.52
795.14	218.46
795.47	218.49
795.79	218.44
796.11	218.31
796.43	218.22
796.75	218.20
797.07	218.19
797.39	218.16
797.71	217.99
798.04	217.96
798.36	217.94
798.68	217.92
799.00	217.88
799.32	217.74
799.64	217.75
799.96	217.72
800.28	217.75
800.60	217.71
800.92	217.69
801.24	217.67
801.56	217.62
801.89	217.59
802.21	217.54
802.53	217.46
802.85	217.49
803.17	217.60
803.49	217.49
803.81	217.43
804.13	217.39
804.45	217.35
804.77	217.34
805.09	217.29
805.41	217.22
805.73	217.15
806.05	217.06
806.37	217.02
806.69	216.99
807.01	216.94
807.33	216.94
807.65	216.84
807.97	216.92
808.28	216.90
808.60	216.86
808.92	216.81
809.24	216.94
809.56	216.88
809.88	216.74
810.20	216.75
810.52	216.77
810.84	216.70
811.16	216.62
811.48	216.56
811.80	216.65
812.12	216.63
812.43	216.63
812.75	216.62
813.07	216.59
813.39	216.55
813.71	216.47
814.03	216.41
814.35	216.40
814.67	216.27
814.98	216.26
815.30	216.23
815.62	216.21
815.94	216.03
816.26	216.04
816.58	215.98
816.89	216.01
817.21	215.94
817.53	215.94
817.85	215.93
818.17	215.91
818.48	215.78
818.80	215.81
819.12	215.80
819.44	215.75
819.76	215.68
820.07	215.69
820.39	215.70
820.71	215.70
821.03	215.68
821.34	215.65
821.66	215.65
821.98	215.68
822.30	215.62
822.61	215.75
822.93	215.68
823.25	215.68
823.57	215.60
823.88	215.64
824.20	215.61
824.52	215.62
824.83	215.63
825.15	215.59
825.47	215.57
825.79	215.56
826.10	215.53
826.42	215.50
826.74	215.47
827.05	215.45
827.37	215.43
827.69	215.41
828.00	215.42
828.32	215.40
828.64	215.35
828.95	215.46
829.27	215.37
829.58	215.36
829.90	215.38
830.22	215.40
830.53	215.29
830.85	215.26
831.17	215.22
831.48	215.16
831.80	215.18
832.11	215.14
832.43	215.09
832.75	215.09
833.06	215.21
833.38	215.16
833.69	215.14
834.01	215.16
834.32	215.18
834.64	215.12
834.96	215.12
835.27	215.09
835.59	215.01
835.90	214.98
836.22	214.97
836.53	214.92
836.85	214.87
837.16	215.07
837.48	215.07
837.79	215.11
838.11	215.13
838.42	215.12
838.74	215.16
839.05	215.16
839.37	215.14
839.68	215.02
840.00	215.04
840.31	215.07
840.63	215.02
840.94	214.95
841.26	214.92
841.57	214.90
841.88	214.91
842.20	214.88
842.51	214.86
842.83	214.83
843.14	215.03
843.46	215.03
843.77	214.90
844.08	214.88
844.40	214.83
844.71	214.79
845.03	214.76
845.34	214.71
845.65	214.68
845.97	214.70
846.28	214.70
846.60	214.69
846.91	214.65
847.22	214.68
847.54	214.75
847.85	214.76
848.16	214.76
848.48	214.71
848.79	214.79
849.10	214.82
849.42	214.86
849.73	214.67
850.04	214.66
850.36	214.60
850.67	214.61
850.98	214.63
851.30	214.66
851.61	214.62
851.92	214.60
852.23	214.66
852.55	214.67
852.86	214.66
853.17	214.68
853.49	214.71
853.80	214.69
854.11	214.67
854.42	214.70
854.74	214.70
855.05	214.70
855.36	214.59
855.67	214.57
855.99	214.57
856.30	214.80
856.61	214.80
856.92	214.81
857.23	214.80
857.55	214.76
857.86	214.78
858.17	214.86
858.48	214.83
858.79	214.81
859.11	214.81
859.42	214.80
859.73	214.76
860.04	214.73
860.35	214.66
860.66	214.61
860.98	214.62
861.29	214.58
861.60	214.59
861.91	214.65
862.22	214.62
862.53	214.56
862.84	214.32
863.16	214.36
863.47	214.33
863.78	214.31
864.09	214.35
864.40	214.32
864.71	214.31
865.02	214.35
865.33	214.31
865.64	214.28
865.95	214.30
866.27	214.45
866.58	214.43
866.89	214.47
867.20	214.48
867.51	214.41
867.82	214.44
868.13	214.48
868.44	214.44
868.75	214.49
869.06	214.48
869.37	214.50
869.68	214.44
869.99	214.46
870.30	214.51
870.61	214.50
870.92	214.47
871.23	214.45
871.54	214.48
871.85	214.57
872.16	214.57
872.47	214.57
872.78	214.43
873.09	214.46
873.40	214.44
873.71	214.46
874.02	214.49
874.33	214.45
874.64	214.41
874.95	214.43
875.26	214.38
875.56	214.40
875.87	214.38
876.18	214.36
876.49	214.57
876.80	214.52
877.11	214.46
877.42	214.49
877.73	214.48
878.04	214.42
878.35	214.41
878.66	214.42
878.96	214.41
879.27	214.42
879.58	214.38
879.89	214.38
880.20	214.45
880.51	214.48
880.82	214.47
881.12	214.49
881.43	214.44
881.74	214.42
882.05	214.41
882.36	214.42
882.67	214.44
882.97	214.23
883.28	214.25
883.59	214.25
883.90	214.24
884.21	214.26
884.51	214.27
884.82	214.23
885.13	214.23
885.44	214.23
885.74	214.22
886.05	214.21
886.36	214.17
886.67	214.10
886.98	214.18
887.28	214.19
887.59	214.17
887.90	214.19
888.20	214.19
888.51	214.22
888.82	214.22
889.13	214.26
889.43	214.43
889.74	214.40
890.05	214.41
890.35	214.39
890.66	214.35
890.97	214.28
891.28	214.22
891.58	214.20
891.89	214.20
892.20	214.16
892.50	214.15
892.81	214.16
893.12	214.14
893.42	214.01
893.73	214.02
894.04	214.01
894.34	214.02
894.65	214.05
894.95	214.03
895.26	214.00
895.57	214.07
895.87	213.87
896.18	213.89
896.48	213.92
896.79	213.95
897.10	213.98
897.40	214.03
897.71	214.09
898.01	214.08
898.32	214.09
898.63	214.11
898.93	214.13
899.24	214.16
899.54	214.16
899.85	214.19
900.15	214.19
900.46	214.21
900.76	214.23
901.07	214.16
901.38	214.15
901.68	214.17
901.99	214.06
902.29	214.06
902.60	214.08
902.90	214.06
903.21	214.05
903.51	214.03
903.82	214.12
904.12	214.08
904.43	214.11
904.73	214.09
905.03	214.09
905.34	214.28
905.64	214.24
905.95	214.22
906.25	214.20
906.56	214.18
906.86	214.16
907.17	214.17
907.47	214.20
907.77	214.17
908.08	214.15
908.38	214.15
908.69	214.14
908.99	214.19
909.30	214.21
909.60	214.21
909.90	214.23
910.21	214.13
910.51	214.16
910.81	214.13
911.12	214.15
911.42	214.17
911.73	213.98
912.03	214.01
912.33	214.06
912.64	214.08
912.94	214.08
913.24	214.05
913.55	214.02
913.85	214.03
914.15	214.08
914.46	214.09
914.76	214.11
915.06	214.13
915.37	214.04
915.67	214.03
915.97	214.02
916.27	213.99
916.58	214.00
916.88	213.97
917.18	213.93
917.49	214.09
917.79	214.07
918.09	214.10
918.39	214.16
918.70	214.15
919.00	214.15
919.30	214.25
919.60	214.25
919.91	214.22
920.21	214.21
920.51	214.18
920.81	214.15
921.12	214.14
921.42	214.12
921.72	214.12
922.02	214.11
922.32	214.15
922.63	214.16
922.93	214.26
923.23	214.28
923.53	214.29
923.83	214.12
924.13	214.16
924.44	214.13
924.74	214.14
925.04	214.19
925.34	214.19
925.64	214.09
925.94	214.12
926.24	214.25
926.55	214.21
926.85	214.21
927.15	214.23
927.45	214.26
927.75	214.26
928.05	214.29
928.35	214.28
928.65	214.31
928.95	214.30
929.26	214.23
929.56	214.26
929.86	214.27
930.16	214.26
930.46	214.22
930.76	214.20
931.06	214.10
931.36	214.04
931.66	214.06
931.96	214.06
932.26	214.03
932.56	213.92
932.86	213.94
933.16	213.97
933.46	213.95
933.76	213.96
934.06	213.99
934.36	214.07
934.66	214.07
934.96	214.04
935.26	214.07
935.56	214.10
935.86	214.06
936.16	214.03
936.46	214.02
936.76	214.05
937.06	214.01
937.36	214.04
937.66	214.04
937.96	213.98
938.26	213.97
938.56	213.96
938.86	213.99
939.16	214.03
939.46	214.03
939.76	214.03
940.06	214.00
940.35	213.97
940.65	213.86
940.95	213.90
941.25	213.83
941.55	213.80
941.85	213.77
942.15	213.79
942.45	213.85
942.75	213.85
943.04	213.85
943.34	213.90
943.64	213.88
943.94	213.82
944.24	213.81
944.54	213.84
944.84	213.86
945.13	213.80
945.43	213.79
945.73	213.78
946.03	213.76
946.33	213.72
946.62	213.68
946.92	213.67
947.22	213.69
947.52	213.70
947.82	213.74
948.11	213.73
948.41	213.70
948.71	213.66
949.01	213.67
949.31	213.66
949.60	213.65
949.90	213.70
950.20	213.73
950.50	213.77
950.79	213.72
951.09	213.77
951.39	213.80
951.69	213.75
951.98	213.79
952.28	213.80
952.58	213.81
952.87	213.85
953.17	213.88
953.47	213.82
953.76	213.85
954.06	213.79
954.36	213.76
954.66	213.78
954.95	213.85
955.25	213.85
955.55	213.86
955.84	213.84
956.14	213.84
956.44	213.84
956.73	213.81
957.03	213.86
957.32	213.84
957.62	213.83
957.92	213.91
958.21	213.91
958.51	214.16
958.81	214.17
959.10	214.18
959.40	214.21
959.69	214.24
959.99	214.24
960.29	214.24
960.58	214.21
960.88	214.26
961.17	214.21
961.47	214.18
961.76	214.19
962.06	214.22
962.36	214.18
962.65	214.19
962.95	214.19
963.24	214.15
963.54	214.14
963.83	214.12
964.13	214.04
964.42	213.95
964.72	213.76
965.01	213.76
965.31	213.74
965.60	213.69
965.90	213.84
966.19	213.79
966.49	213.82
966.78	213.83
967.08	213.84
967.37	213.85
967.67	213.83
967.96	213.86
968.26	213.81
968.55	213.83
968.85	213.82
969.14	213.82
969.43	213.83
969.73	213.81
970.02	213.80
970.32	213.82
970.61	213.85
970.91	213.79
971.20	213.80
971.49	213.78
971.79	213.77
972.08	213.62
972.38	213.65
972.67	213.63
972.96	213.69
973.26	213.61
973.55	213.65
973.85	213.67
974.14	213.61
974.43	213.66
974.73	213.64
975.02	213.58
975.31	213.58
975.61	213.55
975.90	213.50
976.19	213.50
976.49	213.54
976.78	213.55
977.07	213.52
977.37	213.53
977.66	213.54
977.95	213.51
978.24	213.51
978.54	213.53
978.83	213.51
979.12	213.45
979.42	213.47
979.71	213.42
980.00	213.42
980.29	213.44
980.59	213.39
980.88	213.46
981.17	213.50
981.46	213.51
981.76	213.54
982.05	213.64
982.34	213.65
982.63	213.60
982.93	213.58
983.22	213.68
983.51	213.70
983.80	213.68
984.09	213.73
984.39	213.70
984.68	213.69
984.97	213.73
985.26	213.76
985.55	213.80
985.85	213.78
986.14	213.82
986.43	213.84
986.72	213.82
987.01	213.74
987.30	213.74
987.59	213.75
987.89	213.74
988.18	213.68
988.47	213.67
988.76	213.67
989.05	213.68
989.34	213.64
989.63	213.64
989.92	213.65
990.22	213.65
990.51	213.64
990.80	213.62
991.09	213.61
991.38	213.63
991.67	213.57
991.96	213.54
992.25	213.52
992.54	213.49
992.83	213.52
993.12	213.53
993.41	213.56
993.70	213.62
993.99	213.65
994.28	213.69
994.58	213.72
994.87	213.72
995.16	213.75
995.45	213.71
995.74	213.66
996.03	213.72
996.32	213.71
996.61	213.78
996.90	213.77
997.19	213.76
997.48	213.76
997.77	213.76
998.06	213.78
998.34	213.76
998.63	213.79
998.92	213.80
999.21	213.83
999.50	213.82
999.79	213.77
1000.08	213.76
1000.37	213.75
1000.66	213.72
1000.95	213.76
1001.24	213.75
1001.53	213.81
1001.82	213.83
1002.11	213.78
1002.40	213.83
1002.68	213.88
1002.97	214.05
1003.26	214.04
1003.55	214.02
1003.84	214.04
1004.13	214.15
1004.42	214.15
1004.71	214.16
1004.99	214.10
1005.28	214.14
1005.57	214.13
1005.86	214.08
1006.15	214.09
1006.44	214.05
1006.72	214.06
1007.01	214.02
1007.30	214.02
1007.59	213.99
1007.88	213.99
1008.17	213.96
1008.45	213.87
1008.74	213.77
1009.03	213.67
1009.32	213.66
1009.60	213.63
1009.89	213.62
1010.18	213.53
1010.47	213.51
1010.76	213.48
1011.04	213.52
1011.33	213.54
1011.62	213.59
1011.91	213.60
1012.19	213.58
1012.48	213.58
1012.77	213.59
1013.05	213.71
1013.34	213.72
1013.63	213.68
1013.92	213.66
1014.20	213.69
1014.49	213.74
1014.78	213.75
1015.06	213.68
1015.35	213.67
1015.64	213.73
1015.92	213.75
1016.21	213.76
1016.50	213.79
1016.78	213.83
1017.07	213.84
1017.36	213.79
1017.64	213.72
1017.93	213.76
1018.22	213.76
1018.50	213.75
1018.79	213.73
1019.08	213.62
1019.36	213.61
1019.65	213.60
1019.93	213.69
1020.22	213.71
1020.51	213.79
1020.79	213.77
1021.08	213.36
1021.36	212.93
1021.65	213.25
1021.94	213.62
1022.22	213.61
1022.51	213.14
1022.79	214.75
1023.08	214.12
1023.36	215.81
1023.65	213.08
>>>>>End Processed Spectral Data<<<<<
