SpectraSuite Data File
++++++++++++++++++++++++++++++++++++
Date: Tue Jan 29 16:06:42 EST 2013
User: group
Dark Spectrum Present: No
Reference Spectrum Present: No
Number of Sampled Component Spectra: 1
Spectrometers: USB2E7196
Integration Time (usec): 65000 (USB2E7196)
Spectra Averaged: 100 (USB2E7196)
Boxcar Smoothing: 10 (USB2E7196)
Correct for Electrical Dark: No (USB2E7196)
Strobe/Lamp Enabled: No (USB2E7196)
Correct for Detector Non-linearity: No (USB2E7196)
Correct for Stray Light: No (USB2E7196)
Number of Pixels in Processed Spectrum: 2048
>>>>>Begin Processed Spectral Data<<<<<
339.09	0.00
339.48	203.28
339.86	204.13
340.24	204.98
340.63	206.91
341.01	211.40
341.39	210.15
341.78	210.94
342.16	212.98
342.54	212.60
342.93	201.82
343.31	212.02
343.69	212.53
344.07	213.00
344.46	213.46
344.84	213.86
345.22	214.04
345.60	214.28
345.99	214.47
346.37	214.57
346.75	214.67
347.13	214.73
347.52	214.77
347.90	214.91
348.28	214.96
348.66	215.04
349.05	215.01
349.43	215.07
349.81	215.11
350.19	215.22
350.57	215.31
350.96	215.44
351.34	215.55
351.72	215.64
352.10	215.76
352.48	215.82
352.87	215.88
353.25	215.95
353.63	216.02
354.01	216.09
354.39	216.19
354.77	216.30
355.15	216.46
355.54	216.51
355.92	216.55
356.30	216.66
356.68	216.85
357.06	216.95
357.44	216.99
357.82	217.06
358.20	217.12
358.58	217.18
358.97	217.24
359.35	217.34
359.73	217.44
360.11	217.51
360.49	217.59
360.87	217.65
361.25	217.76
361.63	217.86
362.01	217.94
362.39	217.96
362.77	217.99
363.15	218.00
363.53	218.05
363.91	218.07
364.29	218.10
364.67	217.94
365.05	217.96
365.43	218.02
365.81	218.08
366.19	218.18
366.57	218.30
366.95	218.33
367.33	218.31
367.71	218.32
368.09	218.37
368.47	218.37
368.85	218.35
369.23	218.38
369.61	218.29
369.99	218.32
370.37	218.34
370.75	218.43
371.13	218.35
371.51	218.33
371.89	218.31
372.27	218.28
372.65	218.26
373.03	218.23
373.41	218.16
373.78	218.10
374.16	217.98
374.54	217.84
374.92	217.78
375.30	217.73
375.68	217.65
376.06	217.60
376.44	217.53
376.82	217.48
377.19	217.41
377.57	217.38
377.95	217.28
378.33	217.21
378.71	217.03
379.09	217.06
379.47	217.04
379.84	216.99
380.22	216.86
380.60	216.80
380.98	216.74
381.36	216.69
381.73	216.63
382.11	216.63
382.49	216.60
382.87	216.52
383.25	216.49
383.62	216.67
384.00	216.52
384.38	216.49
384.76	216.49
385.13	216.51
385.51	216.48
385.89	216.41
386.27	216.41
386.64	216.42
387.02	216.34
387.40	216.24
387.78	216.21
388.15	216.23
388.53	216.19
388.91	216.16
389.29	216.13
389.66	216.15
390.04	216.05
390.42	216.05
390.79	216.03
391.17	216.00
391.55	215.77
391.92	215.80
392.30	215.82
392.68	215.76
393.05	215.73
393.43	215.70
393.81	215.72
394.18	215.70
394.56	215.67
394.94	215.73
395.31	215.74
395.69	215.80
396.06	215.82
396.44	215.87
396.82	215.87
397.19	215.97
397.57	215.97
397.95	216.06
398.32	216.04
398.70	216.10
399.07	216.18
399.45	216.21
399.82	216.26
400.20	216.28
400.58	216.34
400.95	216.31
401.33	216.43
401.70	216.66
402.08	216.74
402.45	216.85
402.83	216.99
403.20	217.10
403.58	217.15
403.95	217.33
404.33	217.47
404.71	217.62
405.08	217.87
405.46	218.03
405.83	218.23
406.21	218.42
406.58	218.65
406.96	218.86
407.33	219.13
407.70	219.42
408.08	219.85
408.45	220.24
408.83	220.65
409.20	220.99
409.58	221.21
409.95	221.67
410.33	222.15
410.70	222.55
411.08	223.08
411.45	223.63
411.82	224.14
412.20	224.79
412.57	225.62
412.95	226.17
413.32	226.98
413.69	227.78
414.07	228.69
414.44	229.61
414.82	230.60
415.19	231.73
415.56	232.89
415.94	234.07
416.31	235.41
416.68	236.72
417.06	238.26
417.43	239.73
417.81	241.36
418.18	243.07
418.55	244.94
418.93	246.92
419.30	248.96
419.67	251.14
420.04	253.36
420.42	255.64
420.79	258.33
421.16	260.99
421.54	263.80
421.91	266.68
422.28	269.69
422.66	272.84
423.03	276.02
423.40	279.23
423.77	282.66
424.15	286.20
424.52	289.90
424.89	293.98
425.26	297.96
425.64	301.73
426.01	305.83
426.38	310.15
426.75	314.56
427.13	319.10
427.50	323.92
427.87	328.90
428.24	333.96
428.61	338.79
428.99	344.15
429.36	349.92
429.73	355.63
430.10	361.29
430.47	367.19
430.85	373.26
431.22	379.71
431.59	386.65
431.96	393.27
432.33	400.52
432.70	407.46
433.08	415.70
433.45	423.45
433.82	431.25
434.19	439.81
434.56	448.17
434.93	456.27
435.30	464.23
435.68	473.04
436.05	481.70
436.42	490.33
436.79	498.20
437.16	506.67
437.53	515.57
437.90	524.47
438.27	533.13
438.64	542.07
439.01	550.29
439.38	557.57
439.75	564.63
440.13	572.76
440.50	580.41
440.87	586.60
441.24	593.07
441.61	600.05
441.98	605.30
442.35	611.42
442.72	617.50
443.09	623.31
443.46	626.91
443.83	629.31
444.20	631.43
444.57	634.48
444.94	635.87
445.31	637.23
445.68	638.47
446.05	639.02
446.42	638.19
446.79	637.26
447.16	636.18
447.53	635.40
447.90	632.17
448.27	629.00
448.64	624.54
449.01	621.32
449.37	615.66
449.74	610.15
450.11	603.43
450.48	596.30
450.85	589.13
451.22	582.88
451.59	576.95
451.96	571.31
452.33	563.68
452.70	556.84
453.07	548.69
453.43	540.47
453.80	532.51
454.17	524.88
454.54	517.65
454.91	509.81
455.28	502.16
455.65	495.04
456.02	487.86
456.38	481.77
456.75	474.19
457.12	467.88
457.49	461.63
457.86	455.70
458.23	450.56
458.59	444.92
458.96	439.16
459.33	434.04
459.70	428.90
460.07	424.80
460.43	420.10
460.80	415.71
461.17	411.84
461.54	407.79
461.91	403.82
462.27	399.81
462.64	396.44
463.01	392.74
463.38	389.20
463.74	385.61
464.11	382.43
464.48	379.68
464.85	376.70
465.21	374.32
465.58	371.78
465.95	368.70
466.32	366.15
466.68	363.64
467.05	361.20
467.42	358.67
467.78	356.10
468.15	353.67
468.52	351.84
468.88	349.42
469.25	347.28
469.62	345.59
469.98	343.80
470.35	342.15
470.72	340.53
471.08	338.79
471.45	337.34
471.82	335.89
472.18	334.32
472.55	333.20
472.92	331.90
473.28	330.75
473.65	329.69
474.02	328.65
474.38	327.84
474.75	327.12
475.11	326.37
475.48	325.88
475.85	325.40
476.21	324.93
476.58	324.61
476.94	324.41
477.31	324.12
477.67	323.83
478.04	323.69
478.41	323.71
478.77	323.85
479.14	323.84
479.50	324.01
479.87	324.31
480.23	324.67
480.60	324.89
480.96	325.21
481.33	325.85
481.69	326.42
482.06	326.94
482.42	327.41
482.79	328.04
483.15	328.86
483.52	329.85
483.88	330.77
484.25	331.81
484.61	332.84
484.98	333.91
485.34	335.28
485.71	336.66
486.07	338.07
486.44	339.44
486.80	341.04
487.17	342.72
487.53	344.54
487.90	346.42
488.26	348.47
488.62	350.69
488.99	352.72
489.35	354.84
489.72	357.20
490.08	359.72
490.44	362.27
490.81	364.97
491.17	367.63
491.54	370.58
491.90	373.58
492.26	376.81
492.63	380.26
492.99	383.71
493.36	387.32
493.72	391.19
494.08	395.23
494.45	399.44
494.81	403.80
495.17	408.26
495.54	412.92
495.90	417.74
496.26	422.59
496.63	427.75
496.99	433.18
497.35	438.72
497.72	444.50
498.08	450.46
498.44	456.51
498.80	462.97
499.17	469.42
499.53	476.11
499.89	483.00
500.26	489.90
500.62	496.98
500.98	504.40
501.34	511.84
501.71	519.50
502.07	527.32
502.43	535.30
502.79	543.36
503.16	551.72
503.52	560.27
503.88	568.95
504.24	577.87
504.60	586.83
504.97	596.01
505.33	605.29
505.69	615.09
506.05	624.94
506.41	634.73
506.78	644.80
507.14	654.97
507.50	665.36
507.86	676.06
508.22	686.90
508.59	697.51
508.95	708.58
509.31	719.78
509.67	731.15
510.03	742.49
510.39	754.22
510.75	766.01
511.12	777.88
511.48	789.90
511.84	802.04
512.20	814.43
512.56	827.03
512.92	839.84
513.28	852.33
513.64	864.97
514.00	877.67
514.37	890.46
514.73	903.50
515.09	916.31
515.45	928.99
515.81	941.85
516.17	955.09
516.53	968.08
516.89	981.07
517.25	994.15
517.61	1007.47
517.97	1020.65
518.33	1033.60
518.69	1046.90
519.05	1060.42
519.41	1074.03
519.77	1087.73
520.13	1100.73
520.49	1113.60
520.85	1126.80
521.21	1139.91
521.57	1153.41
521.93	1166.35
522.29	1179.86
522.65	1193.33
523.01	1206.83
523.37	1219.69
523.73	1232.69
524.09	1245.68
524.45	1258.83
524.81	1272.08
525.17	1285.33
525.53	1298.28
525.89	1311.32
526.25	1324.21
526.61	1336.89
526.97	1349.60
527.33	1362.16
527.68	1375.41
528.04	1388.55
528.40	1401.46
528.76	1414.44
529.12	1427.04
529.48	1440.06
529.84	1452.00
530.20	1464.41
530.56	1476.74
530.91	1489.84
531.27	1502.45
531.63	1515.04
531.99	1527.48
532.35	1539.33
532.71	1551.28
533.07	1563.83
533.42	1575.83
533.78	1587.53
534.14	1599.25
534.50	1610.16
534.86	1621.43
535.21	1632.06
535.57	1643.25
535.93	1654.28
536.29	1665.19
536.65	1676.32
537.00	1687.01
537.36	1697.96
537.72	1708.76
538.08	1719.70
538.44	1730.16
538.79	1740.91
539.15	1751.39
539.51	1761.91
539.87	1772.95
540.22	1783.45
540.58	1794.06
540.94	1804.65
541.29	1814.85
541.65	1824.37
542.01	1834.60
542.37	1844.41
542.72	1854.33
543.08	1864.05
543.44	1874.13
543.79	1883.10
544.15	1892.29
544.51	1901.97
544.87	1911.64
545.22	1920.28
545.58	1928.97
545.94	1937.65
546.29	1946.14
546.65	1954.22
547.01	1962.22
547.36	1969.61
547.72	1977.26
548.07	1984.68
548.43	1992.24
548.79	1999.82
549.14	2007.66
549.50	2015.91
549.86	2023.57
550.21	2030.68
550.57	2037.96
550.92	2044.45
551.28	2051.80
551.64	2058.86
551.99	2066.07
552.35	2073.01
552.70	2079.84
553.06	2086.33
553.41	2092.41
553.77	2098.56
554.13	2104.75
554.48	2111.52
554.84	2118.50
555.19	2124.78
555.55	2131.04
555.90	2137.09
556.26	2143.65
556.61	2149.45
556.97	2154.20
557.32	2159.90
557.68	2166.22
558.03	2171.87
558.39	2177.04
558.74	2182.83
559.10	2188.38
559.45	2193.92
559.81	2199.49
560.16	2205.14
560.52	2210.94
560.87	2217.37
561.23	2223.41
561.58	2230.02
561.94	2235.18
562.29	2240.00
562.64	2246.08
563.00	2251.57
563.35	2257.25
563.71	2263.19
564.06	2269.10
564.42	2275.03
564.77	2280.34
565.12	2285.60
565.48	2291.01
565.83	2296.87
566.19	2302.47
566.54	2307.83
566.89	2312.54
567.25	2317.16
567.60	2322.78
567.96	2328.02
568.31	2332.65
568.66	2336.87
569.02	2340.84
569.37	2344.79
569.72	2349.25
570.08	2353.00
570.43	2356.14
570.78	2359.15
571.14	2361.67
571.49	2364.58
571.84	2368.22
572.20	2371.19
572.55	2374.33
572.90	2376.40
573.26	2379.11
573.61	2381.60
573.96	2383.74
574.31	2385.77
574.67	2387.71
575.02	2388.78
575.37	2390.23
575.72	2391.28
576.08	2392.86
576.43	2393.18
576.78	2393.99
577.13	2395.79
577.49	2396.91
577.84	2398.46
578.19	2400.14
578.54	2400.99
578.90	2402.31
579.25	2402.44
579.60	2402.48
579.95	2401.98
580.30	2402.52
580.66	2402.01
581.01	2400.62
581.36	2398.63
581.71	2397.47
582.06	2396.83
582.42	2396.16
582.77	2394.33
583.12	2392.68
583.47	2391.63
583.82	2391.36
584.17	2390.24
584.53	2388.17
584.88	2386.33
585.23	2384.58
585.58	2382.53
585.93	2380.44
586.28	2378.39
586.63	2376.17
586.98	2374.18
587.34	2372.31
587.69	2370.12
588.04	2368.51
588.39	2367.18
588.74	2364.99
589.09	2362.47
589.44	2359.51
589.79	2357.26
590.14	2355.59
590.49	2352.98
590.84	2349.40
591.19	2346.55
591.54	2343.29
591.89	2339.43
592.25	2336.31
592.60	2332.23
592.95	2328.26
593.30	2324.37
593.65	2320.01
594.00	2315.91
594.35	2312.87
594.70	2308.39
595.05	2303.75
595.40	2298.31
595.75	2292.86
596.10	2289.32
596.45	2284.72
596.80	2280.24
597.15	2274.99
597.50	2269.05
597.85	2264.19
598.19	2258.86
598.54	2253.07
598.89	2248.09
599.24	2243.72
599.59	2237.77
599.94	2232.34
600.29	2226.50
600.64	2220.76
600.99	2214.28
601.34	2208.85
601.69	2201.91
602.04	2195.59
602.39	2189.32
602.74	2183.38
603.08	2177.87
603.43	2171.42
603.78	2164.78
604.13	2157.72
604.48	2150.73
604.83	2144.72
605.18	2138.58
605.53	2131.85
605.87	2124.94
606.22	2118.25
606.57	2110.44
606.92	2102.54
607.27	2095.44
607.62	2088.84
607.96	2081.83
608.31	2075.14
608.66	2067.37
609.01	2059.88
609.36	2052.84
609.70	2045.02
610.05	2037.26
610.40	2029.08
610.75	2020.83
611.10	2013.18
611.44	2004.43
611.79	1995.78
612.14	1985.89
612.49	1975.42
612.83	1966.26
613.18	1957.16
613.53	1947.97
613.88	1938.49
614.22	1930.00
614.57	1920.14
614.92	1909.69
615.27	1899.70
615.61	1889.91
615.96	1880.14
616.31	1870.71
616.65	1861.49
617.00	1851.65
617.35	1842.12
617.70	1832.39
618.04	1822.33
618.39	1811.95
618.74	1802.35
619.08	1792.64
619.43	1783.96
619.78	1775.85
620.12	1767.09
620.47	1757.17
620.82	1746.86
621.16	1737.08
621.51	1727.14
621.85	1717.31
622.20	1706.79
622.55	1696.18
622.89	1686.24
623.24	1676.67
623.59	1666.86
623.93	1656.57
624.28	1646.95
624.62	1636.79
624.97	1626.42
625.32	1616.81
625.66	1608.11
626.01	1599.18
626.35	1589.81
626.70	1579.71
627.04	1569.36
627.39	1559.30
627.73	1550.13
628.08	1540.99
628.43	1531.33
628.77	1522.11
629.12	1513.29
629.46	1505.47
629.81	1497.00
630.15	1487.39
630.50	1477.50
630.84	1467.12
631.19	1457.26
631.53	1447.86
631.88	1437.75
632.22	1427.85
632.57	1418.40
632.91	1408.10
633.26	1398.26
633.60	1388.70
633.95	1379.38
634.29	1370.14
634.64	1360.76
634.98	1350.86
635.32	1341.55
635.67	1332.97
636.01	1323.69
636.36	1313.69
636.70	1304.12
637.05	1294.75
637.39	1285.84
637.73	1277.25
638.08	1269.61
638.42	1261.30
638.77	1252.54
639.11	1244.26
639.45	1236.32
639.80	1227.66
640.14	1219.04
640.49	1210.19
640.83	1201.34
641.17	1193.18
641.52	1184.82
641.86	1176.22
642.20	1168.32
642.55	1159.79
642.89	1151.04
643.23	1142.38
643.58	1134.45
643.92	1125.44
644.26	1116.81
644.61	1108.38
644.95	1099.57
645.29	1090.28
645.64	1081.15
645.98	1072.71
646.32	1064.78
646.66	1056.37
647.01	1048.02
647.35	1039.90
647.69	1031.47
648.04	1023.17
648.38	1014.28
648.72	1005.46
649.06	997.03
649.41	988.88
649.75	980.90
650.09	973.02
650.43	964.91
650.78	956.75
651.12	949.07
651.46	941.76
651.80	934.47
652.14	927.14
652.49	919.65
652.83	912.49
653.17	904.76
653.51	897.12
653.85	889.88
654.20	882.57
654.54	875.00
654.88	867.93
655.22	860.81
655.56	853.91
655.90	847.20
656.25	840.57
656.59	833.53
656.93	826.60
657.27	819.50
657.61	812.66
657.95	806.62
658.29	800.85
658.64	794.60
658.98	788.26
659.32	781.78
659.66	775.62
660.00	769.24
660.34	763.31
660.68	757.25
661.02	751.00
661.36	745.29
661.70	739.63
662.05	733.96
662.39	728.50
662.73	723.15
663.07	717.87
663.41	712.41
663.75	706.94
664.09	701.30
664.43	695.96
664.77	690.66
665.11	684.74
665.45	678.78
665.79	673.07
666.13	667.38
666.47	661.94
666.81	656.56
667.15	651.21
667.49	646.04
667.83	640.84
668.17	635.68
668.51	630.56
668.85	625.63
669.19	620.82
669.53	615.88
669.87	610.85
670.21	606.13
670.55	601.35
670.89	596.96
671.23	592.73
671.57	588.37
671.91	584.13
672.25	580.11
672.58	576.04
672.92	572.08
673.26	568.19
673.60	564.46
673.94	560.72
674.28	557.19
674.62	553.53
674.96	549.83
675.30	546.31
675.64	542.68
675.97	539.20
676.31	535.64
676.65	532.02
676.99	528.61
677.33	524.78
677.67	521.26
678.01	517.47
678.34	513.89
678.68	510.42
679.02	506.89
679.36	503.18
679.70	499.66
680.04	496.25
680.37	492.92
680.71	489.61
681.05	486.45
681.39	483.25
681.73	480.14
682.06	477.16
682.40	474.12
682.74	471.01
683.08	467.80
683.42	464.64
683.75	461.74
684.09	458.79
684.43	456.10
684.77	453.19
685.10	450.40
685.44	447.51
685.78	444.68
686.12	441.98
686.45	439.37
686.79	436.72
687.13	434.15
687.46	431.51
687.80	428.84
688.14	426.03
688.48	423.48
688.81	420.84
689.15	418.32
689.49	415.79
689.82	413.33
690.16	410.86
690.50	408.45
690.83	406.01
691.17	403.47
691.51	401.04
691.84	398.86
692.18	396.71
692.52	394.55
692.85	392.42
693.19	390.27
693.52	388.12
693.86	385.93
694.20	383.80
694.53	381.72
694.87	379.61
695.21	377.51
695.54	375.39
695.88	373.27
696.21	371.09
696.55	368.97
696.88	366.91
697.22	364.96
697.56	363.15
697.89	361.32
698.23	359.67
698.56	357.87
698.90	356.11
699.23	354.19
699.57	352.36
699.90	350.57
700.24	348.83
700.58	347.11
700.91	345.53
701.25	344.01
701.58	342.44
701.92	340.90
702.25	339.37
702.59	337.80
702.92	336.29
703.26	334.78
703.59	333.37
703.93	332.18
704.26	330.75
704.60	329.27
704.93	327.81
705.26	326.34
705.60	324.93
705.93	323.45
706.27	322.20
706.60	320.99
706.94	319.80
707.27	318.40
707.61	317.09
707.94	315.76
708.27	314.31
708.61	312.90
708.94	311.56
709.28	310.31
709.61	309.09
709.94	307.89
710.28	306.71
710.61	305.52
710.95	304.12
711.28	303.13
711.61	301.97
711.95	300.85
712.28	299.68
712.61	298.52
712.95	297.50
713.28	296.50
713.61	295.34
713.95	294.19
714.28	293.22
714.61	292.21
714.95	291.20
715.28	290.20
715.61	289.19
715.95	288.28
716.28	287.37
716.61	286.43
716.95	285.50
717.28	284.61
717.61	283.71
717.94	282.85
718.28	281.81
718.61	280.98
718.94	280.14
719.27	279.31
719.61	278.53
719.94	277.65
720.27	276.71
720.60	275.92
720.94	275.15
721.27	274.41
721.60	273.78
721.93	273.13
722.27	272.50
722.60	271.88
722.93	271.19
723.26	270.53
723.59	269.87
723.93	269.24
724.26	268.62
724.59	267.98
724.92	267.38
725.25	266.87
725.59	266.35
725.92	265.80
726.25	265.24
726.58	264.72
726.91	264.20
727.24	263.72
727.57	263.16
727.91	262.61
728.24	262.09
728.57	261.45
728.90	260.89
729.23	260.30
729.56	259.85
729.89	259.29
730.22	258.71
730.55	258.19
730.89	257.67
731.22	257.15
731.55	256.62
731.88	256.12
732.21	255.58
732.54	255.01
732.87	254.54
733.20	254.06
733.53	253.55
733.86	253.10
734.19	252.58
734.52	252.16
734.85	251.84
735.18	251.37
735.51	251.03
735.84	250.64
736.17	250.27
736.50	249.79
736.83	249.66
737.16	249.30
737.49	248.92
737.82	248.52
738.15	248.18
738.48	247.85
738.81	247.47
739.14	247.05
739.47	246.70
739.80	246.30
740.13	246.01
740.46	245.64
740.79	245.23
741.12	244.88
741.45	244.54
741.78	244.10
742.11	243.85
742.44	243.45
742.77	243.14
743.10	242.79
743.43	242.44
743.75	241.87
744.08	241.79
744.41	241.48
744.74	241.16
745.07	240.79
745.40	240.50
745.73	240.23
746.06	239.94
746.39	239.62
746.71	239.31
747.04	238.97
747.37	238.69
747.70	238.42
748.03	238.15
748.36	237.86
748.68	237.60
749.01	237.22
749.34	236.96
749.67	236.68
750.00	236.44
750.33	236.31
750.65	236.08
750.98	235.59
751.31	235.35
751.64	235.11
751.97	234.99
752.29	234.73
752.62	234.45
752.95	234.22
753.28	233.98
753.60	233.76
753.93	233.58
754.26	233.33
754.59	233.08
754.91	232.84
755.24	232.67
755.57	232.42
755.90	232.20
756.22	231.98
756.55	231.75
756.88	231.46
757.20	231.15
757.53	230.87
757.86	230.68
758.19	230.49
758.51	230.29
758.84	230.00
759.17	229.78
759.49	229.60
759.82	229.55
760.15	229.40
760.47	229.21
760.80	228.94
761.13	228.80
761.45	228.59
761.78	228.42
762.11	228.21
762.43	228.02
762.76	227.86
763.08	227.71
763.41	227.55
763.74	227.42
764.06	227.26
764.39	227.13
764.71	227.00
765.04	226.85
765.37	226.69
765.69	226.55
766.02	226.42
766.34	226.28
766.67	225.99
767.00	225.90
767.32	225.88
767.65	225.92
767.97	225.75
768.30	225.64
768.62	225.55
768.95	225.38
769.27	225.28
769.60	225.20
769.92	225.06
770.25	224.93
770.57	224.78
770.90	224.67
771.22	224.56
771.55	224.40
771.87	224.27
772.20	224.15
772.52	224.20
772.85	224.35
773.17	224.25
773.50	224.19
773.82	224.05
774.15	223.84
774.47	223.62
774.80	223.52
775.12	223.45
775.45	223.33
775.77	223.28
776.09	223.20
776.42	223.11
776.74	223.07
777.07	222.95
777.39	222.91
777.72	222.82
778.04	222.76
778.36	222.70
778.69	222.63
779.01	222.57
779.33	222.33
779.66	221.99
779.98	221.91
780.31	221.83
780.63	221.84
780.95	221.82
781.28	221.78
781.60	221.71
781.92	221.63
782.25	221.57
782.57	221.48
782.89	221.39
783.22	221.29
783.54	221.19
783.86	221.17
784.19	221.08
784.51	221.05
784.83	220.96
785.16	220.87
785.48	220.84
785.80	220.77
786.12	220.71
786.45	220.69
786.77	220.64
787.09	220.59
787.42	220.45
787.74	220.38
788.06	220.28
788.38	220.23
788.71	220.12
789.03	220.05
789.35	220.02
789.67	219.99
789.99	219.95
790.32	219.90
790.64	219.85
790.96	219.96
791.28	219.87
791.61	219.82
791.93	219.80
792.25	219.72
792.57	219.84
792.89	219.77
793.21	219.73
793.54	219.67
793.86	219.62
794.18	219.58
794.50	219.51
794.82	219.46
795.14	219.45
795.47	219.48
795.79	219.43
796.11	219.36
796.43	219.30
796.75	219.25
797.07	219.20
797.39	219.16
797.71	218.99
798.04	218.96
798.36	218.93
798.68	218.90
799.00	218.87
799.32	218.71
799.64	218.71
799.96	218.66
800.28	218.67
800.60	218.61
800.92	218.59
801.24	218.57
801.56	218.59
801.89	218.54
802.21	218.52
802.53	218.48
802.85	218.50
803.17	218.57
803.49	218.51
803.81	218.48
804.13	218.44
804.45	218.37
804.77	218.35
805.09	218.34
805.41	218.27
805.73	218.25
806.05	218.18
806.37	218.15
806.69	218.13
807.01	218.07
807.33	218.06
807.65	217.94
807.97	218.01
808.28	217.98
808.60	217.94
808.92	217.88
809.24	217.96
809.56	217.91
809.88	217.80
810.20	217.78
810.52	217.79
810.84	217.73
811.16	217.69
811.48	217.66
811.80	217.69
812.12	217.66
812.43	217.64
812.75	217.65
813.07	217.61
813.39	217.61
813.71	217.57
814.03	217.53
814.35	217.53
814.67	217.41
814.98	217.32
815.30	217.32
815.62	217.28
815.94	217.14
816.26	217.13
816.58	217.09
816.89	217.15
817.21	217.11
817.53	217.11
817.85	217.09
818.17	217.04
818.48	216.92
818.80	216.95
819.12	216.90
819.44	216.81
819.76	216.76
820.07	216.72
820.39	216.71
820.71	216.68
821.03	216.67
821.34	216.64
821.66	216.65
821.98	216.64
822.30	216.61
822.61	216.70
822.93	216.66
823.25	216.66
823.57	216.57
823.88	216.59
824.20	216.56
824.52	216.60
824.83	216.61
825.15	216.62
825.47	216.59
825.79	216.61
826.10	216.62
826.42	216.59
826.74	216.61
827.05	216.57
827.37	216.56
827.69	216.55
828.00	216.57
828.32	216.57
828.64	216.55
828.95	216.66
829.27	216.60
829.58	216.62
829.90	216.62
830.22	216.65
830.53	216.57
830.85	216.58
831.17	216.51
831.48	216.47
831.80	216.47
832.11	216.43
832.43	216.37
832.75	216.36
833.06	216.49
833.38	216.41
833.69	216.42
834.01	216.43
834.32	216.41
834.64	216.34
834.96	216.34
835.27	216.31
835.59	216.23
835.90	216.20
836.22	216.17
836.53	216.14
836.85	216.09
837.16	216.31
837.48	216.30
837.79	216.36
838.11	216.37
838.42	216.34
838.74	216.38
839.05	216.41
839.37	216.41
839.68	216.28
840.00	216.23
840.31	216.25
840.63	216.23
840.94	216.22
841.26	216.21
841.57	216.18
841.88	216.20
842.20	216.15
842.51	216.12
842.83	216.11
843.14	216.28
843.46	216.26
843.77	216.12
844.08	216.09
844.40	216.01
844.71	215.98
845.03	215.98
845.34	215.92
845.65	215.86
845.97	215.82
846.28	215.85
846.60	215.91
846.91	215.89
847.22	215.89
847.54	215.92
847.85	215.93
848.16	215.88
848.48	215.85
848.79	215.93
849.10	215.93
849.42	215.95
849.73	215.77
850.04	215.75
850.36	215.69
850.67	215.71
850.98	215.71
851.30	215.74
851.61	215.72
851.92	215.73
852.23	215.81
852.55	215.85
852.86	215.81
853.17	215.82
853.49	215.86
853.80	215.89
854.11	215.90
854.42	215.90
854.74	215.90
855.05	215.88
855.36	215.80
855.67	215.79
855.99	215.77
856.30	215.95
856.61	215.96
856.92	215.95
857.23	215.95
857.55	215.94
857.86	215.93
858.17	215.93
858.48	215.91
858.79	215.87
859.11	215.87
859.42	215.90
859.73	215.86
860.04	215.82
860.35	215.76
860.66	215.68
860.98	215.67
861.29	215.73
861.60	215.73
861.91	215.75
862.22	215.73
862.53	215.71
862.84	215.48
863.16	215.54
863.47	215.50
863.78	215.46
864.09	215.47
864.40	215.45
864.71	215.46
865.02	215.50
865.33	215.49
865.64	215.44
865.95	215.37
866.27	215.54
866.58	215.52
866.89	215.55
867.20	215.54
867.51	215.54
867.82	215.50
868.13	215.57
868.44	215.52
868.75	215.53
869.06	215.53
869.37	215.54
869.68	215.46
869.99	215.49
870.30	215.53
870.61	215.54
870.92	215.54
871.23	215.54
871.54	215.54
871.85	215.56
872.16	215.61
872.47	215.62
872.78	215.47
873.09	215.49
873.40	215.49
873.71	215.53
874.02	215.56
874.33	215.53
874.64	215.47
874.95	215.50
875.26	215.47
875.56	215.48
875.87	215.54
876.18	215.54
876.49	215.73
876.80	215.68
877.11	215.66
877.42	215.65
877.73	215.64
878.04	215.63
878.35	215.65
878.66	215.64
878.96	215.64
879.27	215.65
879.58	215.62
879.89	215.57
880.20	215.58
880.51	215.53
880.82	215.54
881.12	215.56
881.43	215.51
881.74	215.50
882.05	215.48
882.36	215.46
882.67	215.48
882.97	215.26
883.28	215.28
883.59	215.26
883.90	215.31
884.21	215.34
884.51	215.35
884.82	215.29
885.13	215.29
885.44	215.32
885.74	215.32
886.05	215.30
886.36	215.30
886.67	215.24
886.98	215.34
887.28	215.34
887.59	215.34
887.90	215.33
888.20	215.31
888.51	215.36
888.82	215.30
889.13	215.27
889.43	215.47
889.74	215.44
890.05	215.42
890.35	215.40
890.66	215.36
890.97	215.29
891.28	215.31
891.58	215.29
891.89	215.23
892.20	215.20
892.50	215.20
892.81	215.23
893.12	215.23
893.42	215.13
893.73	215.16
894.04	215.12
894.34	215.16
894.65	215.15
894.95	215.12
895.26	215.11
895.57	215.26
895.87	215.02
896.18	215.08
896.48	215.08
896.79	215.03
897.10	215.07
897.40	215.11
897.71	215.10
898.01	215.10
898.32	215.15
898.63	215.14
898.93	215.14
899.24	215.13
899.54	215.13
899.85	215.12
900.15	215.13
900.46	215.17
900.76	215.21
901.07	215.23
901.38	215.22
901.68	215.26
901.99	215.14
902.29	215.17
902.60	215.11
902.90	215.13
903.21	215.15
903.51	215.14
903.82	215.20
904.12	215.21
904.43	215.21
904.73	215.19
905.03	215.22
905.34	215.43
905.64	215.44
905.95	215.46
906.25	215.43
906.56	215.41
906.86	215.40
907.17	215.35
907.47	215.34
907.77	215.32
908.08	215.28
908.38	215.29
908.69	215.32
908.99	215.37
909.30	215.37
909.60	215.37
909.90	215.39
910.21	215.28
910.51	215.26
910.81	215.26
911.12	215.27
911.42	215.25
911.73	215.02
912.03	215.01
912.33	215.01
912.64	215.04
912.94	215.03
913.24	214.97
913.55	214.95
913.85	214.96
914.15	215.03
914.46	215.08
914.76	215.07
915.06	215.05
915.37	215.01
915.67	214.98
915.97	214.99
916.27	214.90
916.58	214.93
916.88	214.94
917.18	214.93
917.49	215.07
917.79	215.05
918.09	215.07
918.39	215.12
918.70	215.12
919.00	215.15
919.30	215.21
919.60	215.20
919.91	215.17
920.21	215.16
920.51	215.08
920.81	215.04
921.12	215.05
921.42	215.04
921.72	215.07
922.02	215.06
922.32	215.07
922.63	215.09
922.93	215.21
923.23	215.19
923.53	215.15
923.83	215.00
924.13	215.02
924.44	215.02
924.74	215.04
925.04	215.06
925.34	215.06
925.64	214.99
925.94	215.02
926.24	215.16
926.55	215.11
926.85	215.15
927.15	215.18
927.45	215.18
927.75	215.17
928.05	215.15
928.35	215.13
928.65	215.16
928.95	215.18
929.26	215.11
929.56	215.13
929.86	215.19
930.16	215.19
930.46	215.19
930.76	215.22
931.06	215.13
931.36	215.09
931.66	215.10
931.96	215.10
932.26	215.13
932.56	215.07
932.86	215.10
933.16	215.10
933.46	215.08
933.76	215.03
934.06	215.11
934.36	215.23
934.66	215.25
934.96	215.22
935.26	215.22
935.56	215.21
935.86	215.17
936.16	215.15
936.46	215.12
936.76	215.09
937.06	215.03
937.36	215.04
937.66	215.06
937.96	215.04
938.26	215.01
938.56	214.96
938.86	214.94
939.16	215.00
939.46	215.00
939.76	215.03
940.06	215.05
940.35	214.98
940.65	214.84
940.95	214.86
941.25	214.81
941.55	214.79
941.85	214.80
942.15	214.83
942.45	214.86
942.75	214.87
943.04	214.90
943.34	214.95
943.64	214.94
943.94	214.92
944.24	214.93
944.54	214.93
944.84	214.94
945.13	214.92
945.43	214.90
945.73	214.91
946.03	214.86
946.33	214.82
946.62	214.84
946.92	214.85
947.22	214.87
947.52	214.89
947.82	214.89
948.11	214.87
948.41	214.84
948.71	214.77
949.01	214.79
949.31	214.74
949.60	214.72
949.90	214.73
950.20	214.71
950.50	214.70
950.79	214.71
951.09	214.75
951.39	214.74
951.69	214.72
951.98	214.77
952.28	214.80
952.58	214.82
952.87	214.76
953.17	214.79
953.47	214.77
953.76	214.75
954.06	214.73
954.36	214.72
954.66	214.71
954.95	214.77
955.25	214.79
955.55	214.79
955.84	214.76
956.14	214.78
956.44	214.78
956.73	214.77
957.03	214.78
957.32	214.76
957.62	214.75
957.92	214.78
958.21	214.75
958.51	214.97
958.81	214.99
959.10	215.05
959.40	215.10
959.69	215.08
959.99	215.12
960.29	215.12
960.58	215.10
960.88	215.17
961.17	215.13
961.47	215.15
961.76	215.16
962.06	215.20
962.36	215.19
962.65	215.20
962.95	215.19
963.24	215.20
963.54	215.23
963.83	215.26
964.13	215.28
964.42	215.20
964.72	215.05
965.01	215.07
965.31	215.03
965.60	214.94
965.90	215.09
966.19	215.05
966.49	215.08
966.78	215.10
967.08	215.10
967.37	215.14
967.67	215.06
967.96	215.11
968.26	215.12
968.55	215.16
968.85	215.18
969.14	215.20
969.43	215.18
969.73	215.15
970.02	215.08
970.32	215.06
970.61	215.08
970.91	215.01
971.20	214.94
971.49	214.94
971.79	214.98
972.08	214.84
972.38	214.82
972.67	214.79
972.96	214.82
973.26	214.77
973.55	214.80
973.85	214.85
974.14	214.82
974.43	214.78
974.73	214.68
975.02	214.64
975.31	214.59
975.61	214.58
975.90	214.55
976.19	214.55
976.49	214.54
976.78	214.54
977.07	214.54
977.37	214.59
977.66	214.59
977.95	214.59
978.24	214.58
978.54	214.69
978.83	214.64
979.12	214.62
979.42	214.60
979.71	214.54
980.00	214.48
980.29	214.47
980.59	214.45
980.88	214.56
981.17	214.57
981.46	214.62
981.76	214.63
982.05	214.69
982.34	214.73
982.63	214.71
982.93	214.72
983.22	214.77
983.51	214.78
983.80	214.83
984.09	214.85
984.39	214.85
984.68	214.78
984.97	214.81
985.26	214.77
985.55	214.77
985.85	214.74
986.14	214.82
986.43	214.84
986.72	214.83
987.01	214.71
987.30	214.73
987.59	214.70
987.89	214.71
988.18	214.67
988.47	214.64
988.76	214.68
989.05	214.68
989.34	214.65
989.63	214.68
989.92	214.62
990.22	214.60
990.51	214.62
990.80	214.57
991.09	214.61
991.38	214.67
991.67	214.66
991.96	214.65
992.25	214.65
992.54	214.63
992.83	214.64
993.12	214.68
993.41	214.70
993.70	214.74
993.99	214.78
994.28	214.81
994.58	214.85
994.87	214.80
995.16	214.81
995.45	214.77
995.74	214.69
996.03	214.73
996.32	214.75
996.61	214.79
996.90	214.82
997.19	214.78
997.48	214.78
997.77	214.77
998.06	214.80
998.34	214.76
998.63	214.74
998.92	214.73
999.21	214.77
999.50	214.75
999.79	214.73
1000.08	214.73
1000.37	214.70
1000.66	214.66
1000.95	214.71
1001.24	214.71
1001.53	214.73
1001.82	214.78
1002.11	214.74
1002.40	214.77
1002.68	214.78
1002.97	214.94
1003.26	214.91
1003.55	214.89
1003.84	214.93
1004.13	215.00
1004.42	215.02
1004.71	215.05
1004.99	215.03
1005.28	215.07
1005.57	215.09
1005.86	215.04
1006.15	215.01
1006.44	215.01
1006.72	215.04
1007.01	214.99
1007.30	215.02
1007.59	215.03
1007.88	214.98
1008.17	214.99
1008.45	214.94
1008.74	214.87
1009.03	214.76
1009.32	214.76
1009.60	214.73
1009.89	214.73
1010.18	214.62
1010.47	214.59
1010.76	214.58
1011.04	214.62
1011.33	214.61
1011.62	214.61
1011.91	214.65
1012.19	214.66
1012.48	214.66
1012.77	214.67
1013.05	214.78
1013.34	214.75
1013.63	214.71
1013.92	214.74
1014.20	214.73
1014.49	214.74
1014.78	214.76
1015.06	214.70
1015.35	214.71
1015.64	214.74
1015.92	214.77
1016.21	214.82
1016.50	214.82
1016.78	214.83
1017.07	214.85
1017.36	214.80
1017.64	214.77
1017.93	214.78
1018.22	214.75
1018.50	214.74
1018.79	214.73
1019.08	214.62
1019.36	214.62
1019.65	214.65
1019.93	214.69
1020.22	214.71
1020.51	214.81
1020.79	214.77
1021.08	214.29
1021.36	214.55
1021.65	214.66
1021.94	214.47
1022.22	214.67
1022.51	214.57
1022.79	215.68
1023.08	214.68
1023.36	217.20
1023.65	214.06
>>>>>End Processed Spectral Data<<<<<
