SpectraSuite Data File
++++++++++++++++++++++++++++++++++++
Date: Tue Jan 29 16:21:19 EST 2013
User: group
Dark Spectrum Present: No
Reference Spectrum Present: No
Number of Sampled Component Spectra: 1
Spectrometers: USB2E7196
Integration Time (usec): 65000 (USB2E7196)
Spectra Averaged: 100 (USB2E7196)
Boxcar Smoothing: 10 (USB2E7196)
Correct for Electrical Dark: No (USB2E7196)
Strobe/Lamp Enabled: No (USB2E7196)
Correct for Detector Non-linearity: No (USB2E7196)
Correct for Stray Light: No (USB2E7196)
Number of Pixels in Processed Spectrum: 2048
>>>>>Begin Processed Spectral Data<<<<<
339.09	0.00
339.48	202.16
339.86	204.40
340.24	205.16
340.63	206.93
341.01	211.58
341.39	209.47
341.78	210.67
342.16	212.47
342.54	212.82
342.93	201.73
343.31	211.94
343.69	212.50
344.07	212.95
344.46	213.44
344.84	213.81
345.22	213.98
345.60	214.25
345.99	214.47
346.37	214.61
346.75	214.73
347.13	214.83
347.52	214.89
347.90	215.05
348.28	215.07
348.66	215.15
349.05	215.18
349.43	215.23
349.81	215.32
350.19	215.38
350.57	215.46
350.96	215.53
351.34	215.62
351.72	215.71
352.10	215.80
352.48	215.83
352.87	215.88
353.25	215.94
353.63	216.01
354.01	216.09
354.39	216.17
354.77	216.26
355.15	216.41
355.54	216.47
355.92	216.46
356.30	216.52
356.68	216.72
357.06	216.77
357.44	216.80
357.82	216.82
358.20	216.89
358.58	216.93
358.97	216.99
359.35	217.06
359.73	217.14
360.11	217.19
360.49	217.24
360.87	217.32
361.25	217.38
361.63	217.48
362.01	217.51
362.39	217.52
362.77	217.55
363.15	217.54
363.53	217.59
363.91	217.63
364.29	217.66
364.67	217.46
365.05	217.45
365.43	217.45
365.81	217.50
366.19	217.60
366.57	217.70
366.95	217.71
367.33	217.66
367.71	217.66
368.09	217.70
368.47	217.70
368.85	217.69
369.23	217.71
369.61	217.61
369.99	217.64
370.37	217.66
370.75	217.73
371.13	217.66
371.51	217.62
371.89	217.60
372.27	217.58
372.65	217.61
373.03	217.62
373.41	217.62
373.78	217.55
374.16	217.41
374.54	217.30
374.92	217.23
375.30	217.21
375.68	217.13
376.06	217.08
376.44	217.04
376.82	217.00
377.19	216.93
377.57	216.88
377.95	216.81
378.33	216.75
378.71	216.58
379.09	216.59
379.47	216.56
379.84	216.49
380.22	216.42
380.60	216.34
380.98	216.25
381.36	216.23
381.73	216.19
382.11	216.20
382.49	216.19
382.87	216.16
383.25	216.13
383.62	216.34
384.00	216.28
384.38	216.25
384.76	216.27
385.13	216.37
385.51	216.36
385.89	216.28
386.27	216.27
386.64	216.27
387.02	216.26
387.40	216.19
387.78	216.17
388.15	216.18
388.53	216.14
388.91	216.15
389.29	216.08
389.66	216.13
390.04	216.08
390.42	216.08
390.79	216.09
391.17	216.10
391.55	215.87
391.92	215.85
392.30	215.89
392.68	215.84
393.05	215.77
393.43	215.74
393.81	215.75
394.18	215.73
394.56	215.72
394.94	215.75
395.31	215.78
395.69	215.86
396.06	215.87
396.44	215.91
396.82	215.92
397.19	216.03
397.57	216.03
397.95	216.09
398.32	216.07
398.70	216.10
399.07	216.16
399.45	216.20
399.82	216.28
400.20	216.28
400.58	216.31
400.95	216.31
401.33	216.46
401.70	216.68
402.08	216.78
402.45	216.87
402.83	216.97
403.20	217.06
403.58	217.14
403.95	217.30
404.33	217.45
404.71	217.58
405.08	217.87
405.46	218.02
405.83	218.20
406.21	218.38
406.58	218.61
406.96	218.81
407.33	219.08
407.70	219.38
408.08	219.86
408.45	220.24
408.83	220.65
409.20	220.98
409.58	221.25
409.95	221.69
410.33	222.18
410.70	222.60
411.08	223.18
411.45	223.75
411.82	224.33
412.20	225.00
412.57	225.86
412.95	226.41
413.32	227.21
413.69	228.00
414.07	228.88
414.44	229.84
414.82	230.85
415.19	231.99
415.56	233.13
415.94	234.27
416.31	235.62
416.68	237.00
417.06	238.53
417.43	240.07
417.81	241.78
418.18	243.54
418.55	245.50
418.93	247.42
419.30	249.52
419.67	251.71
420.04	253.94
420.42	256.27
420.79	259.05
421.16	261.83
421.54	264.74
421.91	267.71
422.28	270.80
422.66	274.04
423.03	277.25
423.40	280.61
423.77	284.15
424.15	287.81
424.52	291.62
424.89	295.79
425.26	299.84
425.64	303.70
426.01	307.91
426.38	312.32
426.75	316.82
427.13	321.49
427.50	326.41
427.87	331.57
428.24	336.67
428.61	341.61
428.99	347.02
429.36	352.95
429.73	358.80
430.10	364.60
430.47	370.58
430.85	376.80
431.22	383.42
431.59	390.48
431.96	397.21
432.33	404.58
432.70	411.73
433.08	420.12
433.45	428.05
433.82	436.00
434.19	444.80
434.56	453.44
434.93	461.72
435.30	469.89
435.68	478.88
436.05	487.78
436.42	496.60
436.79	504.70
437.16	513.36
437.53	522.50
437.90	531.56
438.27	540.48
438.64	549.61
439.01	558.03
439.38	565.49
439.75	572.71
440.13	581.03
440.50	588.86
440.87	595.22
441.24	601.83
441.61	609.06
441.98	614.37
442.35	620.62
442.72	626.84
443.09	632.79
443.46	636.54
443.83	639.01
444.20	641.13
444.57	644.20
444.94	645.63
445.31	647.04
445.68	648.37
446.05	648.99
446.42	648.15
446.79	647.19
447.16	646.17
447.53	645.44
447.90	642.19
448.27	638.95
448.64	634.39
449.01	631.07
449.37	625.22
449.74	619.61
450.11	612.77
450.48	605.41
450.85	598.12
451.22	591.72
451.59	585.65
451.96	579.90
452.33	572.14
452.70	565.18
453.07	556.78
453.43	548.27
453.80	540.01
454.17	532.22
454.54	524.84
454.91	516.75
455.28	508.86
455.65	501.50
456.02	494.11
456.38	487.87
456.75	480.07
457.12	473.59
457.49	467.18
457.86	461.07
458.23	455.78
458.59	449.91
458.96	443.98
459.33	438.76
459.70	433.49
460.07	429.26
460.43	424.40
460.80	419.92
461.17	416.00
461.54	411.88
461.91	407.86
462.27	403.71
462.64	400.33
463.01	396.59
463.38	392.95
463.74	389.25
464.11	385.96
464.48	383.20
464.85	380.15
465.21	377.69
465.58	375.06
465.95	371.96
466.32	369.35
466.68	366.79
467.05	364.24
467.42	361.73
467.78	359.10
468.15	356.57
468.52	354.66
468.88	352.20
469.25	350.04
469.62	348.27
469.98	346.35
470.35	344.55
470.72	342.88
471.08	341.12
471.45	339.67
471.82	338.22
472.18	336.57
472.55	335.37
472.92	334.02
473.28	332.83
473.65	331.75
474.02	330.64
474.38	329.77
474.75	329.00
475.11	328.20
475.48	327.65
475.85	327.22
476.21	326.76
476.58	326.41
476.94	326.18
477.31	325.86
477.67	325.67
478.04	325.54
478.41	325.48
478.77	325.63
479.14	325.57
479.50	325.70
479.87	326.01
480.23	326.31
480.60	326.56
480.96	326.87
481.33	327.41
481.69	327.99
482.06	328.52
482.42	329.03
482.79	329.60
483.15	330.42
483.52	331.35
483.88	332.26
484.25	333.23
484.61	334.24
484.98	335.32
485.34	336.60
485.71	337.99
486.07	339.43
486.44	340.77
486.80	342.41
487.17	344.07
487.53	345.91
487.90	347.82
488.26	349.90
488.62	352.09
488.99	354.18
489.35	356.35
489.72	358.76
490.08	361.29
490.44	363.93
490.81	366.60
491.17	369.28
491.54	372.29
491.90	375.36
492.26	378.60
492.63	382.05
492.99	385.55
493.36	389.21
493.72	393.08
494.08	397.10
494.45	401.30
494.81	405.68
495.17	410.19
495.54	414.88
495.90	419.69
496.26	424.66
496.63	429.91
496.99	435.34
497.35	440.96
497.72	446.82
498.08	452.78
498.44	458.93
498.80	465.42
499.17	471.90
499.53	478.63
499.89	485.58
500.26	492.58
500.62	499.68
500.98	507.14
501.34	514.65
501.71	522.44
502.07	530.26
502.43	538.33
502.79	546.45
503.16	554.98
503.52	563.63
503.88	572.33
504.24	581.35
504.60	590.45
504.97	599.72
505.33	609.05
505.69	618.94
506.05	628.86
506.41	638.77
506.78	648.85
507.14	659.10
507.50	669.63
507.86	680.44
508.22	691.31
508.59	702.02
508.95	713.22
509.31	724.53
509.67	736.17
510.03	747.74
510.39	759.60
510.75	771.45
511.12	783.49
511.48	795.69
511.84	807.92
512.20	820.36
512.56	833.08
512.92	846.00
513.28	858.70
513.64	871.47
514.00	884.32
514.37	897.45
514.73	910.70
515.09	923.73
515.45	936.64
515.81	949.74
516.17	963.30
516.53	976.59
516.89	989.76
517.25	1002.98
517.61	1016.43
517.97	1029.84
518.33	1043.08
518.69	1056.62
519.05	1070.45
519.41	1084.23
519.77	1098.20
520.13	1111.61
520.49	1124.80
520.85	1138.31
521.21	1151.78
521.57	1165.65
521.93	1178.77
522.29	1192.50
522.65	1206.20
523.01	1219.94
523.37	1233.27
523.73	1246.53
524.09	1259.75
524.45	1273.25
524.81	1286.77
525.17	1300.28
525.53	1313.60
525.89	1326.98
526.25	1340.15
526.61	1353.08
526.97	1366.25
527.33	1379.24
527.68	1392.68
528.04	1406.15
528.40	1419.26
528.76	1432.63
529.12	1445.49
529.48	1458.81
529.84	1471.29
530.20	1484.07
530.56	1496.70
530.91	1509.96
531.27	1522.90
531.63	1535.79
531.99	1548.59
532.35	1560.87
532.71	1573.30
533.07	1586.12
533.42	1598.45
533.78	1610.52
534.14	1622.61
534.50	1633.93
534.86	1645.48
535.21	1656.41
535.57	1667.93
535.93	1679.23
536.29	1690.34
536.65	1701.77
537.00	1712.79
537.36	1724.13
537.72	1735.12
538.08	1746.47
538.44	1757.52
538.79	1768.53
539.15	1779.19
539.51	1789.89
539.87	1801.20
540.22	1811.94
540.58	1822.86
540.94	1833.76
541.29	1844.11
541.65	1853.86
542.01	1864.36
542.37	1874.49
542.72	1884.61
543.08	1894.49
543.44	1904.97
543.79	1914.35
544.15	1923.87
544.51	1933.85
544.87	1943.76
545.22	1952.97
545.58	1961.79
545.94	1970.65
546.29	1979.15
546.65	1987.63
547.01	1995.97
547.36	2003.62
547.72	2011.53
548.07	2019.20
548.43	2026.73
548.79	2034.62
549.14	2042.75
549.50	2051.10
549.86	2059.00
550.21	2066.44
550.57	2074.18
550.92	2080.95
551.28	2088.36
551.64	2095.67
551.99	2103.30
552.35	2110.35
552.70	2117.28
553.06	2124.00
553.41	2130.28
553.77	2136.82
554.13	2143.28
554.48	2150.32
554.84	2157.55
555.19	2163.98
555.55	2170.31
555.90	2176.80
556.26	2183.72
556.61	2189.90
556.97	2194.72
557.32	2200.56
557.68	2207.14
558.03	2212.91
558.39	2218.27
558.74	2224.20
559.10	2229.74
559.45	2235.22
559.81	2240.73
560.16	2246.33
560.52	2252.36
560.87	2258.83
561.23	2264.89
561.58	2271.49
561.94	2276.74
562.29	2281.55
562.64	2287.78
563.00	2293.59
563.35	2299.25
563.71	2304.97
564.06	2310.60
564.42	2316.78
564.77	2321.91
565.12	2326.98
565.48	2332.20
565.83	2337.79
566.19	2343.42
566.54	2348.97
566.89	2353.77
567.25	2358.60
567.60	2364.44
567.96	2369.73
568.31	2374.26
568.66	2378.60
569.02	2382.69
569.37	2386.54
569.72	2390.93
570.08	2394.45
570.43	2397.54
570.78	2400.65
571.14	2403.38
571.49	2406.60
571.84	2410.08
572.20	2413.04
572.55	2416.16
572.90	2418.62
573.26	2421.58
573.61	2424.20
573.96	2426.34
574.31	2428.45
574.67	2430.42
575.02	2431.37
575.37	2432.81
575.72	2433.64
576.08	2435.22
576.43	2435.38
576.78	2436.01
577.13	2437.81
577.49	2438.96
577.84	2440.29
578.19	2441.72
578.54	2442.24
578.90	2443.14
579.25	2443.23
579.60	2443.33
579.95	2442.77
580.30	2442.93
580.66	2442.30
581.01	2440.72
581.36	2438.54
581.71	2437.13
582.06	2436.09
582.42	2435.27
582.77	2433.20
583.12	2431.84
583.47	2430.52
583.82	2430.24
584.17	2429.10
584.53	2426.93
584.88	2425.06
585.23	2423.21
585.58	2421.11
585.93	2419.21
586.28	2417.08
586.63	2414.70
586.98	2412.60
587.34	2410.73
587.69	2408.35
588.04	2406.49
588.39	2405.03
588.74	2402.58
589.09	2399.92
589.44	2396.85
589.79	2394.44
590.14	2392.50
590.49	2389.63
590.84	2385.91
591.19	2382.74
591.54	2379.45
591.89	2375.62
592.25	2372.57
592.60	2368.29
592.95	2364.17
593.30	2360.05
593.65	2355.80
594.00	2351.41
594.35	2348.26
594.70	2343.75
595.05	2339.07
595.40	2333.58
595.75	2327.85
596.10	2324.30
596.45	2319.55
596.80	2314.93
597.15	2309.54
597.50	2303.62
597.85	2298.79
598.19	2293.58
598.54	2287.85
598.89	2282.80
599.24	2278.25
599.59	2271.91
599.94	2266.25
600.29	2260.36
600.64	2254.49
600.99	2247.73
601.34	2242.27
601.69	2235.25
602.04	2228.82
602.39	2222.26
602.74	2216.18
603.08	2210.88
603.43	2204.43
603.78	2197.71
604.13	2190.74
604.48	2183.60
604.83	2177.49
605.18	2171.20
605.53	2164.22
605.87	2157.06
606.22	2150.29
606.57	2142.40
606.92	2134.50
607.27	2127.59
607.62	2120.88
607.96	2113.88
608.31	2107.32
608.66	2099.39
609.01	2091.94
609.36	2084.74
609.70	2077.06
610.05	2069.22
610.40	2060.75
610.75	2052.26
611.10	2044.46
611.44	2035.48
611.79	2026.66
612.14	2016.66
612.49	2005.89
612.83	1996.52
613.18	1987.41
613.53	1977.89
613.88	1968.12
614.22	1959.41
614.57	1949.43
614.92	1938.71
615.27	1928.35
615.61	1918.19
615.96	1908.58
616.31	1898.83
616.65	1889.44
617.00	1879.57
617.35	1869.75
617.70	1859.94
618.04	1849.81
618.39	1839.51
618.74	1829.69
619.08	1820.06
619.43	1811.27
619.78	1802.94
620.12	1794.29
620.47	1784.49
620.82	1773.98
621.16	1764.09
621.51	1754.05
621.85	1744.15
622.20	1733.85
622.55	1723.25
622.89	1713.17
623.24	1703.25
623.59	1693.39
623.93	1683.01
624.28	1673.17
624.62	1663.09
624.97	1652.60
625.32	1642.81
625.66	1633.77
626.01	1625.04
626.35	1615.60
626.70	1605.46
627.04	1595.36
627.39	1585.11
627.73	1575.65
628.08	1566.70
628.43	1557.07
628.77	1547.81
629.12	1538.80
629.46	1530.69
629.81	1522.23
630.15	1512.66
630.50	1502.80
630.84	1492.15
631.19	1482.18
631.53	1472.78
631.88	1462.49
632.22	1452.42
632.57	1442.99
632.91	1432.71
633.26	1422.65
633.60	1412.83
633.95	1403.41
634.29	1393.76
634.64	1384.19
634.98	1374.20
635.32	1364.72
635.67	1356.09
636.01	1346.77
636.36	1336.82
636.70	1327.17
637.05	1317.61
637.39	1308.54
637.73	1299.88
638.08	1292.27
638.42	1284.02
638.77	1275.03
639.11	1266.64
639.45	1258.78
639.80	1250.00
640.14	1241.29
640.49	1232.28
640.83	1223.30
641.17	1214.99
641.52	1206.70
641.86	1198.09
642.20	1190.07
642.55	1181.39
642.89	1172.41
643.23	1163.63
643.58	1155.46
643.92	1146.37
644.26	1137.62
644.61	1129.04
644.95	1120.12
645.29	1110.71
645.64	1101.36
645.98	1092.82
646.32	1084.80
646.66	1076.11
647.01	1067.66
647.35	1059.38
647.69	1050.95
648.04	1042.67
648.38	1033.66
648.72	1024.79
649.06	1016.26
649.41	1007.96
649.75	999.93
650.09	991.96
650.43	983.76
650.78	975.31
651.12	967.60
651.46	960.13
651.80	952.84
652.14	945.50
652.49	937.92
652.83	930.45
653.17	922.64
653.51	914.90
653.85	907.56
654.20	900.21
654.54	892.61
654.88	885.29
655.22	877.93
655.56	870.83
655.90	863.97
656.25	857.23
656.59	850.26
656.93	843.01
657.27	835.85
657.61	828.79
657.95	822.62
658.29	816.59
658.64	810.40
658.98	803.80
659.32	797.13
659.66	790.78
660.00	784.44
660.34	778.33
660.68	772.14
661.02	765.73
661.36	759.77
661.70	753.83
662.05	748.11
662.39	742.57
662.73	737.13
663.07	731.66
663.41	725.95
663.75	720.17
664.09	714.53
664.43	709.00
664.77	703.69
665.11	697.82
665.45	691.81
665.79	685.83
666.13	680.09
666.47	674.50
666.81	669.05
667.15	663.65
667.49	658.41
667.83	653.11
668.17	647.85
668.51	642.64
668.85	637.73
669.19	632.80
669.53	627.69
669.87	622.51
670.21	617.71
670.55	612.96
670.89	608.50
671.23	604.19
671.57	599.71
671.91	595.26
672.25	591.11
672.58	586.98
672.92	582.98
673.26	579.03
673.60	575.08
673.94	571.24
674.28	567.53
674.62	563.73
674.96	559.94
675.30	556.39
675.64	552.73
675.97	549.15
676.31	545.48
676.65	541.85
676.99	538.41
677.33	534.54
677.67	530.89
678.01	526.93
678.34	523.22
678.68	519.63
679.02	516.00
679.36	512.23
679.70	508.48
680.04	504.81
680.37	501.37
680.71	498.00
681.05	494.75
681.39	491.49
681.73	488.26
682.06	485.23
682.40	482.10
682.74	478.79
683.08	475.51
683.42	472.31
683.75	469.34
684.09	466.24
684.43	463.39
684.77	460.42
685.10	457.56
685.44	454.60
685.78	451.68
686.12	448.92
686.45	446.22
686.79	443.57
687.13	441.02
687.46	438.32
687.80	435.65
688.14	432.78
688.48	430.13
688.81	427.48
689.15	424.84
689.49	422.16
689.82	419.65
690.16	417.01
690.50	414.51
690.83	411.97
691.17	409.48
691.51	406.99
691.84	404.71
692.18	402.48
692.52	400.26
692.85	398.13
693.19	395.95
693.52	393.75
693.86	391.51
694.20	389.37
694.53	387.23
694.87	385.04
695.21	382.86
695.54	380.64
695.88	378.43
696.21	376.20
696.55	374.09
696.88	372.01
697.22	370.03
697.56	368.13
697.89	366.21
698.23	364.41
698.56	362.59
698.90	360.80
699.23	358.91
699.57	356.99
699.90	355.10
700.24	353.29
700.58	351.47
700.91	349.80
701.25	348.19
701.58	346.55
701.92	344.98
702.25	343.41
702.59	341.82
702.92	340.31
703.26	338.71
703.59	337.23
703.93	335.97
704.26	334.55
704.60	333.02
704.93	331.56
705.26	330.06
705.60	328.54
705.93	327.03
706.27	325.69
706.60	324.47
706.94	323.22
707.27	321.81
707.61	320.50
707.94	319.16
708.27	317.63
708.61	316.20
708.94	314.79
709.28	313.48
709.61	312.18
709.94	310.96
710.28	309.80
710.61	308.64
710.95	307.21
711.28	306.11
711.61	304.96
711.95	303.80
712.28	302.60
712.61	301.43
712.95	300.38
713.28	299.31
713.61	298.15
713.95	297.01
714.28	295.99
714.61	294.90
714.95	293.87
715.28	292.81
715.61	291.81
715.95	290.81
716.28	289.85
716.61	288.92
716.95	287.91
717.28	286.95
717.61	285.99
717.94	285.11
718.28	284.07
718.61	283.17
718.94	282.27
719.27	281.41
719.61	280.60
719.94	279.70
720.27	278.75
720.60	277.91
720.94	277.06
721.27	276.30
721.60	275.62
721.93	274.83
722.27	274.22
722.60	273.52
722.93	272.83
723.26	272.13
723.59	271.42
723.93	270.81
724.26	270.15
724.59	269.45
724.92	268.82
725.25	268.31
725.59	267.73
725.92	267.20
726.25	266.66
726.58	266.08
726.91	265.46
727.24	264.92
727.57	264.33
727.91	263.72
728.24	263.19
728.57	262.60
728.90	262.09
729.23	261.44
729.56	261.00
729.89	260.45
730.22	259.91
730.55	259.37
730.89	258.79
731.22	258.25
731.55	257.74
731.88	257.22
732.21	256.67
732.54	256.15
732.87	255.64
733.20	255.13
733.53	254.64
733.86	254.23
734.19	253.72
734.52	253.31
734.85	253.04
735.18	252.58
735.51	252.22
735.84	251.80
736.17	251.41
736.50	250.90
736.83	250.77
737.16	250.39
737.49	249.96
737.82	249.56
738.15	249.22
738.48	248.84
738.81	248.42
739.14	247.98
739.47	247.60
739.80	247.21
740.13	246.84
740.46	246.46
740.79	246.02
741.12	245.70
741.45	245.30
741.78	244.83
742.11	244.55
742.44	244.13
742.77	243.81
743.10	243.45
743.43	243.09
743.75	242.52
744.08	242.41
744.41	242.10
744.74	241.76
745.07	241.37
745.40	241.10
745.73	240.87
746.06	240.57
746.39	240.24
746.71	239.90
747.04	239.53
747.37	239.19
747.70	238.96
748.03	238.64
748.36	238.35
748.68	238.07
749.01	237.66
749.34	237.35
749.67	237.05
750.00	236.81
750.33	236.69
750.65	236.40
750.98	235.90
751.31	235.67
751.64	235.45
751.97	235.31
752.29	235.03
752.62	234.70
752.95	234.47
753.28	234.19
753.60	233.98
753.93	233.83
754.26	233.62
754.59	233.34
754.91	233.12
755.24	232.90
755.57	232.63
755.90	232.45
756.22	232.24
756.55	232.01
756.88	231.76
757.20	231.39
757.53	231.11
757.86	230.91
758.19	230.70
758.51	230.49
758.84	230.18
759.17	229.94
759.49	229.76
759.82	229.68
760.15	229.54
760.47	229.36
760.80	229.11
761.13	228.97
761.45	228.75
761.78	228.53
762.11	228.32
762.43	228.18
762.76	228.01
763.08	227.86
763.41	227.69
763.74	227.52
764.06	227.37
764.39	227.27
764.71	227.12
765.04	226.95
765.37	226.78
765.69	226.64
766.02	226.50
766.34	226.35
766.67	226.09
767.00	225.99
767.32	225.95
767.65	225.93
767.97	225.77
768.30	225.69
768.62	225.60
768.95	225.47
769.27	225.34
769.60	225.23
769.92	225.10
770.25	224.97
770.57	224.86
770.90	224.74
771.22	224.58
771.55	224.44
771.87	224.31
772.20	224.15
772.52	224.22
772.85	224.39
773.17	224.30
773.50	224.18
773.82	224.03
774.15	223.82
774.47	223.59
774.80	223.48
775.12	223.36
775.45	223.25
775.77	223.18
776.09	223.07
776.42	223.01
776.74	222.95
777.07	222.83
777.39	222.78
777.72	222.67
778.04	222.59
778.36	222.52
778.69	222.49
779.01	222.45
779.33	222.19
779.66	221.86
779.98	221.75
780.31	221.71
780.63	221.73
780.95	221.70
781.28	221.64
781.60	221.53
781.92	221.50
782.25	221.40
782.57	221.34
782.89	221.29
783.22	221.14
783.54	221.05
783.86	221.04
784.19	220.91
784.51	220.92
784.83	220.86
785.16	220.77
785.48	220.70
785.80	220.66
786.12	220.62
786.45	220.61
786.77	220.56
787.09	220.47
787.42	220.31
787.74	220.26
788.06	220.21
788.38	220.18
788.71	220.04
789.03	220.02
789.35	220.02
789.67	219.93
789.99	219.93
790.32	219.87
790.64	219.84
790.96	219.99
791.28	219.86
791.61	219.82
791.93	219.81
792.25	219.75
792.57	219.83
792.89	219.73
793.21	219.67
793.54	219.61
793.86	219.56
794.18	219.56
794.50	219.46
794.82	219.43
795.14	219.41
795.47	219.45
795.79	219.43
796.11	219.30
796.43	219.25
796.75	219.21
797.07	219.16
797.39	219.12
797.71	218.94
798.04	218.94
798.36	218.92
798.68	218.87
799.00	218.84
799.32	218.72
799.64	218.74
799.96	218.67
800.28	218.67
800.60	218.60
800.92	218.60
801.24	218.55
801.56	218.52
801.89	218.45
802.21	218.42
802.53	218.34
802.85	218.38
803.17	218.48
803.49	218.39
803.81	218.34
804.13	218.27
804.45	218.19
804.77	218.18
805.09	218.12
805.41	218.07
805.73	218.00
806.05	217.92
806.37	217.90
806.69	217.86
807.01	217.83
807.33	217.82
807.65	217.69
807.97	217.75
808.28	217.70
808.60	217.67
808.92	217.61
809.24	217.70
809.56	217.66
809.88	217.53
810.20	217.55
810.52	217.60
810.84	217.55
811.16	217.51
811.48	217.46
811.80	217.54
812.12	217.49
812.43	217.52
812.75	217.51
813.07	217.43
813.39	217.41
813.71	217.37
814.03	217.34
814.35	217.32
814.67	217.22
814.98	217.18
815.30	217.13
815.62	217.08
815.94	216.92
816.26	216.89
816.58	216.85
816.89	216.81
817.21	216.73
817.53	216.74
817.85	216.70
818.17	216.68
818.48	216.56
818.80	216.59
819.12	216.53
819.44	216.48
819.76	216.45
820.07	216.42
820.39	216.41
820.71	216.42
821.03	216.42
821.34	216.41
821.66	216.45
821.98	216.46
822.30	216.45
822.61	216.58
822.93	216.54
823.25	216.49
823.57	216.45
823.88	216.48
824.20	216.43
824.52	216.48
824.83	216.44
825.15	216.42
825.47	216.41
825.79	216.42
826.10	216.40
826.42	216.38
826.74	216.41
827.05	216.39
827.37	216.39
827.69	216.36
828.00	216.34
828.32	216.31
828.64	216.31
828.95	216.41
829.27	216.35
829.58	216.36
829.90	216.40
830.22	216.42
830.53	216.36
830.85	216.35
831.17	216.29
831.48	216.29
831.80	216.29
832.11	216.27
832.43	216.23
832.75	216.21
833.06	216.36
833.38	216.28
833.69	216.28
834.01	216.27
834.32	216.27
834.64	216.27
834.96	216.29
835.27	216.28
835.59	216.21
835.90	216.13
836.22	216.10
836.53	216.06
836.85	216.02
837.16	216.23
837.48	216.20
837.79	216.26
838.11	216.25
838.42	216.22
838.74	216.24
839.05	216.22
839.37	216.25
839.68	216.07
840.00	216.06
840.31	216.08
840.63	216.05
840.94	216.03
841.26	216.01
841.57	216.00
841.88	215.96
842.20	215.91
842.51	215.91
842.83	215.88
843.14	216.04
843.46	216.03
843.77	215.88
844.08	215.89
844.40	215.82
844.71	215.81
845.03	215.78
845.34	215.73
845.65	215.72
845.97	215.69
846.28	215.72
846.60	215.71
846.91	215.64
847.22	215.65
847.54	215.69
847.85	215.65
848.16	215.61
848.48	215.58
848.79	215.68
849.10	215.69
849.42	215.69
849.73	215.49
850.04	215.50
850.36	215.46
850.67	215.49
850.98	215.46
851.30	215.47
851.61	215.46
851.92	215.49
852.23	215.57
852.55	215.56
852.86	215.59
853.17	215.59
853.49	215.64
853.80	215.65
854.11	215.66
854.42	215.68
854.74	215.68
855.05	215.70
855.36	215.55
855.67	215.55
855.99	215.56
856.30	215.79
856.61	215.77
856.92	215.78
857.23	215.73
857.55	215.72
857.86	215.72
858.17	215.77
858.48	215.70
858.79	215.63
859.11	215.67
859.42	215.65
859.73	215.63
860.04	215.65
860.35	215.56
860.66	215.51
860.98	215.50
861.29	215.48
861.60	215.45
861.91	215.52
862.22	215.48
862.53	215.43
862.84	215.21
863.16	215.26
863.47	215.19
863.78	215.22
864.09	215.24
864.40	215.23
864.71	215.21
865.02	215.25
865.33	215.20
865.64	215.14
865.95	215.13
866.27	215.29
866.58	215.23
866.89	215.30
867.20	215.27
867.51	215.25
867.82	215.24
868.13	215.33
868.44	215.27
868.75	215.31
869.06	215.32
869.37	215.35
869.68	215.28
869.99	215.30
870.30	215.27
870.61	215.29
870.92	215.22
871.23	215.21
871.54	215.24
871.85	215.33
872.16	215.35
872.47	215.31
872.78	215.16
873.09	215.21
873.40	215.17
873.71	215.21
874.02	215.21
874.33	215.21
874.64	215.14
874.95	215.18
875.26	215.11
875.56	215.12
875.87	215.08
876.18	215.12
876.49	215.34
876.80	215.32
877.11	215.29
877.42	215.34
877.73	215.33
878.04	215.31
878.35	215.30
878.66	215.28
878.96	215.32
879.27	215.28
879.58	215.27
879.89	215.24
880.20	215.30
880.51	215.31
880.82	215.29
881.12	215.29
881.43	215.25
881.74	215.24
882.05	215.22
882.36	215.27
882.67	215.25
882.97	215.00
883.28	214.99
883.59	214.98
883.90	214.99
884.21	214.98
884.51	214.94
884.82	214.91
885.13	214.90
885.44	214.87
885.74	214.87
886.05	214.84
886.36	214.85
886.67	214.76
886.98	214.83
887.28	214.85
887.59	214.86
887.90	214.84
888.20	214.87
888.51	214.90
888.82	214.85
889.13	214.86
889.43	215.07
889.74	215.07
890.05	215.06
890.35	215.06
890.66	215.03
890.97	215.01
891.28	215.01
891.58	215.03
891.89	215.01
892.20	215.02
892.50	215.01
892.81	215.01
893.12	215.03
893.42	214.94
893.73	214.96
894.04	214.96
894.34	215.00
894.65	214.99
894.95	214.97
895.26	214.97
895.57	215.07
895.87	214.85
896.18	214.87
896.48	214.88
896.79	214.87
897.10	214.90
897.40	214.89
897.71	214.90
898.01	214.87
898.32	214.92
898.63	214.91
898.93	214.94
899.24	214.95
899.54	214.90
899.85	214.92
900.15	214.90
900.46	214.91
900.76	214.92
901.07	214.91
901.38	214.91
901.68	214.92
901.99	214.78
902.29	214.82
902.60	214.81
902.90	214.79
903.21	214.78
903.51	214.78
903.82	214.85
904.12	214.88
904.43	214.92
904.73	214.90
905.03	214.89
905.34	215.07
905.64	215.05
905.95	215.08
906.25	215.06
906.56	215.08
906.86	215.09
907.17	215.09
907.47	215.09
907.77	215.05
908.08	215.01
908.38	215.03
908.69	215.03
908.99	215.05
909.30	215.06
909.60	215.06
909.90	215.05
910.21	214.99
910.51	214.95
910.81	214.92
911.12	214.93
911.42	214.93
911.73	214.71
912.03	214.72
912.33	214.75
912.64	214.73
912.94	214.70
913.24	214.64
913.55	214.63
913.85	214.61
914.15	214.67
914.46	214.70
914.76	214.70
915.06	214.69
915.37	214.69
915.67	214.71
915.97	214.72
916.27	214.70
916.58	214.74
916.88	214.71
917.18	214.75
917.49	214.86
917.79	214.86
918.09	214.92
918.39	214.98
918.70	214.96
919.00	215.00
919.30	215.10
919.60	215.11
919.91	215.09
920.21	215.14
920.51	215.10
920.81	215.08
921.12	215.10
921.42	215.07
921.72	215.07
922.02	215.08
922.32	215.08
922.63	215.09
922.93	215.16
923.23	215.18
923.53	215.15
923.83	215.03
924.13	215.04
924.44	215.00
924.74	215.04
925.04	215.06
925.34	215.04
925.64	214.94
925.94	214.94
926.24	215.03
926.55	214.99
926.85	215.00
927.15	215.01
927.45	215.01
927.75	215.02
928.05	215.00
928.35	214.96
928.65	215.01
928.95	215.02
929.26	214.93
929.56	214.96
929.86	214.96
930.16	214.94
930.46	214.94
930.76	214.94
931.06	214.85
931.36	214.83
931.66	214.86
931.96	214.86
932.26	214.89
932.56	214.78
932.86	214.78
933.16	214.81
933.46	214.77
933.76	214.73
934.06	214.79
934.36	214.84
934.66	214.83
934.96	214.80
935.26	214.80
935.56	214.84
935.86	214.78
936.16	214.77
936.46	214.78
936.76	214.77
937.06	214.75
937.36	214.76
937.66	214.74
937.96	214.74
938.26	214.72
938.56	214.69
938.86	214.71
939.16	214.78
939.46	214.80
939.76	214.84
940.06	214.87
940.35	214.83
940.65	214.74
940.95	214.77
941.25	214.74
941.55	214.72
941.85	214.68
942.15	214.69
942.45	214.71
942.75	214.70
943.04	214.73
943.34	214.78
943.64	214.74
943.94	214.73
944.24	214.71
944.54	214.74
944.84	214.75
945.13	214.72
945.43	214.66
945.73	214.61
946.03	214.56
946.33	214.53
946.62	214.50
946.92	214.49
947.22	214.51
947.52	214.50
947.82	214.51
948.11	214.52
948.41	214.51
948.71	214.46
949.01	214.46
949.31	214.39
949.60	214.40
949.90	214.44
950.20	214.41
950.50	214.37
950.79	214.33
951.09	214.37
951.39	214.36
951.69	214.35
951.98	214.38
952.28	214.41
952.58	214.42
952.87	214.44
953.17	214.46
953.47	214.43
953.76	214.44
954.06	214.42
954.36	214.39
954.66	214.40
954.95	214.48
955.25	214.52
955.55	214.59
955.84	214.53
956.14	214.52
956.44	214.55
956.73	214.53
957.03	214.55
957.32	214.53
957.62	214.52
957.92	214.55
958.21	214.54
958.51	214.77
958.81	214.76
959.10	214.80
959.40	214.84
959.69	214.85
959.99	214.86
960.29	214.86
960.58	214.85
960.88	214.94
961.17	214.90
961.47	214.87
961.76	214.84
962.06	214.87
962.36	214.83
962.65	214.85
962.95	214.91
963.24	214.89
963.54	214.89
963.83	214.92
964.13	214.92
964.42	214.87
964.72	214.69
965.01	214.73
965.31	214.70
965.60	214.67
965.90	214.78
966.19	214.76
966.49	214.78
966.78	214.78
967.08	214.75
967.37	214.74
967.67	214.72
967.96	214.75
968.26	214.76
968.55	214.83
968.85	214.81
969.14	214.81
969.43	214.82
969.73	214.80
970.02	214.79
970.32	214.79
970.61	214.83
970.91	214.79
971.20	214.72
971.49	214.71
971.79	214.68
972.08	214.56
972.38	214.56
972.67	214.52
972.96	214.57
973.26	214.53
973.55	214.59
973.85	214.55
974.14	214.54
974.43	214.55
974.73	214.49
975.02	214.48
975.31	214.46
975.61	214.45
975.90	214.43
976.19	214.43
976.49	214.42
976.78	214.39
977.07	214.37
977.37	214.41
977.66	214.43
977.95	214.45
978.24	214.44
978.54	214.50
978.83	214.53
979.12	214.50
979.42	214.49
979.71	214.46
980.00	214.45
980.29	214.45
980.59	214.40
980.88	214.48
981.17	214.49
981.46	214.50
981.76	214.51
982.05	214.60
982.34	214.60
982.63	214.60
982.93	214.61
983.22	214.71
983.51	214.70
983.80	214.72
984.09	214.77
984.39	214.75
984.68	214.71
984.97	214.71
985.26	214.70
985.55	214.70
985.85	214.67
986.14	214.75
986.43	214.78
986.72	214.80
987.01	214.73
987.30	214.71
987.59	214.69
987.89	214.71
988.18	214.63
988.47	214.58
988.76	214.56
989.05	214.55
989.34	214.48
989.63	214.53
989.92	214.50
990.22	214.47
990.51	214.45
990.80	214.46
991.09	214.49
991.38	214.55
991.67	214.53
991.96	214.51
992.25	214.49
992.54	214.41
992.83	214.39
993.12	214.43
993.41	214.47
993.70	214.59
993.99	214.59
994.28	214.62
994.58	214.68
994.87	214.67
995.16	214.68
995.45	214.69
995.74	214.62
996.03	214.65
996.32	214.66
996.61	214.71
996.90	214.70
997.19	214.71
997.48	214.68
997.77	214.62
998.06	214.65
998.34	214.64
998.63	214.65
998.92	214.65
999.21	214.64
999.50	214.65
999.79	214.53
1000.08	214.53
1000.37	214.53
1000.66	214.50
1000.95	214.54
1001.24	214.54
1001.53	214.54
1001.82	214.57
1002.11	214.53
1002.40	214.56
1002.68	214.62
1002.97	214.74
1003.26	214.68
1003.55	214.68
1003.84	214.76
1004.13	214.82
1004.42	214.79
1004.71	214.83
1004.99	214.82
1005.28	214.84
1005.57	214.83
1005.86	214.83
1006.15	214.80
1006.44	214.78
1006.72	214.81
1007.01	214.76
1007.30	214.76
1007.59	214.76
1007.88	214.75
1008.17	214.75
1008.45	214.70
1008.74	214.61
1009.03	214.51
1009.32	214.51
1009.60	214.49
1009.89	214.45
1010.18	214.35
1010.47	214.35
1010.76	214.33
1011.04	214.35
1011.33	214.36
1011.62	214.36
1011.91	214.36
1012.19	214.37
1012.48	214.40
1012.77	214.40
1013.05	214.52
1013.34	214.53
1013.63	214.51
1013.92	214.51
1014.20	214.50
1014.49	214.53
1014.78	214.55
1015.06	214.49
1015.35	214.49
1015.64	214.54
1015.92	214.58
1016.21	214.58
1016.50	214.61
1016.78	214.64
1017.07	214.61
1017.36	214.57
1017.64	214.57
1017.93	214.60
1018.22	214.59
1018.50	214.56
1018.79	214.54
1019.08	214.44
1019.36	214.44
1019.65	214.45
1019.93	214.52
1020.22	214.56
1020.51	214.63
1020.79	214.60
1021.08	214.24
1021.36	214.01
1021.65	214.31
1021.94	214.58
1022.22	214.68
1022.51	214.54
1022.79	215.66
1023.08	214.87
1023.36	216.57
1023.65	214.10
>>>>>End Processed Spectral Data<<<<<
