SpectraSuite Data File
++++++++++++++++++++++++++++++++++++
Date: Tue Jan 29 16:52:20 EST 2013
User: group
Dark Spectrum Present: No
Reference Spectrum Present: No
Number of Sampled Component Spectra: 1
Spectrometers: USB2E7196
Integration Time (usec): 65000 (USB2E7196)
Spectra Averaged: 100 (USB2E7196)
Boxcar Smoothing: 10 (USB2E7196)
Correct for Electrical Dark: No (USB2E7196)
Strobe/Lamp Enabled: No (USB2E7196)
Correct for Detector Non-linearity: No (USB2E7196)
Correct for Stray Light: No (USB2E7196)
Number of Pixels in Processed Spectrum: 2048
>>>>>Begin Processed Spectral Data<<<<<
339.09	0.00
339.48	201.70
339.86	203.01
340.24	204.51
340.63	205.13
341.01	210.64
341.39	208.57
341.78	209.74
342.16	211.36
342.54	211.03
342.93	200.57
343.31	210.68
343.69	211.20
344.07	211.64
344.46	212.06
344.84	212.49
345.22	212.63
345.60	212.91
345.99	213.11
346.37	213.22
346.75	213.32
347.13	213.39
347.52	213.45
347.90	213.57
348.28	213.62
348.66	213.71
349.05	213.67
349.43	213.72
349.81	213.78
350.19	213.84
350.57	213.93
350.96	214.02
351.34	214.15
351.72	214.24
352.10	214.37
352.48	214.45
352.87	214.48
353.25	214.56
353.63	214.59
354.01	214.65
354.39	214.77
354.77	214.87
355.15	215.04
355.54	215.10
355.92	215.09
356.30	215.19
356.68	215.42
357.06	215.51
357.44	215.58
357.82	215.63
358.20	215.74
358.58	215.83
358.97	215.91
359.35	216.03
359.73	216.15
360.11	216.21
360.49	216.28
360.87	216.33
361.25	216.40
361.63	216.55
362.01	216.62
362.39	216.66
362.77	216.73
363.15	216.71
363.53	216.75
363.91	216.80
364.29	216.84
364.67	216.62
365.05	216.66
365.43	216.70
365.81	216.76
366.19	216.88
366.57	216.94
366.95	216.95
367.33	216.90
367.71	216.91
368.09	216.96
368.47	216.99
368.85	217.00
369.23	217.03
369.61	216.96
369.99	217.00
370.37	216.98
370.75	217.05
371.13	217.02
371.51	216.98
371.89	217.00
372.27	216.99
372.65	217.05
373.03	217.04
373.41	217.00
373.78	216.96
374.16	216.79
374.54	216.69
374.92	216.65
375.30	216.61
375.68	216.52
376.06	216.46
376.44	216.38
376.82	216.36
377.19	216.32
377.57	216.25
377.95	216.16
378.33	216.11
378.71	215.97
379.09	215.94
379.47	215.92
379.84	215.83
380.22	215.75
380.60	215.65
380.98	215.57
381.36	215.52
381.73	215.44
382.11	215.43
382.49	215.41
382.87	215.36
383.25	215.33
383.62	215.53
384.00	215.44
384.38	215.41
384.76	215.41
385.13	215.46
385.51	215.41
385.89	215.37
386.27	215.35
386.64	215.35
387.02	215.28
387.40	215.23
387.78	215.22
388.15	215.20
388.53	215.14
388.91	215.13
389.29	215.10
389.66	215.11
390.04	215.07
390.42	215.08
390.79	215.04
391.17	215.04
391.55	214.81
391.92	214.82
392.30	214.84
392.68	214.78
393.05	214.73
393.43	214.75
393.81	214.74
394.18	214.70
394.56	214.69
394.94	214.76
395.31	214.75
395.69	214.81
396.06	214.85
396.44	214.92
396.82	214.93
397.19	215.06
397.57	215.06
397.95	215.09
398.32	215.06
398.70	215.15
399.07	215.22
399.45	215.24
399.82	215.29
400.20	215.29
400.58	215.36
400.95	215.35
401.33	215.47
401.70	215.68
402.08	215.76
402.45	215.89
402.83	216.03
403.20	216.16
403.58	216.28
403.95	216.42
404.33	216.56
404.71	216.71
405.08	216.94
405.46	217.15
405.83	217.37
406.21	217.55
406.58	217.78
406.96	218.00
407.33	218.29
407.70	218.57
408.08	219.07
408.45	219.40
408.83	219.81
409.20	220.16
409.58	220.45
409.95	220.96
410.33	221.43
410.70	221.86
411.08	222.41
411.45	223.01
411.82	223.56
412.20	224.27
412.57	225.14
412.95	225.74
413.32	226.55
413.69	227.39
414.07	228.32
414.44	229.31
414.82	230.32
415.19	231.51
415.56	232.68
415.94	233.88
416.31	235.33
416.68	236.75
417.06	238.34
417.43	239.91
417.81	241.64
418.18	243.43
418.55	245.37
418.93	247.41
419.30	249.51
419.67	251.76
420.04	254.07
420.42	256.42
420.79	259.27
421.16	262.10
421.54	265.01
421.91	268.04
422.28	271.12
422.66	274.45
423.03	277.75
423.40	281.12
423.77	284.73
424.15	288.39
424.52	292.25
424.89	296.46
425.26	300.59
425.64	304.50
426.01	308.80
426.38	313.30
426.75	317.85
427.13	322.60
427.50	327.61
427.87	332.84
428.24	338.04
428.61	343.03
428.99	348.55
429.36	354.59
429.73	360.46
430.10	366.36
430.47	372.41
430.85	378.74
431.22	385.50
431.59	392.62
431.96	399.49
432.33	407.03
432.70	414.29
433.08	422.80
433.45	430.86
433.82	438.93
434.19	447.86
434.56	456.65
434.93	464.99
435.30	473.34
435.68	482.56
436.05	491.59
436.42	500.59
436.79	508.82
437.16	517.66
437.53	526.96
437.90	536.19
438.27	545.22
438.64	554.42
439.01	563.00
439.38	570.57
439.75	577.94
440.13	586.39
440.50	594.43
440.87	600.85
441.24	607.53
441.61	614.90
441.98	620.29
442.35	626.67
442.72	633.04
443.09	639.12
443.46	642.85
443.83	645.40
444.20	647.58
444.57	650.68
444.94	652.19
445.31	653.77
445.68	655.23
446.05	655.90
446.42	655.19
446.79	654.24
447.16	653.21
447.53	652.41
447.90	649.06
448.27	645.77
448.64	641.17
449.01	637.88
449.37	631.98
449.74	626.30
450.11	619.33
450.48	611.97
450.85	604.46
451.22	597.95
451.59	591.80
451.96	585.93
452.33	578.12
452.70	570.92
453.07	562.32
453.43	553.63
453.80	545.26
454.17	537.22
454.54	529.61
454.91	521.41
455.28	513.36
455.65	505.88
456.02	498.28
456.38	491.88
456.75	483.94
457.12	477.33
457.49	470.81
457.86	464.55
458.23	459.07
458.59	453.07
458.96	447.02
459.33	441.72
459.70	436.31
460.07	431.95
460.43	427.04
460.80	422.42
461.17	418.39
461.54	414.18
461.91	410.09
462.27	405.97
462.64	402.53
463.01	398.76
463.38	395.10
463.74	391.39
464.11	388.12
464.48	385.28
464.85	382.20
465.21	379.72
465.58	377.12
465.95	374.00
466.32	371.45
466.68	368.84
467.05	366.23
467.42	363.66
467.78	361.01
468.15	358.45
468.52	356.50
468.88	353.97
469.25	351.74
469.62	349.95
469.98	347.98
470.35	346.17
470.72	344.46
471.08	342.60
471.45	341.08
471.82	339.51
472.18	337.81
472.55	336.54
472.92	335.17
473.28	333.92
473.65	332.72
474.02	331.51
474.38	330.57
474.75	329.75
475.11	328.94
475.48	328.34
475.85	327.79
476.21	327.30
476.58	326.95
476.94	326.70
477.31	326.36
477.67	326.10
478.04	325.90
478.41	325.87
478.77	326.03
479.14	325.93
479.50	326.06
479.87	326.35
480.23	326.61
480.60	326.83
480.96	327.07
481.33	327.64
481.69	328.20
482.06	328.73
482.42	329.22
482.79	329.77
483.15	330.55
483.52	331.51
483.88	332.39
484.25	333.34
484.61	334.34
484.98	335.40
485.34	336.68
485.71	338.03
486.07	339.44
486.44	340.74
486.80	342.39
487.17	344.10
487.53	345.95
487.90	347.87
488.26	349.93
488.62	352.12
488.99	354.17
489.35	356.35
489.72	358.73
490.08	361.27
490.44	363.83
490.81	366.52
491.17	369.22
491.54	372.22
491.90	375.24
492.26	378.45
492.63	381.88
492.99	385.38
493.36	389.08
493.72	392.97
494.08	396.97
494.45	401.19
494.81	405.53
495.17	409.94
495.54	414.60
495.90	419.35
496.26	424.23
496.63	429.44
496.99	434.81
497.35	440.40
497.72	446.25
498.08	452.17
498.44	458.24
498.80	464.73
499.17	471.21
499.53	477.96
499.89	484.78
500.26	491.69
500.62	498.74
500.98	506.10
501.34	513.54
501.71	521.32
502.07	529.04
502.43	537.00
502.79	545.13
503.16	553.50
503.52	562.13
503.88	570.86
504.24	579.79
504.60	588.84
504.97	598.02
505.33	607.18
505.69	617.01
506.05	626.90
506.41	636.66
506.78	646.67
507.14	656.80
507.50	667.28
507.86	677.95
508.22	688.72
508.59	699.34
508.95	710.39
509.31	721.52
509.67	732.99
510.03	744.35
510.39	755.97
510.75	767.73
511.12	779.46
511.48	791.48
511.84	803.62
512.20	815.91
512.56	828.51
512.92	841.36
513.28	853.95
513.64	866.66
514.00	879.48
514.37	892.43
514.73	905.51
515.09	918.52
515.45	931.45
515.81	944.56
516.17	957.99
516.53	971.19
516.89	984.39
517.25	997.53
517.61	1011.08
517.97	1024.50
518.33	1037.72
518.69	1051.33
519.05	1065.17
519.41	1078.93
519.77	1092.77
520.13	1106.13
520.49	1119.18
520.85	1132.68
521.21	1145.99
521.57	1159.75
521.93	1172.80
522.29	1186.54
522.65	1200.16
523.01	1213.85
523.37	1227.02
523.73	1240.35
524.09	1253.52
524.45	1266.96
524.81	1280.54
525.17	1293.96
525.53	1307.13
525.89	1320.45
526.25	1333.63
526.61	1346.50
526.97	1359.56
527.33	1372.49
527.68	1385.93
528.04	1399.54
528.40	1412.65
528.76	1426.14
529.12	1439.05
529.48	1452.56
529.84	1464.90
530.20	1477.63
530.56	1490.24
530.91	1503.44
531.27	1516.40
531.63	1529.24
531.99	1541.95
532.35	1554.14
532.71	1566.59
533.07	1579.58
533.42	1591.90
533.78	1604.13
534.14	1616.11
534.50	1627.48
534.86	1639.39
535.21	1650.28
535.57	1661.91
535.93	1673.19
536.29	1684.30
536.65	1695.76
537.00	1706.63
537.36	1718.12
537.72	1729.26
538.08	1740.80
538.44	1751.84
538.79	1762.97
539.15	1773.98
539.51	1784.87
539.87	1796.31
540.22	1807.20
540.58	1818.26
540.94	1829.28
541.29	1839.65
541.65	1849.53
542.01	1860.12
542.37	1870.15
542.72	1880.34
543.08	1890.00
543.44	1900.66
543.79	1909.93
544.15	1919.52
544.51	1929.64
544.87	1939.61
545.22	1948.92
545.58	1957.86
545.94	1966.96
546.29	1975.35
546.65	1983.65
547.01	1992.01
547.36	1999.66
547.72	2007.43
548.07	2015.04
548.43	2022.87
548.79	2030.76
549.14	2038.95
549.50	2047.45
549.86	2055.37
550.21	2063.01
550.57	2070.88
550.92	2077.68
551.28	2085.33
551.64	2092.53
551.99	2099.99
552.35	2107.12
552.70	2114.01
553.06	2120.75
553.41	2127.02
553.77	2133.72
554.13	2140.18
554.48	2147.19
554.84	2154.37
555.19	2160.92
555.55	2167.33
555.90	2173.55
556.26	2180.49
556.61	2186.63
556.97	2191.50
557.32	2197.14
557.68	2203.48
558.03	2209.29
558.39	2214.60
558.74	2220.52
559.10	2226.02
559.45	2231.46
559.81	2236.96
560.16	2242.37
560.52	2248.17
560.87	2254.48
561.23	2260.26
561.58	2266.80
561.94	2271.93
562.29	2276.43
562.64	2282.40
563.00	2287.97
563.35	2293.40
563.71	2298.96
564.06	2304.56
564.42	2310.40
564.77	2315.48
565.12	2320.64
565.48	2325.53
565.83	2330.89
566.19	2336.03
566.54	2341.29
566.89	2345.89
567.25	2350.31
567.60	2356.09
567.96	2360.95
568.31	2365.33
568.66	2369.57
569.02	2373.48
569.37	2377.09
569.72	2381.64
570.08	2385.00
570.43	2388.10
570.78	2391.33
571.14	2393.70
571.49	2396.73
571.84	2400.08
572.20	2402.94
572.55	2405.80
572.90	2408.06
573.26	2410.62
573.61	2413.19
573.96	2415.22
574.31	2417.21
574.67	2419.02
575.02	2419.59
575.37	2420.91
575.72	2421.45
576.08	2422.77
576.43	2422.72
576.78	2423.06
577.13	2424.27
577.49	2425.29
577.84	2426.03
578.19	2426.91
578.54	2427.30
578.90	2427.70
579.25	2427.43
579.60	2427.07
579.95	2426.09
580.30	2426.01
580.66	2425.26
581.01	2423.46
581.36	2420.86
581.71	2419.16
582.06	2417.77
582.42	2416.62
582.77	2414.15
583.12	2412.37
583.47	2410.78
583.82	2409.98
584.17	2408.48
584.53	2406.19
584.88	2403.92
585.23	2401.86
585.58	2399.47
585.93	2397.26
586.28	2394.93
586.63	2392.22
586.98	2389.85
587.34	2387.74
587.69	2384.98
588.04	2382.61
588.39	2381.03
588.74	2378.43
589.09	2375.47
589.44	2372.15
589.79	2369.48
590.14	2367.35
590.49	2364.48
590.84	2360.32
591.19	2357.01
591.54	2353.74
591.89	2349.67
592.25	2346.29
592.60	2341.90
592.95	2337.47
593.30	2333.24
593.65	2328.83
594.00	2324.34
594.35	2321.26
594.70	2316.46
595.05	2311.88
595.40	2306.40
595.75	2300.39
596.10	2296.74
596.45	2291.88
596.80	2287.32
597.15	2282.02
597.50	2276.10
597.85	2271.18
598.19	2266.11
598.54	2260.39
598.89	2255.02
599.24	2250.20
599.59	2244.06
599.94	2238.28
600.29	2232.42
600.64	2226.48
600.99	2219.46
601.34	2213.95
601.69	2206.98
602.04	2200.71
602.39	2194.03
602.74	2187.80
603.08	2182.30
603.43	2175.70
603.78	2168.77
604.13	2161.59
604.48	2154.28
604.83	2148.06
605.18	2141.74
605.53	2134.78
605.87	2127.59
606.22	2120.81
606.57	2113.08
606.92	2105.18
607.27	2098.15
607.62	2091.52
607.96	2084.43
608.31	2078.09
608.66	2070.25
609.01	2062.53
609.36	2055.30
609.70	2047.53
610.05	2039.81
610.40	2031.47
610.75	2023.25
611.10	2015.69
611.44	2006.79
611.79	1998.20
612.14	1988.31
612.49	1977.54
612.83	1968.19
613.18	1959.03
613.53	1949.77
613.88	1940.19
614.22	1931.49
614.57	1921.74
614.92	1911.20
615.27	1901.02
615.61	1890.86
615.96	1881.30
616.31	1871.74
616.65	1862.38
617.00	1852.78
617.35	1843.32
617.70	1833.62
618.04	1823.67
618.39	1813.50
618.74	1803.99
619.08	1794.34
619.43	1785.76
619.78	1777.73
620.12	1769.12
620.47	1759.53
620.82	1749.28
621.16	1739.55
621.51	1729.71
621.85	1720.07
622.20	1709.86
622.55	1699.48
622.89	1689.75
623.24	1680.04
623.59	1670.39
623.93	1660.28
624.28	1650.65
624.62	1640.65
624.97	1630.62
625.32	1620.81
625.66	1611.99
626.01	1603.32
626.35	1594.14
626.70	1584.19
627.04	1574.20
627.39	1564.12
627.73	1555.16
628.08	1546.42
628.43	1537.03
628.77	1527.89
629.12	1519.03
629.46	1511.25
629.81	1503.09
630.15	1493.72
630.50	1484.09
630.84	1473.73
631.19	1464.07
631.53	1454.93
631.88	1444.85
632.22	1434.84
632.57	1425.68
632.91	1415.82
633.26	1406.05
633.60	1396.56
633.95	1387.34
634.29	1377.88
634.64	1368.71
634.98	1358.69
635.32	1349.46
635.67	1341.10
636.01	1332.05
636.36	1322.47
636.70	1313.06
637.05	1303.72
637.39	1294.87
637.73	1286.45
638.08	1279.05
638.42	1270.98
638.77	1262.26
639.11	1254.12
639.45	1246.48
639.80	1238.00
640.14	1229.32
640.49	1220.59
640.83	1211.87
641.17	1203.80
641.52	1195.77
641.86	1187.36
642.20	1179.65
642.55	1171.14
642.89	1162.32
643.23	1153.81
643.58	1145.81
643.92	1136.92
644.26	1128.20
644.61	1119.87
644.95	1111.11
645.29	1101.97
645.64	1092.84
645.98	1084.36
646.32	1076.56
646.66	1068.12
647.01	1059.89
647.35	1051.85
647.69	1043.60
648.04	1035.42
648.38	1026.73
648.72	1018.07
649.06	1009.77
649.41	1001.63
649.75	993.74
650.09	985.96
650.43	977.92
650.78	969.58
651.12	961.93
651.46	954.62
651.80	947.36
652.14	940.11
652.49	932.59
652.83	925.37
653.17	917.81
653.51	910.20
653.85	903.00
654.20	895.83
654.54	888.43
654.88	881.30
655.22	874.11
655.56	867.13
655.90	860.37
656.25	853.70
656.59	846.85
656.93	839.91
657.27	832.86
657.61	825.87
657.95	819.89
658.29	813.96
658.64	807.94
658.98	801.53
659.32	795.07
659.66	788.92
660.00	782.64
660.34	776.54
660.68	770.53
661.02	764.18
661.36	758.14
661.70	752.32
662.05	746.68
662.39	741.24
662.73	735.80
663.07	730.47
663.41	724.83
663.75	719.13
664.09	713.37
664.43	707.94
664.77	702.74
665.11	696.90
665.45	691.03
665.79	685.20
666.13	679.55
666.47	674.06
666.81	668.63
667.15	663.14
667.49	657.97
667.83	652.66
668.17	647.51
668.51	642.45
668.85	637.54
669.19	632.63
669.53	627.65
669.87	622.56
670.21	617.78
670.55	613.08
670.89	608.58
671.23	604.30
671.57	599.87
671.91	595.46
672.25	591.32
672.58	587.16
672.92	583.09
673.26	579.22
673.60	575.29
673.94	571.44
674.28	567.86
674.62	564.11
674.96	560.32
675.30	556.76
675.64	553.11
675.97	549.51
676.31	545.90
676.65	542.35
676.99	538.94
677.33	535.05
677.67	531.45
678.01	527.66
678.34	524.07
678.68	520.57
679.02	517.03
679.36	513.34
679.70	509.65
680.04	506.09
680.37	502.62
680.71	499.31
681.05	496.15
681.39	492.86
681.73	489.64
682.06	486.63
682.40	483.53
682.74	480.38
683.08	477.13
683.42	473.87
683.75	470.79
684.09	467.69
684.43	464.94
684.77	461.95
685.10	459.10
685.44	456.10
685.78	453.17
686.12	450.31
686.45	447.57
686.79	444.91
687.13	442.29
687.46	439.60
687.80	436.87
688.14	434.00
688.48	431.36
688.81	428.66
689.15	426.05
689.49	423.40
689.82	420.77
690.16	418.14
690.50	415.71
690.83	413.15
691.17	410.57
691.51	408.05
691.84	405.74
692.18	403.45
692.52	401.21
692.85	399.02
693.19	396.91
693.52	394.68
693.86	392.45
694.20	390.27
694.53	388.06
694.87	385.87
695.21	383.71
695.54	381.55
695.88	379.41
696.21	377.19
696.55	375.03
696.88	372.96
697.22	370.95
697.56	369.00
697.89	367.10
698.23	365.35
698.56	363.53
698.90	361.75
699.23	359.83
699.57	357.97
699.90	356.09
700.24	354.19
700.58	352.38
700.91	350.69
701.25	349.14
701.58	347.51
701.92	345.90
702.25	344.28
702.59	342.61
702.92	341.01
703.26	339.44
703.59	337.98
703.93	336.69
704.26	335.28
704.60	333.79
704.93	332.32
705.26	330.80
705.60	329.30
705.93	327.74
706.27	326.40
706.60	325.11
706.94	323.87
707.27	322.48
707.61	321.19
707.94	319.87
708.27	318.32
708.61	316.92
708.94	315.50
709.28	314.17
709.61	312.93
709.94	311.71
710.28	310.48
710.61	309.28
710.95	307.84
711.28	306.73
711.61	305.54
711.95	304.39
712.28	303.20
712.61	302.01
712.95	300.97
713.28	299.88
713.61	298.72
713.95	297.56
714.28	296.53
714.61	295.40
714.95	294.33
715.28	293.35
715.61	292.26
715.95	291.30
716.28	290.31
716.61	289.30
716.95	288.29
717.28	287.32
717.61	286.34
717.94	285.43
718.28	284.36
718.61	283.45
718.94	282.51
719.27	281.63
719.61	280.77
719.94	279.88
720.27	278.92
720.60	278.01
720.94	277.15
721.27	276.39
721.60	275.70
721.93	274.99
722.27	274.31
722.60	273.63
722.93	272.92
723.26	272.26
723.59	271.56
723.93	270.92
724.26	270.29
724.59	269.61
724.92	268.98
725.25	268.48
725.59	267.87
725.92	267.31
726.25	266.70
726.58	266.13
726.91	265.48
727.24	264.97
727.57	264.40
727.91	263.81
728.24	263.26
728.57	262.64
728.90	262.06
729.23	261.40
729.56	260.99
729.89	260.42
730.22	259.84
730.55	259.29
730.89	258.74
731.22	258.16
731.55	257.63
731.88	257.12
732.21	256.52
732.54	255.98
732.87	255.48
733.20	255.04
733.53	254.55
733.86	254.09
734.19	253.59
734.52	253.19
734.85	252.90
735.18	252.38
735.51	252.01
735.84	251.58
736.17	251.19
736.50	250.63
736.83	250.51
737.16	250.10
737.49	249.70
737.82	249.28
738.15	248.90
738.48	248.53
738.81	248.13
739.14	247.74
739.47	247.33
739.80	246.93
740.13	246.55
740.46	246.14
740.79	245.75
741.12	245.34
741.45	244.92
741.78	244.48
742.11	244.22
742.44	243.82
742.77	243.50
743.10	243.14
743.43	242.76
743.75	242.16
744.08	242.08
744.41	241.73
744.74	241.44
745.07	241.11
745.40	240.82
745.73	240.58
746.06	240.28
746.39	239.99
746.71	239.64
747.04	239.27
747.37	238.93
747.70	238.68
748.03	238.39
748.36	238.16
748.68	237.80
749.01	237.39
749.34	237.12
749.67	236.79
750.00	236.53
750.33	236.44
750.65	236.18
750.98	235.65
751.31	235.36
751.64	235.11
751.97	234.92
752.29	234.63
752.62	234.24
752.95	233.95
753.28	233.71
753.60	233.46
753.93	233.31
754.26	233.12
754.59	232.81
754.91	232.56
755.24	232.30
755.57	232.08
755.90	231.87
756.22	231.60
756.55	231.39
756.88	231.12
757.20	230.74
757.53	230.49
757.86	230.27
758.19	230.10
758.51	229.86
758.84	229.56
759.17	229.34
759.49	229.20
759.82	229.10
760.15	228.90
760.47	228.70
760.80	228.41
761.13	228.24
761.45	228.09
761.78	227.92
762.11	227.71
762.43	227.54
762.76	227.38
763.08	227.24
763.41	227.07
763.74	226.94
764.06	226.78
764.39	226.60
764.71	226.46
765.04	226.28
765.37	226.11
765.69	225.98
766.02	225.88
766.34	225.70
766.67	225.47
767.00	225.41
767.32	225.38
767.65	225.40
767.97	225.23
768.30	225.10
768.62	224.96
768.95	224.83
769.27	224.68
769.60	224.61
769.92	224.44
770.25	224.26
770.57	224.09
770.90	223.99
771.22	223.87
771.55	223.75
771.87	223.66
772.20	223.56
772.52	223.62
772.85	223.74
773.17	223.66
773.50	223.53
773.82	223.37
774.15	223.18
774.47	222.94
774.80	222.85
775.12	222.76
775.45	222.66
775.77	222.55
776.09	222.48
776.42	222.36
776.74	222.33
777.07	222.25
777.39	222.17
777.72	222.07
778.04	222.03
778.36	221.92
778.69	221.87
779.01	221.77
779.33	221.49
779.66	221.17
779.98	221.05
780.31	221.01
780.63	220.99
780.95	220.92
781.28	220.84
781.60	220.76
781.92	220.67
782.25	220.61
782.57	220.58
782.89	220.50
783.22	220.45
783.54	220.34
783.86	220.27
784.19	220.19
784.51	220.18
784.83	220.07
785.16	220.01
785.48	219.92
785.80	219.88
786.12	219.84
786.45	219.79
786.77	219.75
787.09	219.69
787.42	219.58
787.74	219.53
788.06	219.48
788.38	219.38
788.71	219.29
789.03	219.23
789.35	219.20
789.67	219.13
789.99	219.05
790.32	218.96
790.64	218.94
790.96	219.09
791.28	218.97
791.61	218.89
791.93	218.85
792.25	218.79
792.57	218.86
792.89	218.78
793.21	218.75
793.54	218.70
793.86	218.61
794.18	218.56
794.50	218.51
794.82	218.46
795.14	218.50
795.47	218.51
795.79	218.48
796.11	218.34
796.43	218.32
796.75	218.29
797.07	218.27
797.39	218.23
797.71	218.00
798.04	217.99
798.36	217.99
798.68	217.95
799.00	217.93
799.32	217.81
799.64	217.83
799.96	217.78
800.28	217.76
800.60	217.72
800.92	217.73
801.24	217.69
801.56	217.66
801.89	217.58
802.21	217.56
802.53	217.47
802.85	217.51
803.17	217.56
803.49	217.44
803.81	217.44
804.13	217.40
804.45	217.35
804.77	217.30
805.09	217.28
805.41	217.22
805.73	217.11
806.05	217.01
806.37	217.00
806.69	216.91
807.01	216.91
807.33	216.90
807.65	216.78
807.97	216.82
808.28	216.78
808.60	216.76
808.92	216.69
809.24	216.79
809.56	216.74
809.88	216.63
810.20	216.66
810.52	216.66
810.84	216.60
811.16	216.57
811.48	216.51
811.80	216.55
812.12	216.55
812.43	216.59
812.75	216.55
813.07	216.47
813.39	216.46
813.71	216.40
814.03	216.32
814.35	216.29
814.67	216.19
814.98	216.13
815.30	216.09
815.62	216.06
815.94	215.88
816.26	215.86
816.58	215.79
816.89	215.78
817.21	215.70
817.53	215.70
817.85	215.72
818.17	215.72
818.48	215.64
818.80	215.63
819.12	215.56
819.44	215.52
819.76	215.52
820.07	215.50
820.39	215.45
820.71	215.50
821.03	215.52
821.34	215.45
821.66	215.51
821.98	215.53
822.30	215.51
822.61	215.64
822.93	215.60
823.25	215.58
823.57	215.51
823.88	215.54
824.20	215.52
824.52	215.51
824.83	215.50
825.15	215.49
825.47	215.49
825.79	215.53
826.10	215.53
826.42	215.49
826.74	215.52
827.05	215.52
827.37	215.49
827.69	215.44
828.00	215.50
828.32	215.45
828.64	215.41
828.95	215.53
829.27	215.44
829.58	215.44
829.90	215.48
830.22	215.51
830.53	215.44
830.85	215.40
831.17	215.31
831.48	215.29
831.80	215.23
832.11	215.19
832.43	215.13
832.75	215.11
833.06	215.24
833.38	215.14
833.69	215.13
834.01	215.13
834.32	215.12
834.64	215.08
834.96	215.07
835.27	215.08
835.59	214.96
835.90	214.94
836.22	214.94
836.53	214.86
836.85	214.83
837.16	215.07
837.48	215.09
837.79	215.20
838.11	215.22
838.42	215.23
838.74	215.24
839.05	215.24
839.37	215.22
839.68	215.08
840.00	215.09
840.31	215.08
840.63	215.06
840.94	215.02
841.26	215.00
841.57	214.98
841.88	214.98
842.20	214.97
842.51	214.93
842.83	214.93
843.14	215.12
843.46	215.15
843.77	215.00
844.08	214.94
844.40	214.83
844.71	214.79
845.03	214.79
845.34	214.79
845.65	214.78
845.97	214.75
846.28	214.75
846.60	214.72
846.91	214.70
847.22	214.65
847.54	214.72
847.85	214.73
848.16	214.72
848.48	214.67
848.79	214.73
849.10	214.73
849.42	214.74
849.73	214.58
850.04	214.52
850.36	214.48
850.67	214.56
850.98	214.58
851.30	214.60
851.61	214.55
851.92	214.53
852.23	214.60
852.55	214.64
852.86	214.66
853.17	214.69
853.49	214.74
853.80	214.84
854.11	214.84
854.42	214.87
854.74	214.83
855.05	214.86
855.36	214.76
855.67	214.78
855.99	214.79
856.30	215.02
856.61	215.01
856.92	215.00
857.23	214.94
857.55	214.91
857.86	214.86
858.17	214.89
858.48	214.85
858.79	214.79
859.11	214.80
859.42	214.76
859.73	214.75
860.04	214.73
860.35	214.67
860.66	214.60
860.98	214.55
861.29	214.59
861.60	214.56
861.91	214.64
862.22	214.58
862.53	214.55
862.84	214.30
863.16	214.37
863.47	214.32
863.78	214.32
864.09	214.33
864.40	214.35
864.71	214.36
865.02	214.41
865.33	214.37
865.64	214.32
865.95	214.32
866.27	214.44
866.58	214.43
866.89	214.43
867.20	214.42
867.51	214.41
867.82	214.39
868.13	214.46
868.44	214.38
868.75	214.45
869.06	214.46
869.37	214.46
869.68	214.38
869.99	214.40
870.30	214.43
870.61	214.42
870.92	214.38
871.23	214.36
871.54	214.36
871.85	214.40
872.16	214.44
872.47	214.40
872.78	214.28
873.09	214.29
873.40	214.28
873.71	214.32
874.02	214.31
874.33	214.30
874.64	214.25
874.95	214.29
875.26	214.23
875.56	214.21
875.87	214.19
876.18	214.22
876.49	214.46
876.80	214.41
877.11	214.40
877.42	214.43
877.73	214.42
878.04	214.40
878.35	214.41
878.66	214.41
878.96	214.43
879.27	214.40
879.58	214.37
879.89	214.33
880.20	214.36
880.51	214.34
880.82	214.35
881.12	214.35
881.43	214.32
881.74	214.28
882.05	214.27
882.36	214.27
882.67	214.29
882.97	214.04
883.28	214.05
883.59	214.04
883.90	214.06
884.21	214.08
884.51	214.09
884.82	214.04
885.13	214.02
885.44	214.01
885.74	214.01
886.05	214.04
886.36	214.05
886.67	214.00
886.98	214.15
887.28	214.15
887.59	214.16
887.90	214.16
888.20	214.14
888.51	214.19
888.82	214.18
889.13	214.20
889.43	214.35
889.74	214.35
890.05	214.34
890.35	214.31
890.66	214.29
890.97	214.27
891.28	214.27
891.58	214.25
891.89	214.28
892.20	214.28
892.50	214.20
892.81	214.20
893.12	214.19
893.42	214.05
893.73	214.05
894.04	214.03
894.34	213.99
894.65	214.02
894.95	213.99
895.26	214.03
895.57	214.08
895.87	213.88
896.18	213.92
896.48	213.94
896.79	213.93
897.10	213.95
897.40	213.94
897.71	213.94
898.01	213.93
898.32	213.91
898.63	213.91
898.93	213.96
899.24	213.99
899.54	213.96
899.85	213.96
900.15	213.94
900.46	213.95
900.76	213.99
901.07	213.97
901.38	213.93
901.68	213.92
901.99	213.85
902.29	213.86
902.60	213.79
902.90	213.76
903.21	213.76
903.51	213.74
903.82	213.80
904.12	213.84
904.43	213.85
904.73	213.87
905.03	213.88
905.34	214.07
905.64	214.01
905.95	214.03
906.25	214.04
906.56	214.05
906.86	214.06
907.17	214.07
907.47	214.09
907.77	214.11
908.08	214.07
908.38	214.07
908.69	214.10
908.99	214.18
909.30	214.21
909.60	214.21
909.90	214.22
910.21	214.18
910.51	214.13
910.81	214.13
911.12	214.13
911.42	214.13
911.73	213.92
912.03	213.96
912.33	213.98
912.64	213.96
912.94	213.92
913.24	213.90
913.55	213.88
913.85	213.90
914.15	213.94
914.46	213.94
914.76	213.89
915.06	213.89
915.37	213.84
915.67	213.84
915.97	213.84
916.27	213.79
916.58	213.79
916.88	213.77
917.18	213.76
917.49	213.90
917.79	213.86
918.09	213.91
918.39	213.96
918.70	213.97
919.00	213.99
919.30	214.10
919.60	214.08
919.91	214.04
920.21	214.05
920.51	213.99
920.81	214.00
921.12	214.07
921.42	214.03
921.72	214.06
922.02	214.08
922.32	214.10
922.63	214.13
922.93	214.23
923.23	214.28
923.53	214.30
923.83	214.15
924.13	214.21
924.44	214.20
924.74	214.23
925.04	214.28
925.34	214.27
925.64	214.21
925.94	214.20
926.24	214.35
926.55	214.30
926.85	214.34
927.15	214.36
927.45	214.35
927.75	214.36
928.05	214.36
928.35	214.33
928.65	214.34
928.95	214.35
929.26	214.28
929.56	214.31
929.86	214.32
930.16	214.31
930.46	214.29
930.76	214.29
931.06	214.21
931.36	214.18
931.66	214.22
931.96	214.24
932.26	214.27
932.56	214.15
932.86	214.19
933.16	214.16
933.46	214.12
933.76	214.10
934.06	214.19
934.36	214.25
934.66	214.26
934.96	214.25
935.26	214.25
935.56	214.25
935.86	214.20
936.16	214.19
936.46	214.19
936.76	214.19
937.06	214.16
937.36	214.14
937.66	214.11
937.96	214.11
938.26	214.03
938.56	214.01
938.86	214.02
939.16	214.07
939.46	214.12
939.76	214.13
940.06	214.13
940.35	214.05
940.65	213.93
940.95	213.94
941.25	213.91
941.55	213.89
941.85	213.87
942.15	213.91
942.45	213.94
942.75	213.90
943.04	213.89
943.34	213.94
943.64	213.92
943.94	213.87
944.24	213.83
944.54	213.88
944.84	213.88
945.13	213.88
945.43	213.81
945.73	213.77
946.03	213.74
946.33	213.70
946.62	213.70
946.92	213.70
947.22	213.69
947.52	213.69
947.82	213.71
948.11	213.69
948.41	213.63
948.71	213.58
949.01	213.59
949.31	213.58
949.60	213.54
949.90	213.54
950.20	213.55
950.50	213.56
950.79	213.51
951.09	213.50
951.39	213.49
951.69	213.50
951.98	213.53
952.28	213.56
952.58	213.56
952.87	213.57
953.17	213.58
953.47	213.58
953.76	213.59
954.06	213.56
954.36	213.51
954.66	213.53
954.95	213.55
955.25	213.57
955.55	213.59
955.84	213.54
956.14	213.59
956.44	213.61
956.73	213.55
957.03	213.59
957.32	213.61
957.62	213.60
957.92	213.64
958.21	213.62
958.51	213.82
958.81	213.90
959.10	213.90
959.40	213.96
959.69	213.96
959.99	213.98
960.29	213.99
960.58	214.03
960.88	214.10
961.17	214.11
961.47	214.15
961.76	214.12
962.06	214.19
962.36	214.20
962.65	214.21
962.95	214.23
963.24	214.18
963.54	214.19
963.83	214.23
964.13	214.17
964.42	214.14
964.72	213.98
965.01	213.95
965.31	213.95
965.60	213.89
965.90	214.03
966.19	213.97
966.49	213.97
966.78	213.97
967.08	213.92
967.37	213.92
967.67	213.86
967.96	213.91
968.26	213.89
968.55	213.92
968.85	213.89
969.14	213.93
969.43	213.97
969.73	213.93
970.02	213.92
970.32	213.91
970.61	213.91
970.91	213.86
971.20	213.79
971.49	213.79
971.79	213.82
972.08	213.70
972.38	213.72
972.67	213.71
972.96	213.75
973.26	213.76
973.55	213.82
973.85	213.81
974.14	213.79
974.43	213.81
974.73	213.76
975.02	213.76
975.31	213.76
975.61	213.74
975.90	213.72
976.19	213.70
976.49	213.71
976.78	213.73
977.07	213.74
977.37	213.79
977.66	213.79
977.95	213.77
978.24	213.76
978.54	213.83
978.83	213.80
979.12	213.78
979.42	213.77
979.71	213.73
980.00	213.69
980.29	213.70
980.59	213.66
980.88	213.70
981.17	213.70
981.46	213.69
981.76	213.69
982.05	213.78
982.34	213.80
982.63	213.80
982.93	213.77
983.22	213.85
983.51	213.87
983.80	213.92
984.09	213.93
984.39	213.91
984.68	213.87
984.97	213.89
985.26	213.87
985.55	213.85
985.85	213.82
986.14	213.90
986.43	213.92
986.72	213.92
987.01	213.85
987.30	213.84
987.59	213.83
987.89	213.85
988.18	213.77
988.47	213.73
988.76	213.73
989.05	213.72
989.34	213.65
989.63	213.69
989.92	213.64
990.22	213.62
990.51	213.61
990.80	213.57
991.09	213.59
991.38	213.62
991.67	213.59
991.96	213.55
992.25	213.53
992.54	213.50
992.83	213.49
993.12	213.48
993.41	213.51
993.70	213.58
993.99	213.62
994.28	213.66
994.58	213.71
994.87	213.69
995.16	213.70
995.45	213.67
995.74	213.60
996.03	213.63
996.32	213.67
996.61	213.70
996.90	213.74
997.19	213.70
997.48	213.69
997.77	213.69
998.06	213.70
998.34	213.71
998.63	213.71
998.92	213.72
999.21	213.75
999.50	213.75
999.79	213.66
1000.08	213.65
1000.37	213.65
1000.66	213.59
1000.95	213.64
1001.24	213.67
1001.53	213.73
1001.82	213.71
1002.11	213.67
1002.40	213.65
1002.68	213.70
1002.97	213.84
1003.26	213.85
1003.55	213.81
1003.84	213.81
1004.13	213.90
1004.42	213.88
1004.71	213.89
1004.99	213.87
1005.28	213.93
1005.57	213.89
1005.86	213.86
1006.15	213.86
1006.44	213.79
1006.72	213.85
1007.01	213.79
1007.30	213.80
1007.59	213.76
1007.88	213.77
1008.17	213.80
1008.45	213.75
1008.74	213.68
1009.03	213.57
1009.32	213.57
1009.60	213.59
1009.89	213.61
1010.18	213.52
1010.47	213.56
1010.76	213.59
1011.04	213.59
1011.33	213.60
1011.62	213.63
1011.91	213.66
1012.19	213.66
1012.48	213.67
1012.77	213.68
1013.05	213.84
1013.34	213.85
1013.63	213.84
1013.92	213.84
1014.20	213.81
1014.49	213.84
1014.78	213.83
1015.06	213.75
1015.35	213.78
1015.64	213.80
1015.92	213.82
1016.21	213.83
1016.50	213.78
1016.78	213.77
1017.07	213.77
1017.36	213.71
1017.64	213.68
1017.93	213.68
1018.22	213.67
1018.50	213.67
1018.79	213.67
1019.08	213.52
1019.36	213.51
1019.65	213.47
1019.93	213.53
1020.22	213.54
1020.51	213.64
1020.79	213.62
1021.08	213.43
1021.36	213.09
1021.65	214.07
1021.94	213.46
1022.22	213.76
1022.51	212.79
1022.79	214.57
1023.08	213.59
1023.36	215.90
1023.65	212.80
>>>>>End Processed Spectral Data<<<<<
