SpectraSuite Data File
++++++++++++++++++++++++++++++++++++
Date: Tue Jan 29 16:25:27 EST 2013
User: group
Dark Spectrum Present: No
Reference Spectrum Present: No
Number of Sampled Component Spectra: 1
Spectrometers: USB2E7196
Integration Time (usec): 65000 (USB2E7196)
Spectra Averaged: 100 (USB2E7196)
Boxcar Smoothing: 10 (USB2E7196)
Correct for Electrical Dark: No (USB2E7196)
Strobe/Lamp Enabled: No (USB2E7196)
Correct for Detector Non-linearity: No (USB2E7196)
Correct for Stray Light: No (USB2E7196)
Number of Pixels in Processed Spectrum: 2048
>>>>>Begin Processed Spectral Data<<<<<
339.09	0.00
339.48	202.82
339.86	203.60
340.24	205.33
340.63	206.11
341.01	211.20
341.39	209.66
341.78	211.00
342.16	212.20
342.54	212.31
342.93	201.51
343.31	211.69
343.69	212.21
344.07	212.68
344.46	213.13
344.84	213.55
345.22	213.71
345.60	213.96
345.99	214.17
346.37	214.30
346.75	214.40
347.13	214.48
347.52	214.56
347.90	214.68
348.28	214.73
348.66	214.84
349.05	214.82
349.43	214.91
349.81	214.95
350.19	215.00
350.57	215.06
350.96	215.14
351.34	215.24
351.72	215.30
352.10	215.41
352.48	215.47
352.87	215.53
353.25	215.60
353.63	215.67
354.01	215.73
354.39	215.82
354.77	215.91
355.15	216.04
355.54	216.06
355.92	216.04
356.30	216.10
356.68	216.28
357.06	216.35
357.44	216.37
357.82	216.41
358.20	216.51
358.58	216.60
358.97	216.68
359.35	216.78
359.73	216.86
360.11	216.92
360.49	216.97
360.87	217.00
361.25	217.07
361.63	217.18
362.01	217.24
362.39	217.27
362.77	217.31
363.15	217.32
363.53	217.37
363.91	217.42
364.29	217.44
364.67	217.29
365.05	217.30
365.43	217.34
365.81	217.37
366.19	217.47
366.57	217.53
366.95	217.55
367.33	217.52
367.71	217.53
368.09	217.57
368.47	217.57
368.85	217.57
369.23	217.57
369.61	217.47
369.99	217.49
370.37	217.48
370.75	217.57
371.13	217.51
371.51	217.50
371.89	217.50
372.27	217.47
372.65	217.43
373.03	217.41
373.41	217.39
373.78	217.36
374.16	217.24
374.54	217.13
374.92	217.04
375.30	217.02
375.68	216.94
376.06	216.92
376.44	216.88
376.82	216.86
377.19	216.81
377.57	216.77
377.95	216.66
378.33	216.62
378.71	216.46
379.09	216.47
379.47	216.42
379.84	216.38
380.22	216.37
380.60	216.31
380.98	216.24
381.36	216.19
381.73	216.14
382.11	216.12
382.49	216.11
382.87	216.05
383.25	216.00
383.62	216.22
384.00	216.11
384.38	216.06
384.76	216.05
385.13	216.15
385.51	216.10
385.89	216.07
386.27	216.03
386.64	216.03
387.02	215.99
387.40	215.96
387.78	215.93
388.15	215.88
388.53	215.86
388.91	215.87
389.29	215.83
389.66	215.85
390.04	215.80
390.42	215.80
390.79	215.79
391.17	215.75
391.55	215.53
391.92	215.54
392.30	215.57
392.68	215.51
393.05	215.45
393.43	215.41
393.81	215.41
394.18	215.41
394.56	215.40
394.94	215.43
395.31	215.41
395.69	215.49
396.06	215.55
396.44	215.58
396.82	215.59
397.19	215.69
397.57	215.69
397.95	215.76
398.32	215.73
398.70	215.76
399.07	215.88
399.45	215.89
399.82	215.92
400.20	215.95
400.58	216.01
400.95	215.99
401.33	216.13
401.70	216.37
402.08	216.45
402.45	216.55
402.83	216.68
403.20	216.78
403.58	216.88
403.95	217.03
404.33	217.20
404.71	217.34
405.08	217.61
405.46	217.74
405.83	217.92
406.21	218.13
406.58	218.39
406.96	218.57
407.33	218.85
407.70	219.18
408.08	219.68
408.45	220.03
408.83	220.39
409.20	220.71
409.58	220.96
409.95	221.42
410.33	221.89
410.70	222.32
411.08	222.86
411.45	223.43
411.82	223.98
412.20	224.65
412.57	225.48
412.95	226.03
413.32	226.90
413.69	227.72
414.07	228.63
414.44	229.62
414.82	230.66
415.19	231.82
415.56	233.02
415.94	234.16
416.31	235.60
416.68	237.02
417.06	238.64
417.43	240.21
417.81	241.93
418.18	243.68
418.55	245.64
418.93	247.65
419.30	249.72
419.67	251.94
420.04	254.20
420.42	256.56
420.79	259.41
421.16	262.17
421.54	265.09
421.91	268.09
422.28	271.16
422.66	274.47
423.03	277.72
423.40	281.04
423.77	284.59
424.15	288.20
424.52	292.06
424.89	296.22
425.26	300.24
425.64	304.11
426.01	308.39
426.38	312.84
426.75	317.39
427.13	322.07
427.50	327.01
427.87	332.21
428.24	337.42
428.61	342.37
428.99	347.88
429.36	353.82
429.73	359.66
430.10	365.53
430.47	371.56
430.85	377.81
431.22	384.49
431.59	391.61
431.96	398.41
432.33	405.89
432.70	413.10
433.08	421.60
433.45	429.61
433.82	437.60
434.19	446.47
434.56	455.12
434.93	463.44
435.30	471.67
435.68	480.77
436.05	489.71
436.42	498.57
436.79	506.63
437.16	515.36
437.53	524.61
437.90	533.70
438.27	542.59
438.64	551.81
439.01	560.26
439.38	567.86
439.75	575.17
440.13	583.50
440.50	591.39
440.87	597.78
441.24	604.39
441.61	611.67
441.98	616.99
442.35	623.28
442.72	629.53
443.09	635.57
443.46	639.21
443.83	641.69
444.20	643.85
444.57	647.00
444.94	648.45
445.31	649.86
445.68	651.27
446.05	651.85
446.42	651.05
446.79	650.10
447.16	648.94
447.53	648.15
447.90	644.84
448.27	641.62
448.64	636.97
449.01	633.65
449.37	627.84
449.74	622.19
450.11	615.29
450.48	608.01
450.85	600.55
451.22	594.08
451.59	587.94
451.96	582.10
452.33	574.29
452.70	567.22
453.07	558.76
453.43	550.18
453.80	541.95
454.17	533.99
454.54	526.46
454.91	518.29
455.28	510.35
455.65	502.92
456.02	495.42
456.38	489.16
456.75	481.35
457.12	474.77
457.49	468.31
457.86	462.21
458.23	456.82
458.59	450.96
458.96	445.05
459.33	439.79
459.70	434.50
460.07	430.30
460.43	425.46
460.80	420.91
461.17	416.88
461.54	412.71
461.91	408.72
462.27	404.68
462.64	401.32
463.01	397.57
463.38	393.88
463.74	390.18
464.11	386.94
464.48	384.12
464.85	381.01
465.21	378.58
465.58	375.94
465.95	372.79
466.32	370.22
466.68	367.67
467.05	365.12
467.42	362.55
467.78	359.84
468.15	357.28
468.52	355.42
468.88	352.98
469.25	350.72
469.62	348.88
469.98	346.91
470.35	345.10
470.72	343.40
471.08	341.69
471.45	340.20
471.82	338.72
472.18	337.06
472.55	335.90
472.92	334.47
473.28	333.28
473.65	332.18
474.02	331.07
474.38	330.15
474.75	329.42
475.11	328.64
475.48	328.04
475.85	327.56
476.21	327.05
476.58	326.69
476.94	326.49
477.31	326.21
477.67	326.00
478.04	325.88
478.41	325.89
478.77	326.02
479.14	325.99
479.50	326.09
479.87	326.38
480.23	326.71
480.60	327.00
480.96	327.26
481.33	327.88
481.69	328.44
482.06	328.95
482.42	329.38
482.79	329.95
483.15	330.75
483.52	331.77
483.88	332.65
484.25	333.57
484.61	334.60
484.98	335.64
485.34	336.94
485.71	338.30
486.07	339.70
486.44	341.03
486.80	342.62
487.17	344.28
487.53	346.12
487.90	347.95
488.26	349.99
488.62	352.17
488.99	354.20
489.35	356.38
489.72	358.76
490.08	361.30
490.44	363.87
490.81	366.58
491.17	369.27
491.54	372.24
491.90	375.34
492.26	378.64
492.63	382.07
492.99	385.58
493.36	389.28
493.72	393.20
494.08	397.29
494.45	401.55
494.81	405.97
495.17	410.50
495.54	415.27
495.90	420.07
496.26	425.02
496.63	430.21
496.99	435.63
497.35	441.24
497.72	447.10
498.08	453.12
498.44	459.27
498.80	465.74
499.17	472.30
499.53	479.04
499.89	485.93
500.26	492.94
500.62	500.06
500.98	507.47
501.34	514.93
501.71	522.68
502.07	530.57
502.43	538.58
502.79	546.67
503.16	555.12
503.52	563.78
503.88	572.57
504.24	581.57
504.60	590.61
504.97	599.92
505.33	609.27
505.69	619.19
506.05	629.11
506.41	639.06
506.78	649.22
507.14	659.53
507.50	670.05
507.86	680.80
508.22	691.62
508.59	702.37
508.95	713.56
509.31	724.98
509.67	736.57
510.03	748.10
510.39	759.90
510.75	771.78
511.12	783.83
511.48	795.96
511.84	808.32
512.20	820.83
512.56	833.54
512.92	846.37
513.28	859.06
513.64	872.01
514.00	884.89
514.37	897.90
514.73	911.11
515.09	924.21
515.45	937.32
515.81	950.50
516.17	964.05
516.53	977.39
516.89	990.57
517.25	1003.76
517.61	1017.40
517.97	1030.89
518.33	1044.21
518.69	1057.87
519.05	1071.82
519.41	1085.58
519.77	1099.60
520.13	1113.01
520.49	1126.37
520.85	1139.96
521.21	1153.36
521.57	1167.11
521.93	1180.44
522.29	1194.32
522.65	1208.19
523.01	1221.97
523.37	1235.15
523.73	1248.54
524.09	1261.89
524.45	1275.45
524.81	1289.09
525.17	1302.63
525.53	1316.02
525.89	1329.41
526.25	1342.66
526.61	1355.43
526.97	1368.75
527.33	1381.83
527.68	1395.43
528.04	1409.04
528.40	1422.20
528.76	1435.68
529.12	1448.73
529.48	1462.08
529.84	1474.46
530.20	1487.30
530.56	1499.96
530.91	1513.42
531.27	1526.38
531.63	1539.21
531.99	1551.97
532.35	1564.40
532.71	1576.84
533.07	1589.85
533.42	1602.18
533.78	1614.27
534.14	1626.71
534.50	1638.07
534.86	1649.64
535.21	1660.65
535.57	1672.27
535.93	1683.66
536.29	1694.76
536.65	1706.37
537.00	1717.39
537.36	1728.85
537.72	1739.83
538.08	1751.27
538.44	1762.37
538.79	1773.52
539.15	1784.39
539.51	1795.24
539.87	1806.56
540.22	1817.45
540.58	1828.51
540.94	1839.56
541.29	1849.92
541.65	1859.66
542.01	1870.19
542.37	1880.49
542.72	1890.71
543.08	1900.48
543.44	1911.15
543.79	1920.59
544.15	1930.03
544.51	1940.14
544.87	1950.17
545.22	1959.49
545.58	1968.34
545.94	1977.17
546.29	1985.75
546.65	1994.25
547.01	2002.57
547.36	2010.28
547.72	2017.97
548.07	2025.55
548.43	2033.38
548.79	2041.36
549.14	2049.57
549.50	2058.16
549.86	2066.12
550.21	2073.71
550.57	2081.51
550.92	2088.22
551.28	2095.75
551.64	2103.14
551.99	2110.62
552.35	2117.88
552.70	2124.76
553.06	2131.64
553.41	2138.05
553.77	2144.67
554.13	2151.11
554.48	2158.17
554.84	2165.37
555.19	2172.11
555.55	2178.51
555.90	2184.92
556.26	2191.78
556.61	2197.78
556.97	2202.51
557.32	2208.29
557.68	2214.67
558.03	2220.43
558.39	2225.84
558.74	2231.85
559.10	2237.29
559.45	2242.92
559.81	2248.47
560.16	2254.10
560.52	2259.89
560.87	2266.30
561.23	2272.27
561.58	2279.10
561.94	2284.45
562.29	2289.24
562.64	2295.48
563.00	2301.51
563.35	2306.99
563.71	2312.82
564.06	2318.63
564.42	2324.80
564.77	2329.86
565.12	2335.30
565.48	2340.52
565.83	2346.17
566.19	2351.64
566.54	2357.17
566.89	2361.81
567.25	2366.48
567.60	2372.30
567.96	2377.72
568.31	2382.45
568.66	2386.79
569.02	2390.70
569.37	2394.46
569.72	2398.92
570.08	2402.32
570.43	2405.30
570.78	2408.50
571.14	2411.11
571.49	2414.25
571.84	2417.82
572.20	2420.87
572.55	2423.75
572.90	2426.16
573.26	2428.85
573.61	2431.42
573.96	2433.63
574.31	2435.67
574.67	2437.51
575.02	2438.32
575.37	2439.62
575.72	2440.31
576.08	2441.88
576.43	2442.05
576.78	2442.48
577.13	2443.98
577.49	2445.21
577.84	2446.22
578.19	2447.54
578.54	2448.11
578.90	2448.89
579.25	2448.67
579.60	2448.62
579.95	2447.99
580.30	2448.06
580.66	2447.46
581.01	2445.89
581.36	2443.58
581.71	2442.33
582.06	2441.23
582.42	2440.36
582.77	2438.24
583.12	2436.58
583.47	2435.11
583.82	2434.48
584.17	2433.43
584.53	2431.54
584.88	2429.42
585.23	2427.59
585.58	2425.30
585.93	2423.37
586.28	2421.31
586.63	2418.84
586.98	2416.80
587.34	2414.82
587.69	2412.30
588.04	2410.28
588.39	2408.85
588.74	2406.44
589.09	2403.79
589.44	2400.62
589.79	2398.21
590.14	2396.29
590.49	2393.75
590.84	2389.98
591.19	2386.94
591.54	2383.58
591.89	2379.51
592.25	2376.34
592.60	2372.14
592.95	2368.11
593.30	2364.00
593.65	2359.47
594.00	2355.12
594.35	2351.89
594.70	2347.14
595.05	2342.77
595.40	2337.33
595.75	2331.48
596.10	2327.81
596.45	2322.89
596.80	2318.24
597.15	2313.01
597.50	2307.02
597.85	2301.93
598.19	2296.65
598.54	2290.84
598.89	2285.67
599.24	2281.12
599.59	2274.92
599.94	2269.11
600.29	2263.05
600.64	2256.98
600.99	2250.23
601.34	2244.81
601.69	2237.94
602.04	2231.60
602.39	2224.91
602.74	2218.73
603.08	2213.24
603.43	2206.71
603.78	2199.83
604.13	2192.67
604.48	2185.31
604.83	2179.18
605.18	2172.78
605.53	2165.80
605.87	2158.67
606.22	2151.72
606.57	2143.60
606.92	2135.62
607.27	2128.62
607.62	2121.96
607.96	2114.91
608.31	2108.44
608.66	2100.56
609.01	2092.79
609.36	2085.59
609.70	2077.87
610.05	2070.09
610.40	2061.64
610.75	2053.12
611.10	2045.37
611.44	2036.55
611.79	2027.85
612.14	2017.74
612.49	2007.11
612.83	1997.67
613.18	1988.25
613.53	1979.05
613.88	1969.43
614.22	1960.69
614.57	1950.70
614.92	1940.04
615.27	1929.64
615.61	1919.37
615.96	1909.67
616.31	1899.82
616.65	1890.20
617.00	1880.17
617.35	1870.31
617.70	1860.59
618.04	1850.66
618.39	1840.31
618.74	1830.49
619.08	1820.65
619.43	1812.05
619.78	1803.78
620.12	1795.14
620.47	1785.49
620.82	1774.89
621.16	1765.03
621.51	1755.05
621.85	1745.19
622.20	1734.74
622.55	1724.29
622.89	1714.30
623.24	1704.46
623.59	1694.65
623.93	1684.54
624.28	1674.83
624.62	1664.75
624.97	1654.37
625.32	1644.28
625.66	1635.35
626.01	1626.53
626.35	1617.17
626.70	1606.76
627.04	1596.50
627.39	1586.22
627.73	1576.96
628.08	1567.99
628.43	1558.32
628.77	1548.99
629.12	1539.98
629.46	1532.02
629.81	1523.46
630.15	1513.85
630.50	1503.92
630.84	1493.39
631.19	1483.35
631.53	1473.79
631.88	1463.53
632.22	1453.39
632.57	1444.04
632.91	1433.78
633.26	1423.87
633.60	1414.14
633.95	1404.93
634.29	1395.41
634.64	1386.00
634.98	1375.92
635.32	1366.54
635.67	1358.02
636.01	1348.63
636.36	1338.82
636.70	1329.21
637.05	1319.74
637.39	1310.82
637.73	1302.11
638.08	1294.46
638.42	1286.26
638.77	1277.41
639.11	1269.11
639.45	1261.15
639.80	1252.54
640.14	1243.77
640.49	1234.71
640.83	1225.81
641.17	1217.44
641.52	1209.07
641.86	1200.45
642.20	1192.50
642.55	1183.74
642.89	1174.64
643.23	1165.89
643.58	1157.65
643.92	1148.50
644.26	1139.71
644.61	1131.12
644.95	1122.28
645.29	1112.99
645.64	1103.75
645.98	1095.23
646.32	1087.22
646.66	1078.65
647.01	1070.25
647.35	1061.93
647.69	1053.52
648.04	1045.16
648.38	1036.25
648.72	1027.50
649.06	1018.89
649.41	1010.56
649.75	1002.54
650.09	994.61
650.43	986.47
650.78	978.05
651.12	970.24
651.46	962.71
651.80	955.37
652.14	947.96
652.49	940.35
652.83	932.88
653.17	925.02
653.51	917.27
653.85	909.96
654.20	902.59
654.54	895.10
654.88	887.77
655.22	880.45
655.56	873.27
655.90	866.41
656.25	859.70
656.59	852.70
656.93	845.67
657.27	838.46
657.61	831.45
657.95	825.21
658.29	819.23
658.64	813.04
658.98	806.42
659.32	799.79
659.66	793.46
660.00	787.01
660.34	780.86
660.68	774.65
661.02	768.17
661.36	762.09
661.70	756.17
662.05	750.52
662.39	744.91
662.73	739.45
663.07	733.90
663.41	728.14
663.75	722.37
664.09	716.51
664.43	711.02
664.77	705.62
665.11	699.80
665.45	693.81
665.79	687.92
666.13	682.20
666.47	676.59
666.81	671.14
667.15	665.68
667.49	660.42
667.83	655.06
668.17	649.79
668.51	644.66
668.85	639.72
669.19	634.69
669.53	629.66
669.87	624.54
670.21	619.80
670.55	615.12
670.89	610.62
671.23	606.32
671.57	601.91
671.91	597.56
672.25	593.37
672.58	589.21
672.92	585.12
673.26	581.07
673.60	577.12
673.94	573.16
674.28	569.53
674.62	565.76
674.96	561.93
675.30	558.36
675.64	554.63
675.97	550.91
676.31	547.31
676.65	543.62
676.99	540.11
677.33	536.19
677.67	532.45
678.01	528.54
678.34	524.85
678.68	521.23
679.02	517.58
679.36	513.83
679.70	510.10
680.04	506.54
680.37	503.06
680.71	499.67
681.05	496.45
681.39	493.07
681.73	489.84
682.06	486.84
682.40	483.69
682.74	480.48
683.08	477.30
683.42	474.04
683.75	471.02
684.09	467.96
684.43	465.05
684.77	462.07
685.10	459.19
685.44	456.21
685.78	453.30
686.12	450.45
686.45	447.68
686.79	444.98
687.13	442.35
687.46	439.71
687.80	437.06
688.14	434.18
688.48	431.56
688.81	428.85
689.15	426.21
689.49	423.59
689.82	421.03
690.16	418.33
690.50	415.85
690.83	413.29
691.17	410.72
691.51	408.26
691.84	405.96
692.18	403.72
692.52	401.47
692.85	399.28
693.19	397.12
693.52	394.92
693.86	392.66
694.20	390.49
694.53	388.30
694.87	386.02
695.21	383.84
695.54	381.66
695.88	379.51
696.21	377.26
696.55	375.11
696.88	373.02
697.22	371.06
697.56	369.13
697.89	367.19
698.23	365.40
698.56	363.56
698.90	361.80
699.23	359.88
699.57	357.93
699.90	356.02
700.24	354.14
700.58	352.38
700.91	350.69
701.25	349.07
701.58	347.45
701.92	345.86
702.25	344.25
702.59	342.56
702.92	341.02
703.26	339.47
703.59	337.98
703.93	336.70
704.26	335.23
704.60	333.71
704.93	332.24
705.26	330.73
705.60	329.25
705.93	327.71
706.27	326.35
706.60	325.14
706.94	323.92
707.27	322.55
707.61	321.17
707.94	319.83
708.27	318.30
708.61	316.84
708.94	315.43
709.28	314.12
709.61	312.89
709.94	311.65
710.28	310.40
710.61	309.19
710.95	307.75
711.28	306.68
711.61	305.43
711.95	304.26
712.28	303.01
712.61	301.83
712.95	300.74
713.28	299.72
713.61	298.49
713.95	297.31
714.28	296.29
714.61	295.24
714.95	294.25
715.28	293.21
715.61	292.21
715.95	291.27
716.28	290.27
716.61	289.32
716.95	288.32
717.28	287.37
717.61	286.39
717.94	285.47
718.28	284.41
718.61	283.55
718.94	282.66
719.27	281.84
719.61	280.97
719.94	280.10
720.27	279.10
720.60	278.25
720.94	277.43
721.27	276.67
721.60	275.95
721.93	275.19
722.27	274.55
722.60	273.84
722.93	273.14
723.26	272.51
723.59	271.81
723.93	271.15
724.26	270.51
724.59	269.85
724.92	269.30
725.25	268.72
725.59	268.12
725.92	267.56
726.25	266.96
726.58	266.41
726.91	265.78
727.24	265.27
727.57	264.70
727.91	264.08
728.24	263.52
728.57	262.94
728.90	262.36
729.23	261.75
729.56	261.31
729.89	260.76
730.22	260.15
730.55	259.56
730.89	259.02
731.22	258.45
731.55	257.93
731.88	257.35
732.21	256.78
732.54	256.25
732.87	255.74
733.20	255.26
733.53	254.74
733.86	254.30
734.19	253.77
734.52	253.39
734.85	253.10
735.18	252.57
735.51	252.19
735.84	251.76
736.17	251.33
736.50	250.80
736.83	250.62
737.16	250.23
737.49	249.92
737.82	249.51
738.15	249.15
738.48	248.77
738.81	248.38
739.14	248.04
739.47	247.69
739.80	247.32
740.13	246.95
740.46	246.57
740.79	246.17
741.12	245.83
741.45	245.42
741.78	244.99
742.11	244.75
742.44	244.38
742.77	244.07
743.10	243.73
743.43	243.36
743.75	242.82
744.08	242.74
744.41	242.34
744.74	241.96
745.07	241.57
745.40	241.26
745.73	241.01
746.06	240.65
746.39	240.32
746.71	239.98
747.04	239.62
747.37	239.30
747.70	239.04
748.03	238.74
748.36	238.47
748.68	238.13
749.01	237.73
749.34	237.39
749.67	237.10
750.00	236.85
750.33	236.71
750.65	236.42
750.98	235.92
751.31	235.66
751.64	235.46
751.97	235.35
752.29	235.07
752.62	234.72
752.95	234.49
753.28	234.21
753.60	233.96
753.93	233.80
754.26	233.61
754.59	233.30
754.91	233.07
755.24	232.84
755.57	232.62
755.90	232.43
756.22	232.21
756.55	231.98
756.88	231.74
757.20	231.40
757.53	231.14
757.86	230.93
758.19	230.75
758.51	230.54
758.84	230.23
759.17	230.03
759.49	229.87
759.82	229.79
760.15	229.64
760.47	229.46
760.80	229.18
761.13	229.01
761.45	228.87
761.78	228.69
762.11	228.49
762.43	228.31
762.76	228.10
763.08	227.93
763.41	227.77
763.74	227.60
764.06	227.43
764.39	227.32
764.71	227.13
765.04	226.95
765.37	226.78
765.69	226.64
766.02	226.49
766.34	226.32
766.67	226.12
767.00	226.04
767.32	226.01
767.65	226.04
767.97	225.88
768.30	225.74
768.62	225.61
768.95	225.48
769.27	225.34
769.60	225.26
769.92	225.11
770.25	224.93
770.57	224.82
770.90	224.71
771.22	224.54
771.55	224.43
771.87	224.31
772.20	224.20
772.52	224.28
772.85	224.44
773.17	224.35
773.50	224.20
773.82	224.04
774.15	223.84
774.47	223.62
774.80	223.50
775.12	223.40
775.45	223.28
775.77	223.22
776.09	223.11
776.42	223.02
776.74	222.98
777.07	222.94
777.39	222.80
777.72	222.71
778.04	222.66
778.36	222.60
778.69	222.54
779.01	222.44
779.33	222.18
779.66	221.85
779.98	221.71
780.31	221.65
780.63	221.65
780.95	221.62
781.28	221.53
781.60	221.45
781.92	221.37
782.25	221.32
782.57	221.23
782.89	221.18
783.22	221.07
783.54	220.97
783.86	220.91
784.19	220.85
784.51	220.84
784.83	220.76
785.16	220.66
785.48	220.62
785.80	220.57
786.12	220.51
786.45	220.43
786.77	220.48
787.09	220.43
787.42	220.30
787.74	220.23
788.06	220.19
788.38	220.10
788.71	220.07
789.03	220.01
789.35	219.97
789.67	219.88
789.99	219.87
790.32	219.79
790.64	219.75
790.96	219.88
791.28	219.76
791.61	219.68
791.93	219.66
792.25	219.58
792.57	219.69
792.89	219.62
793.21	219.56
793.54	219.46
793.86	219.38
794.18	219.37
794.50	219.30
794.82	219.25
795.14	219.26
795.47	219.22
795.79	219.18
796.11	219.10
796.43	219.08
796.75	219.07
797.07	219.03
797.39	219.00
797.71	218.79
798.04	218.77
798.36	218.74
798.68	218.69
799.00	218.66
799.32	218.50
799.64	218.48
799.96	218.47
800.28	218.46
800.60	218.40
800.92	218.36
801.24	218.28
801.56	218.27
801.89	218.22
802.21	218.20
802.53	218.11
802.85	218.16
803.17	218.24
803.49	218.14
803.81	218.09
804.13	218.07
804.45	218.02
804.77	218.01
805.09	217.98
805.41	217.96
805.73	217.88
806.05	217.79
806.37	217.78
806.69	217.72
807.01	217.69
807.33	217.69
807.65	217.58
807.97	217.68
808.28	217.59
808.60	217.58
808.92	217.48
809.24	217.58
809.56	217.44
809.88	217.30
810.20	217.28
810.52	217.30
810.84	217.21
811.16	217.16
811.48	217.09
811.80	217.12
812.12	217.09
812.43	217.13
812.75	217.12
813.07	217.05
813.39	217.05
813.71	217.00
814.03	216.95
814.35	216.94
814.67	216.83
814.98	216.80
815.30	216.77
815.62	216.74
815.94	216.59
816.26	216.63
816.58	216.56
816.89	216.57
817.21	216.50
817.53	216.50
817.85	216.53
818.17	216.53
818.48	216.46
818.80	216.49
819.12	216.41
819.44	216.37
819.76	216.38
820.07	216.34
820.39	216.32
820.71	216.31
821.03	216.30
821.34	216.28
821.66	216.28
821.98	216.31
822.30	216.29
822.61	216.41
822.93	216.37
823.25	216.41
823.57	216.33
823.88	216.37
824.20	216.35
824.52	216.37
824.83	216.33
825.15	216.29
825.47	216.23
825.79	216.22
826.10	216.20
826.42	216.15
826.74	216.18
827.05	216.17
827.37	216.16
827.69	216.13
828.00	216.11
828.32	216.10
828.64	216.05
828.95	216.15
829.27	216.10
829.58	216.10
829.90	216.10
830.22	216.15
830.53	216.08
830.85	216.07
831.17	215.99
831.48	215.98
831.80	215.98
832.11	215.97
832.43	215.97
832.75	215.95
833.06	216.06
833.38	215.98
833.69	215.93
834.01	215.96
834.32	215.95
834.64	215.94
834.96	215.95
835.27	215.91
835.59	215.85
835.90	215.76
836.22	215.73
836.53	215.66
836.85	215.62
837.16	215.82
837.48	215.80
837.79	215.87
838.11	215.85
838.42	215.84
838.74	215.87
839.05	215.89
839.37	215.90
839.68	215.77
840.00	215.77
840.31	215.84
840.63	215.79
840.94	215.78
841.26	215.73
841.57	215.72
841.88	215.72
842.20	215.67
842.51	215.70
842.83	215.68
843.14	215.86
843.46	215.90
843.77	215.79
844.08	215.77
844.40	215.69
844.71	215.65
845.03	215.62
845.34	215.59
845.65	215.54
845.97	215.52
846.28	215.53
846.60	215.55
846.91	215.50
847.22	215.47
847.54	215.51
847.85	215.51
848.16	215.50
848.48	215.47
848.79	215.55
849.10	215.55
849.42	215.57
849.73	215.35
850.04	215.31
850.36	215.23
850.67	215.25
850.98	215.27
851.30	215.29
851.61	215.27
851.92	215.25
852.23	215.31
852.55	215.33
852.86	215.34
853.17	215.34
853.49	215.38
853.80	215.43
854.11	215.42
854.42	215.43
854.74	215.38
855.05	215.41
855.36	215.31
855.67	215.30
855.99	215.31
856.30	215.56
856.61	215.55
856.92	215.55
857.23	215.52
857.55	215.49
857.86	215.48
858.17	215.53
858.48	215.50
858.79	215.48
859.11	215.46
859.42	215.39
859.73	215.35
860.04	215.31
860.35	215.22
860.66	215.17
860.98	215.17
861.29	215.23
861.60	215.19
861.91	215.22
862.22	215.18
862.53	215.11
862.84	214.86
863.16	214.88
863.47	214.86
863.78	214.84
864.09	214.84
864.40	214.86
864.71	214.83
865.02	214.82
865.33	214.74
865.64	214.74
865.95	214.77
866.27	214.92
866.58	214.90
866.89	214.92
867.20	214.91
867.51	214.85
867.82	214.82
868.13	214.86
868.44	214.82
868.75	214.86
869.06	214.88
869.37	214.92
869.68	214.89
869.99	214.87
870.30	214.89
870.61	214.93
870.92	214.92
871.23	214.95
871.54	214.99
871.85	215.05
872.16	215.07
872.47	215.08
872.78	214.93
873.09	214.96
873.40	214.93
873.71	214.92
874.02	214.96
874.33	214.93
874.64	214.90
874.95	214.94
875.26	214.89
875.56	214.88
875.87	214.87
876.18	214.85
876.49	215.10
876.80	215.07
877.11	215.01
877.42	214.98
877.73	214.95
878.04	214.91
878.35	214.94
878.66	214.93
878.96	214.91
879.27	214.89
879.58	214.87
879.89	214.87
880.20	214.94
880.51	214.95
880.82	214.99
881.12	215.00
881.43	214.95
881.74	214.94
882.05	214.91
882.36	214.91
882.67	214.91
882.97	214.68
883.28	214.68
883.59	214.69
883.90	214.74
884.21	214.78
884.51	214.80
884.82	214.76
885.13	214.79
885.44	214.80
885.74	214.82
886.05	214.81
886.36	214.85
886.67	214.77
886.98	214.85
887.28	214.87
887.59	214.85
887.90	214.87
888.20	214.86
888.51	214.95
888.82	214.93
889.13	214.97
889.43	215.13
889.74	215.16
890.05	215.13
890.35	215.08
890.66	215.04
890.97	215.02
891.28	215.01
891.58	214.96
891.89	214.96
892.20	214.91
892.50	214.90
892.81	214.87
893.12	214.89
893.42	214.81
893.73	214.78
894.04	214.81
894.34	214.83
894.65	214.87
894.95	214.82
895.26	214.81
895.57	214.92
895.87	214.74
896.18	214.73
896.48	214.77
896.79	214.80
897.10	214.81
897.40	214.81
897.71	214.81
898.01	214.82
898.32	214.84
898.63	214.86
898.93	214.88
899.24	214.92
899.54	214.90
899.85	214.86
900.15	214.84
900.46	214.84
900.76	214.83
901.07	214.79
901.38	214.77
901.68	214.84
901.99	214.68
902.29	214.70
902.60	214.68
902.90	214.62
903.21	214.60
903.51	214.59
903.82	214.65
904.12	214.63
904.43	214.64
904.73	214.61
905.03	214.62
905.34	214.81
905.64	214.78
905.95	214.76
906.25	214.76
906.56	214.74
906.86	214.72
907.17	214.71
907.47	214.74
907.77	214.74
908.08	214.66
908.38	214.70
908.69	214.72
908.99	214.75
909.30	214.81
909.60	214.83
909.90	214.80
910.21	214.73
910.51	214.71
910.81	214.72
911.12	214.74
911.42	214.74
911.73	214.55
912.03	214.55
912.33	214.59
912.64	214.59
912.94	214.62
913.24	214.60
913.55	214.59
913.85	214.56
914.15	214.60
914.46	214.62
914.76	214.61
915.06	214.58
915.37	214.55
915.67	214.54
915.97	214.53
916.27	214.52
916.58	214.53
916.88	214.57
917.18	214.54
917.49	214.67
917.79	214.65
918.09	214.67
918.39	214.74
918.70	214.74
919.00	214.72
919.30	214.80
919.60	214.77
919.91	214.77
920.21	214.78
920.51	214.75
920.81	214.74
921.12	214.74
921.42	214.72
921.72	214.71
922.02	214.71
922.32	214.72
922.63	214.73
922.93	214.84
923.23	214.81
923.53	214.80
923.83	214.65
924.13	214.69
924.44	214.68
924.74	214.66
925.04	214.72
925.34	214.72
925.64	214.63
925.94	214.64
926.24	214.73
926.55	214.73
926.85	214.75
927.15	214.71
927.45	214.72
927.75	214.73
928.05	214.74
928.35	214.71
928.65	214.74
928.95	214.76
929.26	214.69
929.56	214.75
929.86	214.77
930.16	214.79
930.46	214.76
930.76	214.76
931.06	214.69
931.36	214.65
931.66	214.70
931.96	214.70
932.26	214.73
932.56	214.63
932.86	214.63
933.16	214.63
933.46	214.64
933.76	214.66
934.06	214.73
934.36	214.81
934.66	214.82
934.96	214.83
935.26	214.86
935.56	214.87
935.86	214.81
936.16	214.77
936.46	214.72
936.76	214.71
937.06	214.70
937.36	214.72
937.66	214.70
937.96	214.69
938.26	214.67
938.56	214.61
938.86	214.64
939.16	214.69
939.46	214.72
939.76	214.70
940.06	214.67
940.35	214.62
940.65	214.50
940.95	214.53
941.25	214.45
941.55	214.41
941.85	214.39
942.15	214.43
942.45	214.51
942.75	214.54
943.04	214.54
943.34	214.54
943.64	214.51
943.94	214.48
944.24	214.48
944.54	214.50
944.84	214.55
945.13	214.51
945.43	214.46
945.73	214.42
946.03	214.41
946.33	214.40
946.62	214.38
946.92	214.40
947.22	214.42
947.52	214.42
947.82	214.41
948.11	214.36
948.41	214.30
948.71	214.20
949.01	214.20
949.31	214.19
949.60	214.18
949.90	214.21
950.20	214.22
950.50	214.23
950.79	214.21
951.09	214.20
951.39	214.18
951.69	214.16
951.98	214.18
952.28	214.21
952.58	214.19
952.87	214.19
953.17	214.22
953.47	214.17
953.76	214.17
954.06	214.14
954.36	214.14
954.66	214.13
954.95	214.20
955.25	214.20
955.55	214.23
955.84	214.21
956.14	214.20
956.44	214.20
956.73	214.15
957.03	214.14
957.32	214.15
957.62	214.17
957.92	214.24
958.21	214.22
958.51	214.48
958.81	214.52
959.10	214.57
959.40	214.59
959.69	214.60
959.99	214.64
960.29	214.67
960.58	214.68
960.88	214.77
961.17	214.76
961.47	214.77
961.76	214.74
962.06	214.77
962.36	214.76
962.65	214.76
962.95	214.78
963.24	214.78
963.54	214.82
963.83	214.83
964.13	214.81
964.42	214.79
964.72	214.57
965.01	214.56
965.31	214.54
965.60	214.51
965.90	214.63
966.19	214.59
966.49	214.58
966.78	214.56
967.08	214.53
967.37	214.54
967.67	214.50
967.96	214.55
968.26	214.56
968.55	214.64
968.85	214.63
969.14	214.62
969.43	214.61
969.73	214.58
970.02	214.53
970.32	214.50
970.61	214.49
970.91	214.44
971.20	214.40
971.49	214.38
971.79	214.39
972.08	214.24
972.38	214.25
972.67	214.28
972.96	214.32
973.26	214.29
973.55	214.31
973.85	214.31
974.14	214.26
974.43	214.23
974.73	214.18
975.02	214.19
975.31	214.19
975.61	214.18
975.90	214.16
976.19	214.17
976.49	214.20
976.78	214.21
977.07	214.22
977.37	214.25
977.66	214.24
977.95	214.23
978.24	214.27
978.54	214.32
978.83	214.29
979.12	214.28
979.42	214.30
979.71	214.28
980.00	214.27
980.29	214.34
980.59	214.33
980.88	214.38
981.17	214.36
981.46	214.37
981.76	214.37
982.05	214.44
982.34	214.44
982.63	214.43
982.93	214.45
983.22	214.48
983.51	214.51
983.80	214.54
984.09	214.59
984.39	214.58
984.68	214.53
984.97	214.56
985.26	214.48
985.55	214.48
985.85	214.44
986.14	214.49
986.43	214.52
986.72	214.52
987.01	214.47
987.30	214.50
987.59	214.49
987.89	214.51
988.18	214.46
988.47	214.46
988.76	214.44
989.05	214.43
989.34	214.42
989.63	214.42
989.92	214.42
990.22	214.36
990.51	214.36
990.80	214.36
991.09	214.34
991.38	214.40
991.67	214.38
991.96	214.37
992.25	214.35
992.54	214.27
992.83	214.26
993.12	214.25
993.41	214.24
993.70	214.33
993.99	214.39
994.28	214.39
994.58	214.42
994.87	214.42
995.16	214.41
995.45	214.39
995.74	214.32
996.03	214.33
996.32	214.38
996.61	214.44
996.90	214.44
997.19	214.41
997.48	214.44
997.77	214.41
998.06	214.41
998.34	214.39
998.63	214.42
998.92	214.43
999.21	214.45
999.50	214.49
999.79	214.41
1000.08	214.36
1000.37	214.37
1000.66	214.33
1000.95	214.38
1001.24	214.38
1001.53	214.42
1001.82	214.44
1002.11	214.38
1002.40	214.36
1002.68	214.38
1002.97	214.49
1003.26	214.49
1003.55	214.41
1003.84	214.44
1004.13	214.50
1004.42	214.49
1004.71	214.46
1004.99	214.45
1005.28	214.46
1005.57	214.41
1005.86	214.39
1006.15	214.38
1006.44	214.34
1006.72	214.35
1007.01	214.31
1007.30	214.31
1007.59	214.26
1007.88	214.26
1008.17	214.28
1008.45	214.28
1008.74	214.21
1009.03	214.14
1009.32	214.15
1009.60	214.21
1009.89	214.19
1010.18	214.11
1010.47	214.08
1010.76	214.10
1011.04	214.08
1011.33	214.17
1011.62	214.18
1011.91	214.23
1012.19	214.22
1012.48	214.24
1012.77	214.26
1013.05	214.36
1013.34	214.36
1013.63	214.37
1013.92	214.39
1014.20	214.38
1014.49	214.35
1014.78	214.36
1015.06	214.31
1015.35	214.33
1015.64	214.35
1015.92	214.40
1016.21	214.46
1016.50	214.50
1016.78	214.52
1017.07	214.54
1017.36	214.44
1017.64	214.43
1017.93	214.42
1018.22	214.44
1018.50	214.45
1018.79	214.46
1019.08	214.33
1019.36	214.38
1019.65	214.36
1019.93	214.41
1020.22	214.46
1020.51	214.56
1020.79	214.53
1021.08	214.23
1021.36	214.14
1021.65	214.50
1021.94	213.88
1022.22	214.93
1022.51	213.65
1022.79	215.40
1023.08	215.04
1023.36	216.33
1023.65	213.66
>>>>>End Processed Spectral Data<<<<<
