SpectraSuite Data File
++++++++++++++++++++++++++++++++++++
Date: Tue Jan 29 15:55:17 EST 2013
User: group
Dark Spectrum Present: No
Reference Spectrum Present: No
Number of Sampled Component Spectra: 1
Spectrometers: USB2E7196
Integration Time (usec): 65000 (USB2E7196)
Spectra Averaged: 100 (USB2E7196)
Boxcar Smoothing: 10 (USB2E7196)
Correct for Electrical Dark: No (USB2E7196)
Strobe/Lamp Enabled: No (USB2E7196)
Correct for Detector Non-linearity: No (USB2E7196)
Correct for Stray Light: No (USB2E7196)
Number of Pixels in Processed Spectrum: 2048
>>>>>Begin Processed Spectral Data<<<<<
339.09	0.00
339.48	202.95
339.86	204.23
340.24	205.35
340.63	206.92
341.01	211.18
341.39	209.42
341.78	210.79
342.16	212.60
342.54	212.95
342.93	201.75
343.31	211.94
343.69	212.46
344.07	212.94
344.46	213.41
344.84	213.83
345.22	214.03
345.60	214.32
345.99	214.54
346.37	214.65
346.75	214.75
347.13	214.82
347.52	214.91
347.90	215.06
348.28	215.09
348.66	215.22
349.05	215.21
349.43	215.33
349.81	215.39
350.19	215.51
350.57	215.58
350.96	215.65
351.34	215.79
351.72	215.91
352.10	216.00
352.48	216.08
352.87	216.14
353.25	216.21
353.63	216.27
354.01	216.35
354.39	216.45
354.77	216.54
355.15	216.72
355.54	216.76
355.92	216.77
356.30	216.84
356.68	217.02
357.06	217.13
357.44	217.16
357.82	217.22
358.20	217.29
358.58	217.37
358.97	217.48
359.35	217.58
359.73	217.71
360.11	217.81
360.49	217.84
360.87	217.91
361.25	217.99
361.63	218.13
362.01	218.17
362.39	218.20
362.77	218.23
363.15	218.24
363.53	218.29
363.91	218.33
364.29	218.36
364.67	218.22
365.05	218.25
365.43	218.34
365.81	218.40
366.19	218.47
366.57	218.58
366.95	218.56
367.33	218.51
367.71	218.48
368.09	218.50
368.47	218.52
368.85	218.49
369.23	218.54
369.61	218.48
369.99	218.55
370.37	218.58
370.75	218.67
371.13	218.63
371.51	218.61
371.89	218.61
372.27	218.65
372.65	218.63
373.03	218.58
373.41	218.49
373.78	218.42
374.16	218.30
374.54	218.19
374.92	218.10
375.30	218.08
375.68	217.98
376.06	217.93
376.44	217.87
376.82	217.87
377.19	217.79
377.57	217.70
377.95	217.58
378.33	217.53
378.71	217.39
379.09	217.38
379.47	217.39
379.84	217.32
380.22	217.23
380.60	217.14
380.98	217.08
381.36	217.03
381.73	216.96
382.11	216.95
382.49	216.91
382.87	216.83
383.25	216.77
383.62	216.98
384.00	216.92
384.38	216.90
384.76	216.88
385.13	216.89
385.51	216.87
385.89	216.83
386.27	216.75
386.64	216.73
387.02	216.67
387.40	216.59
387.78	216.54
388.15	216.54
388.53	216.49
388.91	216.45
389.29	216.40
389.66	216.41
390.04	216.34
390.42	216.36
390.79	216.40
391.17	216.37
391.55	216.13
391.92	216.10
392.30	216.06
392.68	216.00
393.05	215.98
393.43	215.97
393.81	215.96
394.18	215.95
394.56	215.97
394.94	216.02
395.31	216.02
395.69	216.10
396.06	216.12
396.44	216.20
396.82	216.22
397.19	216.35
397.57	216.36
397.95	216.43
398.32	216.40
398.70	216.43
399.07	216.52
399.45	216.57
399.82	216.61
400.20	216.67
400.58	216.72
400.95	216.72
401.33	216.84
401.70	217.03
402.08	217.11
402.45	217.20
402.83	217.33
403.20	217.42
403.58	217.49
403.95	217.63
404.33	217.77
404.71	217.91
405.08	218.14
405.46	218.28
405.83	218.44
406.21	218.66
406.58	218.90
406.96	219.13
407.33	219.39
407.70	219.71
408.08	220.14
408.45	220.45
408.83	220.80
409.20	221.11
409.58	221.41
409.95	221.84
410.33	222.30
410.70	222.68
411.08	223.25
411.45	223.80
411.82	224.33
412.20	225.01
412.57	225.81
412.95	226.34
413.32	227.16
413.69	227.96
414.07	228.80
414.44	229.74
414.82	230.67
415.19	231.79
415.56	232.93
415.94	234.06
416.31	235.42
416.68	236.74
417.06	238.27
417.43	239.73
417.81	241.36
418.18	243.07
418.55	244.93
418.93	246.89
419.30	248.89
419.67	251.04
420.04	253.18
420.42	255.44
420.79	258.18
421.16	260.84
421.54	263.64
421.91	266.46
422.28	269.40
422.66	272.59
423.03	275.71
423.40	278.95
423.77	282.38
424.15	285.90
424.52	289.57
424.89	293.57
425.26	297.47
425.64	301.23
426.01	305.33
426.38	309.57
426.75	313.94
427.13	318.49
427.50	323.26
427.87	328.23
428.24	333.22
428.61	337.99
428.99	343.30
429.36	349.01
429.73	354.67
430.10	360.33
430.47	366.11
430.85	372.13
431.22	378.49
431.59	385.30
431.96	391.80
432.33	398.99
432.70	405.90
433.08	414.07
433.45	421.79
433.82	429.42
434.19	437.92
434.56	446.22
434.93	454.16
435.30	462.12
435.68	470.89
436.05	479.46
436.42	488.03
436.79	495.83
437.16	504.27
437.53	513.20
437.90	522.00
438.27	530.59
438.64	539.44
439.01	547.66
439.38	554.93
439.75	561.99
440.13	570.12
440.50	577.73
440.87	583.89
441.24	590.25
441.61	597.31
441.98	602.46
442.35	608.43
442.72	614.47
443.09	620.20
443.46	623.72
443.83	626.14
444.20	628.14
444.57	631.10
444.94	632.48
445.31	633.81
445.68	635.10
446.05	635.61
446.42	634.78
446.79	633.82
447.16	632.73
447.53	631.97
447.90	628.71
448.27	625.50
448.64	621.07
449.01	617.78
449.37	612.12
449.74	606.75
450.11	600.19
450.48	593.14
450.85	586.01
451.22	579.84
451.59	573.96
451.96	568.40
452.33	560.90
452.70	554.05
453.07	545.95
453.43	537.70
453.80	529.85
454.17	522.29
454.54	515.10
454.91	507.33
455.28	499.79
455.65	492.74
456.02	485.67
456.38	479.62
456.75	472.21
457.12	465.97
457.49	459.76
457.86	453.88
458.23	448.80
458.59	443.21
458.96	437.50
459.33	432.44
459.70	427.37
460.07	423.33
460.43	418.71
460.80	414.32
461.17	410.51
461.54	406.46
461.91	402.60
462.27	398.65
462.64	395.34
463.01	391.67
463.38	388.12
463.74	384.61
464.11	381.54
464.48	378.86
464.85	375.88
465.21	373.55
465.58	371.04
465.95	367.99
466.32	365.47
466.68	362.99
467.05	360.53
467.42	358.07
467.78	355.53
468.15	353.15
468.52	351.34
468.88	348.96
469.25	346.89
469.62	345.19
469.98	343.37
470.35	341.65
470.72	340.05
471.08	338.34
471.45	336.92
471.82	335.46
472.18	333.85
472.55	332.70
472.92	331.40
473.28	330.30
473.65	329.24
474.02	328.16
474.38	327.35
474.75	326.68
475.11	325.96
475.48	325.44
475.85	324.95
476.21	324.55
476.58	324.22
476.94	324.07
477.31	323.85
477.67	323.68
478.04	323.58
478.41	323.55
478.77	323.79
479.14	323.75
479.50	323.90
479.87	324.23
480.23	324.55
480.60	324.82
480.96	325.13
481.33	325.78
481.69	326.38
482.06	326.89
482.42	327.38
482.79	328.00
483.15	328.77
483.52	329.76
483.88	330.64
484.25	331.64
484.61	332.61
484.98	333.67
485.34	334.93
485.71	336.29
486.07	337.72
486.44	339.02
486.80	340.62
487.17	342.26
487.53	344.08
487.90	345.97
488.26	347.99
488.62	350.12
488.99	352.11
489.35	354.29
489.72	356.63
490.08	359.15
490.44	361.66
490.81	364.34
491.17	367.03
491.54	369.96
491.90	372.95
492.26	376.18
492.63	379.55
492.99	383.05
493.36	386.73
493.72	390.61
494.08	394.61
494.45	398.81
494.81	403.14
495.17	407.58
495.54	412.30
495.90	417.08
496.26	422.04
496.63	427.26
496.99	432.61
497.35	438.20
497.72	443.96
498.08	449.90
498.44	456.01
498.80	462.39
499.17	468.86
499.53	475.52
499.89	482.44
500.26	489.43
500.62	496.45
500.98	503.83
501.34	511.32
501.71	519.12
502.07	526.88
502.43	534.94
502.79	542.98
503.16	551.27
503.52	559.86
503.88	568.44
504.24	577.35
504.60	586.38
504.97	595.59
505.33	604.92
505.69	614.75
506.05	624.52
506.41	634.36
506.78	644.38
507.14	654.61
507.50	664.96
507.86	675.57
508.22	686.29
508.59	696.84
508.95	707.76
509.31	718.86
509.67	730.26
510.03	741.57
510.39	753.38
510.75	765.10
511.12	776.91
511.48	788.90
511.84	801.09
512.20	813.36
512.56	825.88
512.92	838.43
513.28	850.86
513.64	863.48
514.00	876.11
514.37	888.93
514.73	901.88
515.09	914.71
515.45	927.38
515.81	940.22
516.17	953.51
516.53	966.55
516.89	979.42
517.25	992.34
517.61	1005.66
517.97	1018.71
518.33	1031.69
518.69	1045.04
519.05	1058.60
519.41	1071.98
519.77	1085.59
520.13	1098.67
520.49	1111.68
520.85	1124.99
521.21	1138.14
521.57	1151.66
521.93	1164.59
522.29	1178.15
522.65	1191.59
523.01	1204.99
523.37	1217.91
523.73	1230.81
524.09	1243.72
524.45	1256.85
524.81	1270.09
525.17	1283.14
525.53	1296.09
525.89	1309.11
526.25	1321.81
526.61	1334.30
526.97	1347.03
527.33	1359.69
527.68	1372.80
528.04	1385.91
528.40	1398.49
528.76	1411.53
529.12	1424.04
529.48	1436.95
529.84	1448.79
530.20	1460.99
530.56	1473.23
530.91	1486.16
531.27	1498.71
531.63	1511.11
531.99	1523.59
532.35	1535.54
532.71	1547.40
533.07	1559.85
533.42	1571.60
533.78	1583.38
534.14	1595.15
534.50	1605.94
534.86	1617.03
535.21	1627.43
535.57	1638.48
535.93	1649.47
536.29	1660.03
536.65	1670.99
537.00	1681.55
537.36	1692.51
537.72	1703.08
538.08	1713.99
538.44	1724.54
538.79	1735.22
539.15	1745.59
539.51	1755.93
539.87	1766.72
540.22	1777.19
540.58	1787.73
540.94	1798.24
541.29	1808.17
541.65	1817.50
542.01	1827.75
542.37	1837.38
542.72	1847.16
543.08	1856.66
543.44	1866.73
543.79	1875.78
544.15	1884.88
544.51	1894.58
544.87	1904.04
545.22	1912.95
545.58	1921.55
545.94	1930.03
546.29	1938.26
546.65	1946.43
547.01	1954.19
547.36	1961.68
547.72	1968.93
548.07	1976.15
548.43	1983.57
548.79	1990.97
549.14	1998.70
549.50	2006.61
549.86	2014.10
550.21	2021.24
550.57	2028.57
550.92	2035.03
551.28	2042.09
551.64	2049.10
551.99	2056.20
552.35	2063.15
552.70	2069.75
553.06	2076.15
553.41	2082.27
553.77	2088.49
554.13	2094.53
554.48	2101.32
554.84	2108.08
555.19	2114.73
555.55	2120.99
555.90	2127.17
556.26	2133.84
556.61	2139.73
556.97	2144.48
557.32	2150.25
557.68	2156.54
558.03	2162.08
558.39	2167.25
558.74	2173.09
559.10	2178.49
559.45	2184.08
559.81	2189.48
560.16	2194.85
560.52	2200.53
560.87	2206.75
561.23	2212.63
561.58	2219.30
561.94	2224.54
562.29	2229.38
562.64	2235.47
563.00	2241.02
563.35	2246.63
563.71	2252.45
564.06	2258.06
564.42	2264.10
564.77	2269.18
565.12	2274.53
565.48	2279.58
565.83	2285.14
566.19	2290.58
566.54	2296.01
566.89	2300.50
567.25	2305.20
567.60	2311.19
567.96	2316.62
568.31	2321.29
568.66	2325.61
569.02	2329.58
569.37	2333.46
569.72	2337.74
570.08	2341.13
570.43	2344.54
570.78	2347.67
571.14	2350.40
571.49	2353.82
571.84	2357.52
572.20	2360.62
572.55	2363.53
572.90	2366.01
573.26	2369.09
573.61	2371.91
573.96	2374.21
574.31	2376.32
574.67	2378.29
575.02	2379.06
575.37	2380.54
575.72	2381.43
576.08	2382.98
576.43	2383.24
576.78	2383.94
577.13	2385.80
577.49	2387.31
577.84	2388.62
578.19	2390.26
578.54	2391.18
578.90	2392.16
579.25	2392.33
579.60	2392.56
579.95	2392.32
580.30	2392.94
580.66	2392.58
581.01	2391.18
581.36	2389.23
581.71	2388.18
582.06	2387.36
582.42	2386.95
582.77	2385.13
583.12	2383.97
583.47	2383.06
583.82	2382.96
584.17	2382.08
584.53	2380.36
584.88	2378.57
585.23	2376.90
585.58	2374.72
585.93	2372.91
586.28	2370.96
586.63	2368.92
586.98	2367.01
587.34	2365.31
587.69	2363.10
588.04	2361.34
588.39	2360.06
588.74	2358.04
589.09	2355.75
589.44	2353.01
589.79	2350.93
590.14	2349.34
590.49	2346.78
590.84	2343.13
591.19	2340.23
591.54	2337.21
591.89	2333.42
592.25	2330.51
592.60	2326.60
592.95	2322.90
593.30	2318.90
593.65	2314.85
594.00	2310.54
594.35	2307.80
594.70	2303.43
595.05	2299.09
595.40	2293.78
595.75	2288.48
596.10	2284.97
596.45	2280.40
596.80	2276.02
597.15	2270.80
597.50	2264.96
597.85	2260.05
598.19	2255.14
598.54	2249.52
598.89	2244.53
599.24	2240.13
599.59	2234.05
599.94	2228.54
600.29	2222.79
600.64	2216.90
600.99	2210.15
601.34	2204.76
601.69	2197.78
602.04	2191.45
602.39	2184.91
602.74	2178.89
603.08	2173.46
603.43	2166.92
603.78	2160.11
604.13	2153.15
604.48	2146.16
604.83	2140.02
605.18	2133.93
605.53	2127.01
605.87	2120.07
606.22	2113.41
606.57	2105.61
606.92	2097.80
607.27	2090.88
607.62	2084.38
607.96	2077.71
608.31	2071.42
608.66	2063.79
609.01	2056.31
609.36	2049.40
609.70	2041.88
610.05	2034.42
610.40	2026.31
610.75	2018.15
611.10	2010.60
611.44	2001.84
611.79	1993.19
612.14	1983.33
612.49	1972.79
612.83	1963.62
613.18	1954.50
613.53	1945.28
613.88	1935.69
614.22	1927.09
614.57	1917.29
614.92	1906.71
615.27	1896.52
615.61	1886.52
615.96	1876.99
616.31	1867.55
616.65	1858.00
617.00	1848.16
617.35	1838.30
617.70	1828.43
618.04	1818.35
618.39	1808.17
618.74	1798.44
619.08	1788.73
619.43	1780.22
619.78	1772.06
620.12	1763.40
620.47	1753.78
620.82	1743.41
621.16	1733.71
621.51	1723.82
621.85	1714.02
622.20	1703.61
622.55	1693.02
622.89	1683.16
623.24	1673.44
623.59	1663.62
623.93	1653.61
624.28	1643.81
624.62	1633.82
624.97	1623.62
625.32	1613.90
625.66	1604.92
626.01	1596.26
626.35	1586.99
626.70	1576.87
627.04	1566.73
627.39	1556.61
627.73	1547.24
628.08	1538.16
628.43	1528.64
628.77	1519.46
629.12	1510.47
629.46	1502.71
629.81	1494.37
630.15	1484.74
630.50	1474.72
630.84	1464.15
631.19	1454.17
631.53	1444.87
631.88	1434.58
632.22	1424.46
632.57	1415.13
632.91	1405.04
633.26	1395.06
633.60	1385.36
633.95	1376.05
634.29	1366.64
634.64	1357.42
634.98	1347.51
635.32	1338.28
635.67	1329.70
636.01	1320.35
636.36	1310.56
636.70	1300.95
637.05	1291.48
637.39	1282.56
637.73	1273.99
638.08	1266.43
638.42	1258.26
638.77	1249.45
639.11	1241.36
639.45	1233.45
639.80	1224.83
640.14	1216.12
640.49	1207.29
640.83	1198.59
641.17	1190.41
641.52	1182.15
641.86	1173.37
642.20	1165.45
642.55	1156.80
642.89	1147.91
643.23	1139.35
643.58	1131.18
643.92	1122.03
644.26	1113.40
644.61	1104.93
644.95	1096.15
645.29	1086.92
645.64	1077.58
645.98	1069.13
646.32	1061.12
646.66	1052.69
647.01	1044.29
647.35	1036.07
647.69	1027.66
648.04	1019.21
648.38	1010.23
648.72	1001.42
649.06	992.98
649.41	984.80
649.75	976.80
650.09	968.92
650.43	960.78
650.78	952.54
651.12	945.07
651.46	937.69
651.80	930.44
652.14	923.10
652.49	915.58
652.83	908.43
653.17	900.81
653.51	893.16
653.85	885.91
654.20	878.77
654.54	871.38
654.88	864.27
655.22	857.25
655.56	850.38
655.90	843.73
656.25	837.24
656.59	830.37
656.93	823.42
657.27	816.40
657.61	809.63
657.95	803.63
658.29	797.63
658.64	791.53
658.98	785.23
659.32	778.81
659.66	772.74
660.00	766.43
660.34	760.46
660.68	754.49
661.02	748.30
661.36	742.45
661.70	736.69
662.05	731.11
662.39	725.58
662.73	720.24
663.07	714.92
663.41	709.37
663.75	703.77
664.09	698.22
664.43	692.85
664.77	687.50
665.11	681.73
665.45	675.94
665.79	670.21
666.13	664.53
666.47	659.09
666.81	653.69
667.15	648.35
667.49	643.19
667.83	637.97
668.17	632.81
668.51	627.70
668.85	622.81
669.19	617.94
669.53	613.04
669.87	608.05
670.21	603.31
670.55	598.63
670.89	594.25
671.23	590.02
671.57	585.68
671.91	581.39
672.25	577.31
672.58	573.27
672.92	569.25
673.26	565.37
673.60	561.63
673.94	557.85
674.28	554.32
674.62	550.69
674.96	547.03
675.30	543.58
675.64	540.02
675.97	536.50
676.31	532.97
676.65	529.47
676.99	526.12
677.33	522.31
677.67	518.71
678.01	514.93
678.34	511.40
678.68	507.99
679.02	504.45
679.36	500.78
679.70	497.22
680.04	493.77
680.37	490.40
680.71	487.15
681.05	483.96
681.39	480.79
681.73	477.67
682.06	474.68
682.40	471.60
682.74	468.43
683.08	465.32
683.42	462.23
683.75	459.29
684.09	456.25
684.43	453.58
684.77	450.74
685.10	447.99
685.44	445.12
685.78	442.25
686.12	439.58
686.45	436.95
686.79	434.34
687.13	431.90
687.46	429.39
687.80	426.75
688.14	424.05
688.48	421.46
688.81	418.85
689.15	416.35
689.49	413.83
689.82	411.41
690.16	408.94
690.50	406.57
690.83	404.15
691.17	401.72
691.51	399.32
691.84	397.20
692.18	395.08
692.52	392.90
692.85	390.81
693.19	388.77
693.52	386.69
693.86	384.52
694.20	382.34
694.53	380.20
694.87	378.05
695.21	376.03
695.54	373.96
695.88	371.85
696.21	369.72
696.55	367.66
696.88	365.70
697.22	363.72
697.56	361.84
697.89	359.99
698.23	358.31
698.56	356.63
698.90	354.88
699.23	353.01
699.57	351.21
699.90	349.42
700.24	347.64
700.58	345.95
700.91	344.33
701.25	342.82
701.58	341.34
701.92	339.84
702.25	338.23
702.59	336.67
702.92	335.19
703.26	333.71
703.59	332.31
703.93	331.06
704.26	329.73
704.60	328.30
704.93	326.84
705.26	325.36
705.60	323.93
705.93	322.43
706.27	321.13
706.60	319.90
706.94	318.73
707.27	317.38
707.61	316.07
707.94	314.78
708.27	313.34
708.61	311.89
708.94	310.58
709.28	309.36
709.61	308.17
709.94	307.01
710.28	305.86
710.61	304.68
710.95	303.30
711.28	302.21
711.61	301.08
711.95	300.05
712.28	298.89
712.61	297.73
712.95	296.77
713.28	295.80
713.61	294.68
713.95	293.52
714.28	292.55
714.61	291.53
714.95	290.57
715.28	289.56
715.61	288.63
715.95	287.69
716.28	286.80
716.61	285.87
716.95	284.93
717.28	284.03
717.61	283.15
717.94	282.30
718.28	281.36
718.61	280.49
718.94	279.64
719.27	278.86
719.61	278.09
719.94	277.24
720.27	276.28
720.60	275.48
720.94	274.77
721.27	274.09
721.60	273.45
721.93	272.76
722.27	272.19
722.60	271.51
722.93	270.83
723.26	270.19
723.59	269.53
723.93	268.93
724.26	268.26
724.59	267.62
724.92	267.07
725.25	266.56
725.59	266.00
725.92	265.47
726.25	264.89
726.58	264.34
726.91	263.76
727.24	263.28
727.57	262.76
727.91	262.16
728.24	261.62
728.57	261.02
728.90	260.48
729.23	259.85
729.56	259.48
729.89	258.96
730.22	258.41
730.55	257.89
730.89	257.37
731.22	256.93
731.55	256.44
731.88	255.92
732.21	255.37
732.54	254.84
732.87	254.34
733.20	253.91
733.53	253.42
733.86	252.98
734.19	252.51
734.52	252.08
734.85	251.85
735.18	251.36
735.51	251.04
735.84	250.63
736.17	250.33
736.50	249.79
736.83	249.66
737.16	249.29
737.49	248.92
737.82	248.50
738.15	248.09
738.48	247.73
738.81	247.35
739.14	246.94
739.47	246.57
739.80	246.22
740.13	245.86
740.46	245.49
740.79	245.08
741.12	244.72
741.45	244.40
741.78	243.94
742.11	243.67
742.44	243.29
742.77	243.00
743.10	242.58
743.43	242.25
743.75	241.70
744.08	241.63
744.41	241.32
744.74	241.00
745.07	240.70
745.40	240.39
745.73	240.12
746.06	239.85
746.39	239.61
746.71	239.28
747.04	238.91
747.37	238.59
747.70	238.36
748.03	238.08
748.36	237.79
748.68	237.48
749.01	237.15
749.34	236.85
749.67	236.58
750.00	236.38
750.33	236.31
750.65	236.06
750.98	235.56
751.31	235.33
751.64	235.10
751.97	234.97
752.29	234.71
752.62	234.43
752.95	234.19
753.28	233.92
753.60	233.66
753.93	233.59
754.26	233.40
754.59	233.17
754.91	232.93
755.24	232.74
755.57	232.54
755.90	232.33
756.22	232.11
756.55	231.85
756.88	231.59
757.20	231.25
757.53	231.05
757.86	230.86
758.19	230.64
758.51	230.47
758.84	230.17
759.17	230.00
759.49	229.83
759.82	229.77
760.15	229.64
760.47	229.48
760.80	229.18
761.13	229.04
761.45	228.82
761.78	228.64
762.11	228.45
762.43	228.28
762.76	228.09
763.08	227.97
763.41	227.84
763.74	227.71
764.06	227.53
764.39	227.34
764.71	227.18
765.04	226.99
765.37	226.83
765.69	226.68
766.02	226.55
766.34	226.42
766.67	226.18
767.00	226.09
767.32	226.09
767.65	226.08
767.97	225.92
768.30	225.82
768.62	225.64
768.95	225.49
769.27	225.35
769.60	225.26
769.92	225.08
770.25	224.92
770.57	224.76
770.90	224.67
771.22	224.55
771.55	224.41
771.87	224.36
772.20	224.23
772.52	224.31
772.85	224.44
773.17	224.34
773.50	224.23
773.82	224.07
774.15	223.87
774.47	223.65
774.80	223.56
775.12	223.47
775.45	223.43
775.77	223.31
776.09	223.26
776.42	223.17
776.74	223.19
777.07	223.08
777.39	222.98
777.72	222.87
778.04	222.79
778.36	222.71
778.69	222.65
779.01	222.59
779.33	222.33
779.66	222.02
779.98	221.94
780.31	221.90
780.63	221.92
780.95	221.88
781.28	221.83
781.60	221.75
781.92	221.68
782.25	221.61
782.57	221.59
782.89	221.50
783.22	221.42
783.54	221.29
783.86	221.30
784.19	221.24
784.51	221.24
784.83	221.18
785.16	221.12
785.48	221.05
785.80	220.99
786.12	220.96
786.45	220.89
786.77	220.81
787.09	220.74
787.42	220.60
787.74	220.54
788.06	220.50
788.38	220.42
788.71	220.35
789.03	220.32
789.35	220.28
789.67	220.18
789.99	220.16
790.32	220.08
790.64	220.01
790.96	220.12
791.28	220.00
791.61	219.94
791.93	219.90
792.25	219.84
792.57	219.93
792.89	219.83
793.21	219.81
793.54	219.73
793.86	219.66
794.18	219.63
794.50	219.53
794.82	219.50
795.14	219.51
795.47	219.49
795.79	219.46
796.11	219.40
796.43	219.38
796.75	219.34
797.07	219.32
797.39	219.30
797.71	219.10
798.04	219.09
798.36	219.07
798.68	219.02
799.00	219.02
799.32	218.87
799.64	218.88
799.96	218.81
800.28	218.86
800.60	218.84
800.92	218.83
801.24	218.78
801.56	218.75
801.89	218.68
802.21	218.63
802.53	218.55
802.85	218.55
803.17	218.60
803.49	218.55
803.81	218.53
804.13	218.47
804.45	218.42
804.77	218.40
805.09	218.36
805.41	218.31
805.73	218.25
806.05	218.22
806.37	218.17
806.69	218.15
807.01	218.09
807.33	218.07
807.65	217.94
807.97	218.04
808.28	217.98
808.60	217.96
808.92	217.93
809.24	218.03
809.56	217.97
809.88	217.88
810.20	217.86
810.52	217.88
810.84	217.82
811.16	217.80
811.48	217.77
811.80	217.82
812.12	217.79
812.43	217.78
812.75	217.73
813.07	217.71
813.39	217.66
813.71	217.61
814.03	217.57
814.35	217.58
814.67	217.45
814.98	217.42
815.30	217.40
815.62	217.33
815.94	217.23
816.26	217.24
816.58	217.18
816.89	217.19
817.21	217.11
817.53	217.13
817.85	217.12
818.17	217.09
818.48	217.02
818.80	217.04
819.12	216.96
819.44	216.91
819.76	216.88
820.07	216.86
820.39	216.84
820.71	216.85
821.03	216.80
821.34	216.77
821.66	216.79
821.98	216.79
822.30	216.79
822.61	216.87
822.93	216.79
823.25	216.79
823.57	216.73
823.88	216.75
824.20	216.73
824.52	216.72
824.83	216.73
825.15	216.68
825.47	216.67
825.79	216.73
826.10	216.74
826.42	216.74
826.74	216.78
827.05	216.78
827.37	216.78
827.69	216.81
828.00	216.82
828.32	216.78
828.64	216.76
828.95	216.86
829.27	216.79
829.58	216.83
829.90	216.85
830.22	216.86
830.53	216.79
830.85	216.75
831.17	216.72
831.48	216.69
831.80	216.72
832.11	216.67
832.43	216.61
832.75	216.60
833.06	216.67
833.38	216.60
833.69	216.60
834.01	216.57
834.32	216.53
834.64	216.54
834.96	216.56
835.27	216.55
835.59	216.46
835.90	216.40
836.22	216.38
836.53	216.32
836.85	216.32
837.16	216.53
837.48	216.56
837.79	216.60
838.11	216.61
838.42	216.59
838.74	216.63
839.05	216.59
839.37	216.58
839.68	216.47
840.00	216.45
840.31	216.45
840.63	216.44
840.94	216.41
841.26	216.35
841.57	216.32
841.88	216.32
842.20	216.31
842.51	216.28
842.83	216.27
843.14	216.42
843.46	216.42
843.77	216.31
844.08	216.27
844.40	216.19
844.71	216.17
845.03	216.16
845.34	216.12
845.65	216.16
845.97	216.17
846.28	216.17
846.60	216.21
846.91	216.17
847.22	216.13
847.54	216.20
847.85	216.20
848.16	216.18
848.48	216.14
848.79	216.22
849.10	216.26
849.42	216.27
849.73	216.10
850.04	216.09
850.36	216.00
850.67	216.05
850.98	216.05
851.30	216.03
851.61	216.01
851.92	216.01
852.23	216.04
852.55	216.00
852.86	215.99
853.17	215.96
853.49	216.01
853.80	216.09
854.11	216.08
854.42	216.14
854.74	216.12
855.05	216.11
855.36	215.99
855.67	215.99
855.99	215.96
856.30	216.21
856.61	216.19
856.92	216.18
857.23	216.16
857.55	216.17
857.86	216.16
858.17	216.19
858.48	216.16
858.79	216.10
859.11	216.16
859.42	216.17
859.73	216.10
860.04	216.09
860.35	216.00
860.66	215.91
860.98	215.85
861.29	215.87
861.60	215.89
861.91	215.91
862.22	215.90
862.53	215.86
862.84	215.60
863.16	215.61
863.47	215.57
863.78	215.54
864.09	215.54
864.40	215.57
864.71	215.55
865.02	215.56
865.33	215.55
865.64	215.47
865.95	215.43
866.27	215.60
866.58	215.60
866.89	215.63
867.20	215.63
867.51	215.58
867.82	215.58
868.13	215.61
868.44	215.58
868.75	215.61
869.06	215.61
869.37	215.64
869.68	215.60
869.99	215.64
870.30	215.65
870.61	215.68
870.92	215.61
871.23	215.62
871.54	215.64
871.85	215.70
872.16	215.77
872.47	215.79
872.78	215.65
873.09	215.64
873.40	215.61
873.71	215.67
874.02	215.71
874.33	215.67
874.64	215.64
874.95	215.65
875.26	215.57
875.56	215.58
875.87	215.57
876.18	215.56
876.49	215.73
876.80	215.73
877.11	215.67
877.42	215.72
877.73	215.72
878.04	215.67
878.35	215.65
878.66	215.60
878.96	215.58
879.27	215.59
879.58	215.62
879.89	215.61
880.20	215.66
880.51	215.65
880.82	215.65
881.12	215.65
881.43	215.61
881.74	215.62
882.05	215.63
882.36	215.66
882.67	215.66
882.97	215.48
883.28	215.44
883.59	215.45
883.90	215.45
884.21	215.48
884.51	215.46
884.82	215.43
885.13	215.46
885.44	215.46
885.74	215.45
886.05	215.43
886.36	215.42
886.67	215.33
886.98	215.42
887.28	215.43
887.59	215.42
887.90	215.44
888.20	215.44
888.51	215.45
888.82	215.39
889.13	215.41
889.43	215.56
889.74	215.57
890.05	215.56
890.35	215.52
890.66	215.48
890.97	215.48
891.28	215.44
891.58	215.44
891.89	215.40
892.20	215.37
892.50	215.36
892.81	215.37
893.12	215.38
893.42	215.27
893.73	215.29
894.04	215.30
894.34	215.27
894.65	215.23
894.95	215.22
895.26	215.27
895.57	215.36
895.87	215.16
896.18	215.19
896.48	215.20
896.79	215.23
897.10	215.26
897.40	215.29
897.71	215.35
898.01	215.36
898.32	215.43
898.63	215.45
898.93	215.46
899.24	215.46
899.54	215.41
899.85	215.40
900.15	215.38
900.46	215.35
900.76	215.40
901.07	215.43
901.38	215.45
901.68	215.45
901.99	215.32
902.29	215.38
902.60	215.31
902.90	215.30
903.21	215.28
903.51	215.28
903.82	215.31
904.12	215.29
904.43	215.28
904.73	215.24
905.03	215.24
905.34	215.42
905.64	215.41
905.95	215.44
906.25	215.45
906.56	215.46
906.86	215.48
907.17	215.46
907.47	215.48
907.77	215.43
908.08	215.38
908.38	215.39
908.69	215.37
908.99	215.44
909.30	215.43
909.60	215.45
909.90	215.48
910.21	215.41
910.51	215.34
910.81	215.35
911.12	215.38
911.42	215.38
911.73	215.17
912.03	215.22
912.33	215.25
912.64	215.27
912.94	215.26
913.24	215.23
913.55	215.20
913.85	215.19
914.15	215.22
914.46	215.26
914.76	215.23
915.06	215.20
915.37	215.17
915.67	215.17
915.97	215.16
916.27	215.07
916.58	215.11
916.88	215.16
917.18	215.15
917.49	215.29
917.79	215.29
918.09	215.30
918.39	215.34
918.70	215.32
919.00	215.32
919.30	215.39
919.60	215.40
919.91	215.39
920.21	215.37
920.51	215.37
920.81	215.35
921.12	215.43
921.42	215.46
921.72	215.44
922.02	215.47
922.32	215.50
922.63	215.53
922.93	215.63
923.23	215.64
923.53	215.61
923.83	215.46
924.13	215.44
924.44	215.46
924.74	215.43
925.04	215.52
925.34	215.50
925.64	215.44
925.94	215.45
926.24	215.58
926.55	215.56
926.85	215.55
927.15	215.53
927.45	215.52
927.75	215.49
928.05	215.53
928.35	215.51
928.65	215.53
928.95	215.54
929.26	215.45
929.56	215.48
929.86	215.49
930.16	215.49
930.46	215.51
930.76	215.52
931.06	215.48
931.36	215.36
931.66	215.38
931.96	215.38
932.26	215.38
932.56	215.28
932.86	215.27
933.16	215.31
933.46	215.30
933.76	215.26
934.06	215.31
934.36	215.38
934.66	215.35
934.96	215.33
935.26	215.33
935.56	215.35
935.86	215.30
936.16	215.27
936.46	215.22
936.76	215.24
937.06	215.21
937.36	215.22
937.66	215.26
937.96	215.26
938.26	215.26
938.56	215.22
938.86	215.23
939.16	215.31
939.46	215.30
939.76	215.32
940.06	215.32
940.35	215.30
940.65	215.19
940.95	215.22
941.25	215.17
941.55	215.13
941.85	215.12
942.15	215.13
942.45	215.20
942.75	215.22
943.04	215.21
943.34	215.25
943.64	215.21
943.94	215.19
944.24	215.20
944.54	215.21
944.84	215.22
945.13	215.19
945.43	215.16
945.73	215.13
946.03	215.12
946.33	215.06
946.62	215.02
946.92	215.03
947.22	215.03
947.52	215.03
947.82	215.05
948.11	214.97
948.41	214.94
948.71	214.87
949.01	214.88
949.31	214.87
949.60	214.85
949.90	214.91
950.20	214.90
950.50	214.87
950.79	214.84
951.09	214.88
951.39	214.88
951.69	214.84
951.98	214.90
952.28	214.91
952.58	214.95
952.87	214.95
953.17	214.98
953.47	214.97
953.76	214.97
954.06	214.98
954.36	214.99
954.66	215.00
954.95	215.06
955.25	215.04
955.55	215.02
955.84	214.97
956.14	214.96
956.44	214.96
956.73	214.94
957.03	214.95
957.32	214.93
957.62	214.96
957.92	214.99
958.21	214.98
958.51	215.22
958.81	215.26
959.10	215.30
959.40	215.36
959.69	215.37
959.99	215.44
960.29	215.41
960.58	215.42
960.88	215.51
961.17	215.47
961.47	215.51
961.76	215.50
962.06	215.55
962.36	215.51
962.65	215.56
962.95	215.55
963.24	215.55
963.54	215.56
963.83	215.56
964.13	215.54
964.42	215.46
964.72	215.24
965.01	215.20
965.31	215.19
965.60	215.10
965.90	215.21
966.19	215.15
966.49	215.15
966.78	215.13
967.08	215.10
967.37	215.14
967.67	215.08
967.96	215.13
968.26	215.13
968.55	215.18
968.85	215.13
969.14	215.17
969.43	215.17
969.73	215.17
970.02	215.15
970.32	215.17
970.61	215.19
970.91	215.17
971.20	215.17
971.49	215.13
971.79	215.17
972.08	215.03
972.38	215.05
972.67	215.06
972.96	215.11
973.26	215.07
973.55	215.11
973.85	215.10
974.14	215.11
974.43	215.11
974.73	215.07
975.02	215.07
975.31	215.06
975.61	215.06
975.90	215.03
976.19	215.04
976.49	215.07
976.78	215.09
977.07	215.10
977.37	215.11
977.66	215.17
977.95	215.15
978.24	215.18
978.54	215.22
978.83	215.22
979.12	215.21
979.42	215.24
979.71	215.21
980.00	215.22
980.29	215.18
980.59	215.15
980.88	215.20
981.17	215.19
981.46	215.20
981.76	215.20
982.05	215.25
982.34	215.23
982.63	215.20
982.93	215.19
983.22	215.24
983.51	215.23
983.80	215.23
984.09	215.22
984.39	215.22
984.68	215.16
984.97	215.15
985.26	215.11
985.55	215.10
985.85	215.04
986.14	215.04
986.43	215.04
986.72	215.02
987.01	214.94
987.30	214.93
987.59	214.87
987.89	214.86
988.18	214.80
988.47	214.79
988.76	214.78
989.05	214.76
989.34	214.72
989.63	214.75
989.92	214.73
990.22	214.73
990.51	214.73
990.80	214.74
991.09	214.77
991.38	214.84
991.67	214.83
991.96	214.83
992.25	214.87
992.54	214.86
992.83	214.87
993.12	214.88
993.41	214.97
993.70	215.07
993.99	215.11
994.28	215.12
994.58	215.16
994.87	215.14
995.16	215.14
995.45	215.13
995.74	215.10
996.03	215.13
996.32	215.15
996.61	215.18
996.90	215.17
997.19	215.16
997.48	215.14
997.77	215.16
998.06	215.18
998.34	215.18
998.63	215.18
998.92	215.18
999.21	215.21
999.50	215.20
999.79	215.11
1000.08	215.10
1000.37	215.12
1000.66	215.06
1000.95	215.11
1001.24	215.10
1001.53	215.14
1001.82	215.13
1002.11	215.07
1002.40	215.10
1002.68	215.14
1002.97	215.26
1003.26	215.23
1003.55	215.19
1003.84	215.17
1004.13	215.23
1004.42	215.22
1004.71	215.24
1004.99	215.26
1005.28	215.32
1005.57	215.29
1005.86	215.30
1006.15	215.29
1006.44	215.29
1006.72	215.33
1007.01	215.27
1007.30	215.30
1007.59	215.27
1007.88	215.23
1008.17	215.25
1008.45	215.17
1008.74	215.06
1009.03	214.95
1009.32	214.97
1009.60	214.97
1009.89	214.93
1010.18	214.85
1010.47	214.84
1010.76	214.81
1011.04	214.79
1011.33	214.77
1011.62	214.81
1011.91	214.83
1012.19	214.84
1012.48	214.80
1012.77	214.80
1013.05	214.90
1013.34	214.89
1013.63	214.89
1013.92	214.92
1014.20	214.90
1014.49	214.93
1014.78	214.98
1015.06	214.95
1015.35	214.93
1015.64	214.98
1015.92	215.06
1016.21	215.05
1016.50	215.06
1016.78	215.10
1017.07	215.08
1017.36	215.01
1017.64	214.98
1017.93	215.00
1018.22	214.97
1018.50	214.99
1018.79	214.95
1019.08	214.87
1019.36	214.87
1019.65	214.87
1019.93	214.93
1020.22	214.95
1020.51	215.04
1020.79	215.03
1021.08	214.19
1021.36	214.76
1021.65	214.56
1021.94	214.78
1022.22	215.03
1022.51	214.72
1022.79	215.79
1023.08	215.17
1023.36	216.93
1023.65	214.73
>>>>>End Processed Spectral Data<<<<<
