SpectraSuite Data File
++++++++++++++++++++++++++++++++++++
Date: Tue Jan 29 16:21:13 EST 2013
User: group
Dark Spectrum Present: No
Reference Spectrum Present: No
Number of Sampled Component Spectra: 1
Spectrometers: USB2E7196
Integration Time (usec): 65000 (USB2E7196)
Spectra Averaged: 100 (USB2E7196)
Boxcar Smoothing: 10 (USB2E7196)
Correct for Electrical Dark: No (USB2E7196)
Strobe/Lamp Enabled: No (USB2E7196)
Correct for Detector Non-linearity: No (USB2E7196)
Correct for Stray Light: No (USB2E7196)
Number of Pixels in Processed Spectrum: 2048
>>>>>Begin Processed Spectral Data<<<<<
339.09	0.00
339.48	202.39
339.86	203.91
340.24	204.68
340.63	206.28
341.01	211.05
341.39	209.35
341.78	210.99
342.16	212.17
342.54	212.67
342.93	201.50
343.31	211.70
343.69	212.26
344.07	212.71
344.46	213.22
344.84	213.62
345.22	213.81
345.60	214.10
345.99	214.30
346.37	214.44
346.75	214.55
347.13	214.60
347.52	214.69
347.90	214.84
348.28	214.91
348.66	214.99
349.05	214.96
349.43	215.05
349.81	215.12
350.19	215.21
350.57	215.27
350.96	215.38
351.34	215.48
351.72	215.58
352.10	215.69
352.48	215.73
352.87	215.81
353.25	215.86
353.63	215.89
354.01	215.92
354.39	215.99
354.77	216.06
355.15	216.20
355.54	216.28
355.92	216.25
356.30	216.33
356.68	216.54
357.06	216.62
357.44	216.62
357.82	216.64
358.20	216.74
358.58	216.81
358.97	216.88
359.35	216.97
359.73	217.05
360.11	217.11
360.49	217.17
360.87	217.19
361.25	217.26
361.63	217.38
362.01	217.45
362.39	217.48
362.77	217.56
363.15	217.59
363.53	217.62
363.91	217.65
364.29	217.66
364.67	217.48
365.05	217.53
365.43	217.58
365.81	217.67
366.19	217.74
366.57	217.82
366.95	217.81
367.33	217.77
367.71	217.75
368.09	217.79
368.47	217.80
368.85	217.80
369.23	217.82
369.61	217.78
369.99	217.83
370.37	217.83
370.75	217.88
371.13	217.84
371.51	217.78
371.89	217.82
372.27	217.79
372.65	217.79
373.03	217.74
373.41	217.68
373.78	217.60
374.16	217.45
374.54	217.37
374.92	217.32
375.30	217.26
375.68	217.18
376.06	217.14
376.44	217.07
376.82	217.04
377.19	216.97
377.57	216.89
377.95	216.81
378.33	216.80
378.71	216.63
379.09	216.60
379.47	216.57
379.84	216.46
380.22	216.41
380.60	216.32
380.98	216.28
381.36	216.21
381.73	216.15
382.11	216.19
382.49	216.13
382.87	216.03
383.25	216.00
383.62	216.20
384.00	216.11
384.38	216.11
384.76	216.11
385.13	216.19
385.51	216.16
385.89	216.07
386.27	216.04
386.64	216.05
387.02	216.00
387.40	215.99
387.78	215.97
388.15	215.96
388.53	215.96
388.91	215.90
389.29	215.91
389.66	215.92
390.04	215.87
390.42	215.87
390.79	215.88
391.17	215.87
391.55	215.65
391.92	215.64
392.30	215.64
392.68	215.61
393.05	215.53
393.43	215.54
393.81	215.57
394.18	215.54
394.56	215.54
394.94	215.59
395.31	215.56
395.69	215.65
396.06	215.68
396.44	215.71
396.82	215.76
397.19	215.89
397.57	215.89
397.95	215.94
398.32	215.93
398.70	216.00
399.07	216.11
399.45	216.14
399.82	216.18
400.20	216.25
400.58	216.30
400.95	216.31
401.33	216.41
401.70	216.63
402.08	216.70
402.45	216.76
402.83	216.90
403.20	216.98
403.58	217.07
403.95	217.23
404.33	217.37
404.71	217.51
405.08	217.74
405.46	217.93
405.83	218.13
406.21	218.33
406.58	218.55
406.96	218.75
407.33	219.04
407.70	219.36
408.08	219.80
408.45	220.13
408.83	220.50
409.20	220.89
409.58	221.15
409.95	221.59
410.33	222.10
410.70	222.54
411.08	223.12
411.45	223.70
411.82	224.27
412.20	224.98
412.57	225.77
412.95	226.35
413.32	227.16
413.69	228.00
414.07	228.93
414.44	229.91
414.82	230.94
415.19	232.08
415.56	233.27
415.94	234.40
416.31	235.81
416.68	237.21
417.06	238.75
417.43	240.29
417.81	242.04
418.18	243.80
418.55	245.66
418.93	247.66
419.30	249.70
419.67	251.89
420.04	254.08
420.42	256.47
420.79	259.29
421.16	262.02
421.54	264.84
421.91	267.79
422.28	270.88
422.66	274.14
423.03	277.37
423.40	280.62
423.77	284.19
424.15	287.80
424.52	291.62
424.89	295.73
425.26	299.74
425.64	303.55
426.01	307.80
426.38	312.27
426.75	316.71
427.13	321.39
427.50	326.33
427.87	331.47
428.24	336.60
428.61	341.51
428.99	347.01
429.36	353.00
429.73	358.87
430.10	364.63
430.47	370.58
430.85	376.81
431.22	383.48
431.59	390.50
431.96	397.19
432.33	404.57
432.70	411.72
433.08	420.11
433.45	428.11
433.82	436.02
434.19	444.73
434.56	453.35
434.93	461.62
435.30	469.74
435.68	478.77
436.05	487.65
436.42	496.42
436.79	504.44
437.16	513.07
437.53	522.17
437.90	531.26
438.27	540.14
438.64	549.28
439.01	557.72
439.38	565.14
439.75	572.48
440.13	580.79
440.50	588.61
440.87	594.99
441.24	601.52
441.61	608.76
441.98	614.13
442.35	620.41
442.72	626.66
443.09	632.72
443.46	636.42
443.83	638.89
444.20	641.09
444.57	644.18
444.94	645.57
445.31	647.01
445.68	648.31
446.05	648.90
446.42	648.08
446.79	647.10
447.16	646.11
447.53	645.27
447.90	641.96
448.27	638.78
448.64	634.17
449.01	630.89
449.37	625.02
449.74	619.39
450.11	612.54
450.48	605.20
450.85	597.81
451.22	591.40
451.59	585.36
451.96	579.55
452.33	571.76
452.70	564.75
453.07	556.30
453.43	547.80
453.80	539.56
454.17	531.64
454.54	524.17
454.91	516.15
455.28	508.30
455.65	500.99
456.02	493.56
456.38	487.34
456.75	479.57
457.12	473.10
457.49	466.69
457.86	460.61
458.23	455.33
458.59	449.48
458.96	443.54
459.33	438.29
459.70	432.98
460.07	428.83
460.43	424.03
460.80	419.54
461.17	415.62
461.54	411.52
461.91	407.62
462.27	403.60
462.64	400.14
463.01	396.42
463.38	392.80
463.74	389.15
464.11	385.90
464.48	383.10
464.85	380.05
465.21	377.61
465.58	375.02
465.95	371.92
466.32	369.30
466.68	366.74
467.05	364.21
467.42	361.73
467.78	359.04
468.15	356.52
468.52	354.68
468.88	352.24
469.25	350.04
469.62	348.22
469.98	346.28
470.35	344.52
470.72	342.84
471.08	341.07
471.45	339.59
471.82	338.06
472.18	336.46
472.55	335.27
472.92	333.89
473.28	332.72
473.65	331.59
474.02	330.50
474.38	329.63
474.75	328.87
475.11	328.06
475.48	327.51
475.85	327.02
476.21	326.52
476.58	326.13
476.94	325.90
477.31	325.59
477.67	325.32
478.04	325.16
478.41	325.12
478.77	325.30
479.14	325.25
479.50	325.40
479.87	325.67
480.23	326.05
480.60	326.33
480.96	326.62
481.33	327.21
481.69	327.80
482.06	328.32
482.42	328.81
482.79	329.40
483.15	330.24
483.52	331.24
483.88	332.17
484.25	333.16
484.61	334.19
484.98	335.29
485.34	336.65
485.71	338.05
486.07	339.48
486.44	340.81
486.80	342.46
487.17	344.17
487.53	346.03
487.90	347.90
488.26	349.91
488.62	352.05
488.99	354.14
489.35	356.31
489.72	358.70
490.08	361.22
490.44	363.77
490.81	366.52
491.17	369.21
491.54	372.21
491.90	375.27
492.26	378.54
492.63	381.95
492.99	385.47
493.36	389.11
493.72	393.05
494.08	397.04
494.45	401.25
494.81	405.67
495.17	410.10
495.54	414.81
495.90	419.65
496.26	424.63
496.63	429.81
496.99	435.21
497.35	440.83
497.72	446.74
498.08	452.75
498.44	458.81
498.80	465.30
499.17	471.77
499.53	478.54
499.89	485.46
500.26	492.51
500.62	499.63
500.98	507.03
501.34	514.51
501.71	522.40
502.07	530.20
502.43	538.26
502.79	546.43
503.16	554.81
503.52	563.52
503.88	572.27
504.24	581.33
504.60	590.51
504.97	599.76
505.33	609.06
505.69	618.94
506.05	628.90
506.41	638.77
506.78	648.97
507.14	659.18
507.50	669.68
507.86	680.40
508.22	691.22
508.59	702.00
508.95	713.18
509.31	724.54
509.67	736.13
510.03	747.59
510.39	759.40
510.75	771.46
511.12	783.39
511.48	795.50
511.84	807.73
512.20	820.09
512.56	832.92
512.92	845.72
513.28	858.43
513.64	871.28
514.00	884.19
514.37	897.09
514.73	910.22
515.09	923.26
515.45	936.25
515.81	949.39
516.17	962.82
516.53	976.03
516.89	989.08
517.25	1002.33
517.61	1015.91
517.97	1029.37
518.33	1042.46
518.69	1056.04
519.05	1069.98
519.41	1083.76
519.77	1097.77
520.13	1111.02
520.49	1124.35
520.85	1137.85
521.21	1151.18
521.57	1164.98
521.93	1178.19
522.29	1192.05
522.65	1205.80
523.01	1219.44
523.37	1232.65
523.73	1246.09
524.09	1259.31
524.45	1272.90
524.81	1286.47
525.17	1299.76
525.53	1312.99
525.89	1326.40
526.25	1339.65
526.61	1352.45
526.97	1365.67
527.33	1378.56
527.68	1392.08
528.04	1405.63
528.40	1418.72
528.76	1432.15
529.12	1445.00
529.48	1458.36
529.84	1470.73
530.20	1483.49
530.56	1496.15
530.91	1509.51
531.27	1522.30
531.63	1535.14
531.99	1548.00
532.35	1560.28
532.71	1572.84
533.07	1585.78
533.42	1598.10
533.78	1610.18
534.14	1622.31
534.50	1633.41
534.86	1644.98
535.21	1655.93
535.57	1667.43
535.93	1678.83
536.29	1689.85
536.65	1701.34
537.00	1712.30
537.36	1723.65
537.72	1734.68
538.08	1746.18
538.44	1757.12
538.79	1768.29
539.15	1779.23
539.51	1789.86
539.87	1801.20
540.22	1812.03
540.58	1822.97
540.94	1833.81
541.29	1844.18
541.65	1853.99
542.01	1864.59
542.37	1874.68
542.72	1884.86
543.08	1894.61
543.44	1904.96
543.79	1914.38
544.15	1923.85
544.51	1933.91
544.87	1943.88
545.22	1953.14
545.58	1961.92
545.94	1970.88
546.29	1979.42
546.65	1987.75
547.01	1995.94
547.36	2003.56
547.72	2011.29
548.07	2018.71
548.43	2026.38
548.79	2034.14
549.14	2042.23
549.50	2050.74
549.86	2058.69
550.21	2066.07
550.57	2073.80
550.92	2080.60
551.28	2088.01
551.64	2095.13
551.99	2102.61
552.35	2109.74
552.70	2116.52
553.06	2123.18
553.41	2129.38
553.77	2135.97
554.13	2142.46
554.48	2149.60
554.84	2156.85
555.19	2163.50
555.55	2170.07
555.90	2176.49
556.26	2183.27
556.61	2189.41
556.97	2194.28
557.32	2200.14
557.68	2206.68
558.03	2212.36
558.39	2217.90
558.74	2224.01
559.10	2229.79
559.45	2235.46
559.81	2240.96
560.16	2246.71
560.52	2252.69
560.87	2259.06
561.23	2264.99
561.58	2271.64
561.94	2276.75
562.29	2281.34
562.64	2287.46
563.00	2293.24
563.35	2298.92
563.71	2304.90
564.06	2310.50
564.42	2316.62
564.77	2321.68
565.12	2326.83
565.48	2332.13
565.83	2337.74
566.19	2343.15
566.54	2348.48
566.89	2353.06
567.25	2357.83
567.60	2363.56
567.96	2368.77
568.31	2373.47
568.66	2377.73
569.02	2381.78
569.37	2385.80
569.72	2390.41
570.08	2393.97
570.43	2397.29
570.78	2400.38
571.14	2403.05
571.49	2406.37
571.84	2409.93
572.20	2412.91
572.55	2416.02
572.90	2418.39
573.26	2421.23
573.61	2423.94
573.96	2426.29
574.31	2428.50
574.67	2430.41
575.02	2431.39
575.37	2433.00
575.72	2433.80
576.08	2435.31
576.43	2435.65
576.78	2436.25
577.13	2438.01
577.49	2439.29
577.84	2440.33
578.19	2441.84
578.54	2442.44
578.90	2443.36
579.25	2443.38
579.60	2443.40
579.95	2442.83
580.30	2443.12
580.66	2442.60
581.01	2440.97
581.36	2438.76
581.71	2437.41
582.06	2436.52
582.42	2435.62
582.77	2433.32
583.12	2431.85
583.47	2430.78
583.82	2430.05
584.17	2428.75
584.53	2426.59
584.88	2424.60
585.23	2422.89
585.58	2420.59
585.93	2418.61
586.28	2416.36
586.63	2414.01
586.98	2411.99
587.34	2410.15
587.69	2407.82
588.04	2405.65
588.39	2404.37
588.74	2401.92
589.09	2399.41
589.44	2396.26
589.79	2393.94
590.14	2392.37
590.49	2389.74
590.84	2385.81
591.19	2382.90
591.54	2379.92
591.89	2375.92
592.25	2372.81
592.60	2368.56
592.95	2364.58
593.30	2360.56
593.65	2356.22
594.00	2351.88
594.35	2349.00
594.70	2344.36
595.05	2339.86
595.40	2334.55
595.75	2328.81
596.10	2325.34
596.45	2320.37
596.80	2315.83
597.15	2310.66
597.50	2304.46
597.85	2299.36
598.19	2294.23
598.54	2288.37
598.89	2283.12
599.24	2278.65
599.59	2272.40
599.94	2266.62
600.29	2260.65
600.64	2254.71
600.99	2248.05
601.34	2242.44
601.69	2235.34
602.04	2228.94
602.39	2222.25
602.74	2216.19
603.08	2210.64
603.43	2204.00
603.78	2197.21
604.13	2190.12
604.48	2182.84
604.83	2177.00
605.18	2170.80
605.53	2163.85
605.87	2156.78
606.22	2149.83
606.57	2141.89
606.92	2133.93
607.27	2126.96
607.62	2120.35
607.96	2113.33
608.31	2106.81
608.66	2098.98
609.01	2091.39
609.36	2084.24
609.70	2076.42
610.05	2068.71
610.40	2060.39
610.75	2052.02
611.10	2044.30
611.44	2035.38
611.79	2026.58
612.14	2016.29
612.49	2005.57
612.83	1996.27
613.18	1987.01
613.53	1977.75
613.88	1968.23
614.22	1959.34
614.57	1949.40
614.92	1938.57
615.27	1928.31
615.61	1918.13
615.96	1908.42
616.31	1898.70
616.65	1889.32
617.00	1879.49
617.35	1869.67
617.70	1859.87
618.04	1849.80
618.39	1839.46
618.74	1829.82
619.08	1820.05
619.43	1811.37
619.78	1803.19
620.12	1794.50
620.47	1784.73
620.82	1774.25
621.16	1764.27
621.51	1754.43
621.85	1744.49
622.20	1734.05
622.55	1723.37
622.89	1713.33
623.24	1703.51
623.59	1693.69
623.93	1683.25
624.28	1673.35
624.62	1663.04
624.97	1652.56
625.32	1642.64
625.66	1633.71
626.01	1624.66
626.35	1615.19
626.70	1604.94
627.04	1594.64
627.39	1584.28
627.73	1574.96
628.08	1565.91
628.43	1556.25
628.77	1546.96
629.12	1538.02
629.46	1530.20
629.81	1521.75
630.15	1512.10
630.50	1502.20
630.84	1491.53
631.19	1481.63
631.53	1472.29
631.88	1462.05
632.22	1452.02
632.57	1442.55
632.91	1432.30
633.26	1422.40
633.60	1412.63
633.95	1403.23
634.29	1393.58
634.64	1384.26
634.98	1374.12
635.32	1364.76
635.67	1356.10
636.01	1346.60
636.36	1336.71
636.70	1327.00
637.05	1317.51
637.39	1308.36
637.73	1299.65
638.08	1292.06
638.42	1283.66
638.77	1274.70
639.11	1266.40
639.45	1258.45
639.80	1249.83
640.14	1240.92
640.49	1231.90
640.83	1223.03
641.17	1214.79
641.52	1206.55
641.86	1197.76
642.20	1189.93
642.55	1181.19
642.89	1172.19
643.23	1163.57
643.58	1155.45
643.92	1146.35
644.26	1137.55
644.61	1129.16
644.95	1120.31
645.29	1110.89
645.64	1101.65
645.98	1093.09
646.32	1085.04
646.66	1076.38
647.01	1067.96
647.35	1059.77
647.69	1051.40
648.04	1043.01
648.38	1033.97
648.72	1025.09
649.06	1016.53
649.41	1008.14
649.75	1000.10
650.09	992.18
650.43	983.95
650.78	975.40
651.12	967.57
651.46	960.07
651.80	952.65
652.14	945.22
652.49	937.63
652.83	930.14
653.17	922.32
653.51	914.58
653.85	907.34
654.20	899.98
654.54	892.42
654.88	884.97
655.22	877.70
655.56	870.74
655.90	863.88
656.25	857.15
656.59	850.18
656.93	843.03
657.27	835.70
657.61	828.67
657.95	822.54
658.29	816.52
658.64	810.23
658.98	803.71
659.32	797.08
659.66	790.76
660.00	784.36
660.34	778.25
660.68	772.02
661.02	765.52
661.36	759.44
661.70	753.54
662.05	747.99
662.39	742.43
662.73	736.97
663.07	731.54
663.41	725.92
663.75	720.15
664.09	714.45
664.43	709.05
664.77	703.65
665.11	697.83
665.45	691.91
665.79	686.10
666.13	680.29
666.47	674.73
666.81	669.19
667.15	663.80
667.49	658.50
667.83	653.26
668.17	647.97
668.51	642.81
668.85	637.86
669.19	632.77
669.53	627.67
669.87	622.44
670.21	617.59
670.55	612.77
670.89	608.28
671.23	603.88
671.57	599.44
671.91	595.12
672.25	590.87
672.58	586.67
672.92	582.57
673.26	578.68
673.60	574.73
673.94	570.96
674.28	567.33
674.62	563.59
674.96	559.76
675.30	556.26
675.64	552.59
675.97	548.92
676.31	545.35
676.65	541.70
676.99	538.28
677.33	534.45
677.67	530.72
678.01	526.84
678.34	523.16
678.68	519.53
679.02	515.87
679.36	512.10
679.70	508.41
680.04	504.82
680.37	501.34
680.71	497.94
681.05	494.71
681.39	491.39
681.73	488.14
682.06	485.10
682.40	481.96
682.74	478.71
683.08	475.46
683.42	472.26
683.75	469.26
684.09	466.18
684.43	463.35
684.77	460.44
685.10	457.52
685.44	454.62
685.78	451.75
686.12	448.97
686.45	446.24
686.79	443.57
687.13	440.98
687.46	438.31
687.80	435.67
688.14	432.77
688.48	430.12
688.81	427.43
689.15	424.80
689.49	422.14
689.82	419.57
690.16	416.98
690.50	414.45
690.83	411.93
691.17	409.37
691.51	406.83
691.84	404.58
692.18	402.36
692.52	400.09
692.85	397.92
693.19	395.74
693.52	393.57
693.86	391.34
694.20	389.14
694.53	386.99
694.87	384.81
695.21	382.67
695.54	380.49
695.88	378.36
696.21	376.19
696.55	374.11
696.88	372.03
697.22	370.05
697.56	368.17
697.89	366.27
698.23	364.49
698.56	362.71
698.90	360.90
699.23	359.01
699.57	357.15
699.90	355.30
700.24	353.48
700.58	351.71
700.91	350.01
701.25	348.44
701.58	346.84
701.92	345.24
702.25	343.63
702.59	341.98
702.92	340.42
703.26	338.87
703.59	337.40
703.93	336.13
704.26	334.68
704.60	333.13
704.93	331.62
705.26	330.12
705.60	328.63
705.93	327.11
706.27	325.73
706.60	324.47
706.94	323.20
707.27	321.83
707.61	320.48
707.94	319.13
708.27	317.60
708.61	316.12
708.94	314.70
709.28	313.40
709.61	312.16
709.94	310.95
710.28	309.69
710.61	308.46
710.95	307.02
711.28	305.92
711.61	304.71
711.95	303.59
712.28	302.42
712.61	301.23
712.95	300.18
713.28	299.15
713.61	297.95
713.95	296.81
714.28	295.78
714.61	294.71
714.95	293.71
715.28	292.68
715.61	291.67
715.95	290.71
716.28	289.75
716.61	288.80
716.95	287.74
717.28	286.83
717.61	285.87
717.94	285.03
718.28	283.98
718.61	283.14
718.94	282.21
719.27	281.31
719.61	280.47
719.94	279.58
720.27	278.64
720.60	277.78
720.94	276.96
721.27	276.18
721.60	275.46
721.93	274.73
722.27	274.12
722.60	273.46
722.93	272.71
723.26	272.05
723.59	271.31
723.93	270.72
724.26	270.06
724.59	269.43
724.92	268.82
725.25	268.31
725.59	267.74
725.92	267.18
726.25	266.62
726.58	266.09
726.91	265.49
727.24	264.93
727.57	264.41
727.91	263.79
728.24	263.26
728.57	262.69
728.90	262.11
729.23	261.47
729.56	261.03
729.89	260.49
730.22	259.90
730.55	259.38
730.89	258.80
731.22	258.22
731.55	257.70
731.88	257.14
732.21	256.57
732.54	256.01
732.87	255.51
733.20	255.06
733.53	254.56
733.86	254.12
734.19	253.63
734.52	253.21
734.85	252.94
735.18	252.43
735.51	252.09
735.84	251.66
736.17	251.30
736.50	250.78
736.83	250.66
737.16	250.26
737.49	249.87
737.82	249.51
738.15	249.14
738.48	248.77
738.81	248.36
739.14	247.98
739.47	247.59
739.80	247.19
740.13	246.85
740.46	246.42
740.79	246.02
741.12	245.62
741.45	245.22
741.78	244.79
742.11	244.53
742.44	244.09
742.77	243.83
743.10	243.45
743.43	243.10
743.75	242.52
744.08	242.48
744.41	242.14
744.74	241.77
745.07	241.40
745.40	241.10
745.73	240.90
746.06	240.56
746.39	240.30
746.71	239.95
747.04	239.57
747.37	239.27
747.70	239.00
748.03	238.74
748.36	238.47
748.68	238.14
749.01	237.74
749.34	237.48
749.67	237.16
750.00	236.94
750.33	236.78
750.65	236.50
750.98	235.96
751.31	235.70
751.64	235.49
751.97	235.39
752.29	235.10
752.62	234.76
752.95	234.51
753.28	234.19
753.60	233.97
753.93	233.80
754.26	233.60
754.59	233.32
754.91	233.06
755.24	232.81
755.57	232.58
755.90	232.41
756.22	232.17
756.55	231.92
756.88	231.60
757.20	231.27
757.53	231.06
757.86	230.83
758.19	230.60
758.51	230.41
758.84	230.09
759.17	229.87
759.49	229.67
759.82	229.58
760.15	229.45
760.47	229.30
760.80	229.06
761.13	228.89
761.45	228.71
761.78	228.51
762.11	228.35
762.43	228.16
762.76	227.98
763.08	227.84
763.41	227.70
763.74	227.57
764.06	227.42
764.39	227.25
764.71	227.09
765.04	226.96
765.37	226.81
765.69	226.65
766.02	226.56
766.34	226.39
766.67	226.16
767.00	226.05
767.32	226.02
767.65	225.99
767.97	225.84
768.30	225.73
768.62	225.63
768.95	225.46
769.27	225.36
769.60	225.30
769.92	225.15
770.25	225.01
770.57	224.85
770.90	224.72
771.22	224.59
771.55	224.53
771.87	224.40
772.20	224.28
772.52	224.36
772.85	224.45
773.17	224.37
773.50	224.30
773.82	224.18
774.15	224.02
774.47	223.82
774.80	223.68
775.12	223.56
775.45	223.46
775.77	223.39
776.09	223.31
776.42	223.20
776.74	223.15
777.07	223.05
777.39	222.99
777.72	222.90
778.04	222.83
778.36	222.70
778.69	222.61
779.01	222.56
779.33	222.28
779.66	221.95
779.98	221.87
780.31	221.79
780.63	221.78
780.95	221.71
781.28	221.62
781.60	221.55
781.92	221.51
782.25	221.45
782.57	221.38
782.89	221.27
783.22	221.17
783.54	221.07
783.86	221.01
784.19	220.93
784.51	220.90
784.83	220.83
785.16	220.78
785.48	220.74
785.80	220.65
786.12	220.64
786.45	220.59
786.77	220.53
787.09	220.45
787.42	220.33
787.74	220.25
788.06	220.22
788.38	220.18
788.71	220.11
789.03	220.06
789.35	220.00
789.67	219.95
789.99	219.92
790.32	219.83
790.64	219.82
790.96	219.93
791.28	219.80
791.61	219.71
791.93	219.68
792.25	219.62
792.57	219.70
792.89	219.58
793.21	219.55
793.54	219.48
793.86	219.38
794.18	219.35
794.50	219.31
794.82	219.25
795.14	219.22
795.47	219.22
795.79	219.16
796.11	219.09
796.43	219.01
796.75	218.96
797.07	218.94
797.39	218.88
797.71	218.71
798.04	218.67
798.36	218.69
798.68	218.64
799.00	218.60
799.32	218.47
799.64	218.50
799.96	218.47
800.28	218.46
800.60	218.43
800.92	218.38
801.24	218.32
801.56	218.30
801.89	218.24
802.21	218.18
802.53	218.12
802.85	218.14
803.17	218.23
803.49	218.16
803.81	218.10
804.13	218.06
804.45	218.01
804.77	218.01
805.09	217.97
805.41	217.93
805.73	217.87
806.05	217.82
806.37	217.76
806.69	217.69
807.01	217.66
807.33	217.66
807.65	217.57
807.97	217.67
808.28	217.61
808.60	217.57
808.92	217.52
809.24	217.65
809.56	217.60
809.88	217.50
810.20	217.48
810.52	217.53
810.84	217.48
811.16	217.43
811.48	217.38
811.80	217.42
812.12	217.37
812.43	217.39
812.75	217.37
813.07	217.32
813.39	217.31
813.71	217.25
814.03	217.23
814.35	217.23
814.67	217.09
814.98	217.06
815.30	217.01
815.62	216.94
815.94	216.78
816.26	216.78
816.58	216.72
816.89	216.72
817.21	216.62
817.53	216.60
817.85	216.61
818.17	216.61
818.48	216.54
818.80	216.59
819.12	216.57
819.44	216.54
819.76	216.47
820.07	216.46
820.39	216.45
820.71	216.42
821.03	216.40
821.34	216.37
821.66	216.41
821.98	216.45
822.30	216.44
822.61	216.54
822.93	216.54
823.25	216.52
823.57	216.47
823.88	216.52
824.20	216.50
824.52	216.51
824.83	216.49
825.15	216.43
825.47	216.40
825.79	216.37
826.10	216.33
826.42	216.34
826.74	216.35
827.05	216.32
827.37	216.34
827.69	216.31
828.00	216.34
828.32	216.29
828.64	216.26
828.95	216.35
829.27	216.28
829.58	216.24
829.90	216.29
830.22	216.32
830.53	216.24
830.85	216.22
831.17	216.17
831.48	216.18
831.80	216.18
832.11	216.19
832.43	216.16
832.75	216.17
833.06	216.29
833.38	216.23
833.69	216.23
834.01	216.21
834.32	216.22
834.64	216.16
834.96	216.18
835.27	216.17
835.59	216.09
835.90	216.02
836.22	215.99
836.53	215.92
836.85	215.89
837.16	216.09
837.48	216.12
837.79	216.18
838.11	216.15
838.42	216.15
838.74	216.14
839.05	216.12
839.37	216.12
839.68	215.99
840.00	216.00
840.31	216.03
840.63	216.03
840.94	216.00
841.26	215.96
841.57	215.93
841.88	215.93
842.20	215.90
842.51	215.89
842.83	215.91
843.14	216.09
843.46	216.07
843.77	215.96
844.08	215.90
844.40	215.82
844.71	215.78
845.03	215.79
845.34	215.76
845.65	215.73
845.97	215.72
846.28	215.70
846.60	215.68
846.91	215.63
847.22	215.61
847.54	215.63
847.85	215.65
848.16	215.64
848.48	215.61
848.79	215.68
849.10	215.70
849.42	215.66
849.73	215.48
850.04	215.46
850.36	215.36
850.67	215.40
850.98	215.39
851.30	215.42
851.61	215.42
851.92	215.43
852.23	215.49
852.55	215.49
852.86	215.48
853.17	215.49
853.49	215.54
853.80	215.58
854.11	215.62
854.42	215.63
854.74	215.60
855.05	215.61
855.36	215.51
855.67	215.53
855.99	215.54
856.30	215.77
856.61	215.79
856.92	215.83
857.23	215.80
857.55	215.79
857.86	215.78
858.17	215.77
858.48	215.70
858.79	215.68
859.11	215.69
859.42	215.72
859.73	215.70
860.04	215.66
860.35	215.59
860.66	215.51
860.98	215.50
861.29	215.52
861.60	215.50
861.91	215.55
862.22	215.51
862.53	215.49
862.84	215.22
863.16	215.24
863.47	215.18
863.78	215.21
864.09	215.24
864.40	215.21
864.71	215.20
865.02	215.22
865.33	215.16
865.64	215.10
865.95	215.07
866.27	215.20
866.58	215.19
866.89	215.21
867.20	215.21
867.51	215.20
867.82	215.16
868.13	215.19
868.44	215.14
868.75	215.18
869.06	215.17
869.37	215.21
869.68	215.16
869.99	215.17
870.30	215.16
870.61	215.14
870.92	215.16
871.23	215.18
871.54	215.21
871.85	215.25
872.16	215.30
872.47	215.28
872.78	215.13
873.09	215.14
873.40	215.10
873.71	215.09
874.02	215.08
874.33	215.12
874.64	215.07
874.95	215.10
875.26	215.06
875.56	215.07
875.87	215.05
876.18	215.03
876.49	215.25
876.80	215.22
877.11	215.19
877.42	215.20
877.73	215.19
878.04	215.15
878.35	215.14
878.66	215.17
878.96	215.19
879.27	215.20
879.58	215.22
879.89	215.22
880.20	215.30
880.51	215.30
880.82	215.27
881.12	215.30
881.43	215.27
881.74	215.23
882.05	215.20
882.36	215.19
882.67	215.23
882.97	215.03
883.28	215.01
883.59	215.01
883.90	215.01
884.21	215.02
884.51	215.02
884.82	215.00
885.13	214.95
885.44	214.91
885.74	214.90
886.05	214.90
886.36	214.89
886.67	214.78
886.98	214.93
887.28	214.93
887.59	214.93
887.90	214.93
888.20	214.92
888.51	215.00
888.82	214.98
889.13	214.99
889.43	215.14
889.74	215.12
890.05	215.11
890.35	215.08
890.66	215.04
890.97	215.04
891.28	215.01
891.58	215.04
891.89	215.06
892.20	215.02
892.50	214.96
892.81	214.98
893.12	215.01
893.42	214.87
893.73	214.89
894.04	214.88
894.34	214.88
894.65	214.87
894.95	214.82
895.26	214.84
895.57	214.88
895.87	214.69
896.18	214.73
896.48	214.75
896.79	214.76
897.10	214.79
897.40	214.78
897.71	214.82
898.01	214.80
898.32	214.82
898.63	214.85
898.93	214.86
899.24	214.85
899.54	214.83
899.85	214.83
900.15	214.81
900.46	214.83
900.76	214.89
901.07	214.89
901.38	214.92
901.68	214.96
901.99	214.86
902.29	214.89
902.60	214.87
902.90	214.85
903.21	214.84
903.51	214.83
903.82	214.90
904.12	214.90
904.43	214.93
904.73	214.93
905.03	214.94
905.34	215.16
905.64	215.16
905.95	215.16
906.25	215.17
906.56	215.19
906.86	215.17
907.17	215.15
907.47	215.16
907.77	215.13
908.08	215.07
908.38	215.09
908.69	215.08
908.99	215.13
909.30	215.12
909.60	215.13
909.90	215.14
910.21	215.08
910.51	215.06
910.81	215.02
911.12	214.99
911.42	214.98
911.73	214.78
912.03	214.80
912.33	214.87
912.64	214.84
912.94	214.81
913.24	214.77
913.55	214.71
913.85	214.71
914.15	214.76
914.46	214.79
914.76	214.79
915.06	214.77
915.37	214.73
915.67	214.72
915.97	214.74
916.27	214.67
916.58	214.68
916.88	214.65
917.18	214.66
917.49	214.79
917.79	214.78
918.09	214.78
918.39	214.83
918.70	214.80
919.00	214.80
919.30	214.89
919.60	214.89
919.91	214.90
920.21	214.89
920.51	214.85
920.81	214.84
921.12	214.85
921.42	214.88
921.72	214.88
922.02	214.92
922.32	214.94
922.63	214.94
922.93	215.01
923.23	215.04
923.53	215.00
923.83	214.89
924.13	214.92
924.44	214.92
924.74	214.94
925.04	214.97
925.34	214.94
925.64	214.84
925.94	214.85
926.24	214.95
926.55	214.93
926.85	214.96
927.15	214.95
927.45	214.94
927.75	214.92
928.05	214.92
928.35	214.88
928.65	214.91
928.95	214.97
929.26	214.91
929.56	214.96
929.86	214.98
930.16	214.95
930.46	214.94
930.76	214.94
931.06	214.83
931.36	214.78
931.66	214.82
931.96	214.86
932.26	214.85
932.56	214.77
932.86	214.80
933.16	214.78
933.46	214.77
933.76	214.73
934.06	214.78
934.36	214.83
934.66	214.84
934.96	214.80
935.26	214.80
935.56	214.79
935.86	214.73
936.16	214.76
936.46	214.74
936.76	214.72
937.06	214.69
937.36	214.72
937.66	214.73
937.96	214.73
938.26	214.69
938.56	214.70
938.86	214.70
939.16	214.73
939.46	214.78
939.76	214.79
940.06	214.80
940.35	214.74
940.65	214.64
940.95	214.64
941.25	214.60
941.55	214.54
941.85	214.54
942.15	214.57
942.45	214.59
942.75	214.58
943.04	214.59
943.34	214.62
943.64	214.59
943.94	214.56
944.24	214.55
944.54	214.57
944.84	214.53
945.13	214.49
945.43	214.46
945.73	214.42
946.03	214.40
946.33	214.40
946.62	214.40
946.92	214.43
947.22	214.45
947.52	214.47
947.82	214.51
948.11	214.51
948.41	214.48
948.71	214.44
949.01	214.48
949.31	214.46
949.60	214.45
949.90	214.50
950.20	214.52
950.50	214.51
950.79	214.51
951.09	214.57
951.39	214.60
951.69	214.59
951.98	214.63
952.28	214.63
952.58	214.60
952.87	214.60
953.17	214.62
953.47	214.60
953.76	214.59
954.06	214.55
954.36	214.51
954.66	214.53
954.95	214.58
955.25	214.57
955.55	214.55
955.84	214.55
956.14	214.53
956.44	214.54
956.73	214.55
957.03	214.52
957.32	214.51
957.62	214.49
957.92	214.52
958.21	214.49
958.51	214.74
958.81	214.82
959.10	214.84
959.40	214.87
959.69	214.89
959.99	214.93
960.29	214.94
960.58	214.92
960.88	215.00
961.17	214.97
961.47	215.00
961.76	215.02
962.06	215.06
962.36	215.05
962.65	215.03
962.95	215.00
963.24	215.00
963.54	215.02
963.83	215.02
964.13	215.03
964.42	215.00
964.72	214.81
965.01	214.79
965.31	214.77
965.60	214.72
965.90	214.82
966.19	214.76
966.49	214.77
966.78	214.79
967.08	214.76
967.37	214.77
967.67	214.74
967.96	214.78
968.26	214.74
968.55	214.77
968.85	214.78
969.14	214.78
969.43	214.78
969.73	214.74
970.02	214.75
970.32	214.72
970.61	214.69
970.91	214.64
971.20	214.61
971.49	214.58
971.79	214.59
972.08	214.46
972.38	214.47
972.67	214.46
972.96	214.49
973.26	214.45
973.55	214.50
973.85	214.46
974.14	214.42
974.43	214.45
974.73	214.38
975.02	214.35
975.31	214.35
975.61	214.36
975.90	214.36
976.19	214.35
976.49	214.35
976.78	214.41
977.07	214.40
977.37	214.43
977.66	214.48
977.95	214.46
978.24	214.48
978.54	214.53
978.83	214.50
979.12	214.50
979.42	214.51
979.71	214.46
980.00	214.50
980.29	214.53
980.59	214.52
980.88	214.61
981.17	214.62
981.46	214.62
981.76	214.61
982.05	214.65
982.34	214.63
982.63	214.63
982.93	214.58
983.22	214.65
983.51	214.65
983.80	214.65
984.09	214.68
984.39	214.65
984.68	214.61
984.97	214.63
985.26	214.59
985.55	214.59
985.85	214.55
986.14	214.59
986.43	214.60
986.72	214.56
987.01	214.48
987.30	214.42
987.59	214.45
987.89	214.49
988.18	214.45
988.47	214.46
988.76	214.45
989.05	214.47
989.34	214.39
989.63	214.43
989.92	214.42
990.22	214.38
990.51	214.38
990.80	214.39
991.09	214.41
991.38	214.46
991.67	214.45
991.96	214.43
992.25	214.39
992.54	214.37
992.83	214.37
993.12	214.38
993.41	214.46
993.70	214.54
993.99	214.54
994.28	214.58
994.58	214.61
994.87	214.59
995.16	214.57
995.45	214.56
995.74	214.51
996.03	214.52
996.32	214.57
996.61	214.62
996.90	214.62
997.19	214.58
997.48	214.57
997.77	214.53
998.06	214.55
998.34	214.57
998.63	214.55
998.92	214.55
999.21	214.60
999.50	214.60
999.79	214.50
1000.08	214.46
1000.37	214.46
1000.66	214.42
1000.95	214.50
1001.24	214.51
1001.53	214.54
1001.82	214.52
1002.11	214.48
1002.40	214.49
1002.68	214.54
1002.97	214.65
1003.26	214.63
1003.55	214.57
1003.84	214.58
1004.13	214.67
1004.42	214.66
1004.71	214.66
1004.99	214.66
1005.28	214.69
1005.57	214.64
1005.86	214.65
1006.15	214.64
1006.44	214.60
1006.72	214.60
1007.01	214.54
1007.30	214.56
1007.59	214.55
1007.88	214.54
1008.17	214.57
1008.45	214.54
1008.74	214.45
1009.03	214.40
1009.32	214.41
1009.60	214.45
1009.89	214.42
1010.18	214.31
1010.47	214.27
1010.76	214.28
1011.04	214.28
1011.33	214.27
1011.62	214.31
1011.91	214.30
1012.19	214.33
1012.48	214.31
1012.77	214.36
1013.05	214.48
1013.34	214.46
1013.63	214.44
1013.92	214.47
1014.20	214.45
1014.49	214.47
1014.78	214.50
1015.06	214.42
1015.35	214.44
1015.64	214.47
1015.92	214.53
1016.21	214.52
1016.50	214.54
1016.78	214.54
1017.07	214.56
1017.36	214.52
1017.64	214.48
1017.93	214.52
1018.22	214.52
1018.50	214.55
1018.79	214.53
1019.08	214.41
1019.36	214.44
1019.65	214.42
1019.93	214.46
1020.22	214.45
1020.51	214.54
1020.79	214.51
1021.08	214.56
1021.36	214.26
1021.65	214.66
1021.94	214.18
1022.22	214.72
1022.51	213.93
1022.79	215.33
1023.08	213.94
1023.36	216.92
1023.65	214.07
>>>>>End Processed Spectral Data<<<<<
