SpectraSuite Data File
++++++++++++++++++++++++++++++++++++
Date: Tue Jan 29 16:30:28 EST 2013
User: group
Dark Spectrum Present: No
Reference Spectrum Present: No
Number of Sampled Component Spectra: 1
Spectrometers: USB2E7196
Integration Time (usec): 65000 (USB2E7196)
Spectra Averaged: 100 (USB2E7196)
Boxcar Smoothing: 10 (USB2E7196)
Correct for Electrical Dark: No (USB2E7196)
Strobe/Lamp Enabled: No (USB2E7196)
Correct for Detector Non-linearity: No (USB2E7196)
Correct for Stray Light: No (USB2E7196)
Number of Pixels in Processed Spectrum: 2048
>>>>>Begin Processed Spectral Data<<<<<
339.09	0.00
339.48	202.06
339.86	202.99
340.24	204.97
340.63	205.96
341.01	210.62
341.39	208.73
341.78	210.48
342.16	211.88
342.54	211.94
342.93	201.15
343.31	211.31
343.69	211.85
344.07	212.34
344.46	212.80
344.84	213.22
345.22	213.40
345.60	213.69
345.99	213.90
346.37	214.03
346.75	214.16
347.13	214.22
347.52	214.29
347.90	214.44
348.28	214.48
348.66	214.57
349.05	214.54
349.43	214.63
349.81	214.66
350.19	214.71
350.57	214.76
350.96	214.84
351.34	214.93
351.72	215.04
352.10	215.14
352.48	215.19
352.87	215.23
353.25	215.33
353.63	215.38
354.01	215.46
354.39	215.57
354.77	215.63
355.15	215.78
355.54	215.86
355.92	215.86
356.30	215.95
356.68	216.18
357.06	216.31
357.44	216.33
357.82	216.41
358.20	216.52
358.58	216.57
358.97	216.66
359.35	216.81
359.73	216.92
360.11	216.99
360.49	217.08
360.87	217.17
361.25	217.24
361.63	217.34
362.01	217.40
362.39	217.43
362.77	217.50
363.15	217.53
363.53	217.58
363.91	217.62
364.29	217.66
364.67	217.45
365.05	217.43
365.43	217.49
365.81	217.53
366.19	217.64
366.57	217.76
366.95	217.80
367.33	217.73
367.71	217.70
368.09	217.76
368.47	217.73
368.85	217.74
369.23	217.76
369.61	217.71
369.99	217.73
370.37	217.73
370.75	217.80
371.13	217.76
371.51	217.70
371.89	217.68
372.27	217.64
372.65	217.65
373.03	217.66
373.41	217.61
373.78	217.56
374.16	217.42
374.54	217.30
374.92	217.22
375.30	217.18
375.68	217.11
376.06	217.05
376.44	216.98
376.82	216.92
377.19	216.84
377.57	216.76
377.95	216.65
378.33	216.56
378.71	216.41
379.09	216.37
379.47	216.36
379.84	216.30
380.22	216.24
380.60	216.16
380.98	216.07
381.36	216.02
381.73	215.92
382.11	215.92
382.49	215.91
382.87	215.85
383.25	215.80
383.62	216.01
384.00	215.93
384.38	215.92
384.76	215.93
385.13	215.95
385.51	215.95
385.89	215.91
386.27	215.88
386.64	215.85
387.02	215.79
387.40	215.72
387.78	215.70
388.15	215.69
388.53	215.66
388.91	215.65
389.29	215.61
389.66	215.65
390.04	215.61
390.42	215.60
390.79	215.56
391.17	215.54
391.55	215.29
391.92	215.29
392.30	215.30
392.68	215.22
393.05	215.22
393.43	215.21
393.81	215.22
394.18	215.19
394.56	215.21
394.94	215.27
395.31	215.25
395.69	215.29
396.06	215.32
396.44	215.36
396.82	215.38
397.19	215.51
397.57	215.47
397.95	215.51
398.32	215.49
398.70	215.55
399.07	215.65
399.45	215.69
399.82	215.71
400.20	215.72
400.58	215.78
400.95	215.75
401.33	215.88
401.70	216.08
402.08	216.22
402.45	216.30
402.83	216.46
403.20	216.61
403.58	216.71
403.95	216.87
404.33	217.03
404.71	217.18
405.08	217.45
405.46	217.65
405.83	217.83
406.21	218.04
406.58	218.28
406.96	218.48
407.33	218.74
407.70	219.03
408.08	219.50
408.45	219.88
408.83	220.26
409.20	220.57
409.58	220.85
409.95	221.26
410.33	221.75
410.70	222.16
411.08	222.69
411.45	223.30
411.82	223.90
412.20	224.56
412.57	225.40
412.95	225.94
413.32	226.78
413.69	227.60
414.07	228.55
414.44	229.58
414.82	230.62
415.19	231.79
415.56	233.00
415.94	234.17
416.31	235.58
416.68	237.00
417.06	238.57
417.43	240.13
417.81	241.87
418.18	243.65
418.55	245.56
418.93	247.61
419.30	249.66
419.67	251.83
420.04	254.10
420.42	256.48
420.79	259.34
421.16	262.14
421.54	265.06
421.91	268.00
422.28	271.08
422.66	274.34
423.03	277.59
423.40	280.93
423.77	284.54
424.15	288.20
424.52	292.04
424.89	296.27
425.26	300.34
425.64	304.23
426.01	308.49
426.38	313.03
426.75	317.57
427.13	322.32
427.50	327.32
427.87	332.52
428.24	337.71
428.61	342.67
428.99	348.20
429.36	354.22
429.73	360.12
430.10	365.96
430.47	372.06
430.85	378.42
431.22	385.21
431.59	392.30
431.96	399.14
432.33	406.62
432.70	413.84
433.08	422.33
433.45	430.44
433.82	438.44
434.19	447.25
434.56	455.95
434.93	464.29
435.30	472.59
435.68	481.72
436.05	490.71
436.42	499.58
436.79	507.66
437.16	516.38
437.53	525.65
437.90	534.78
438.27	543.66
438.64	552.81
439.01	561.27
439.38	568.86
439.75	576.18
440.13	584.58
440.50	592.58
440.87	599.04
441.24	605.66
441.61	613.08
441.98	618.46
442.35	624.79
442.72	631.09
443.09	637.12
443.46	640.91
443.83	643.36
444.20	645.51
444.57	648.70
444.94	650.14
445.31	651.60
445.68	653.03
446.05	653.66
446.42	652.90
446.79	652.00
447.16	650.95
447.53	650.21
447.90	646.89
448.27	643.52
448.64	638.90
449.01	635.54
449.37	629.55
449.74	623.87
450.11	616.96
450.48	609.56
450.85	602.11
451.22	595.59
451.59	589.54
451.96	583.75
452.33	575.85
452.70	568.80
453.07	560.31
453.43	551.69
453.80	543.44
454.17	535.44
454.54	527.86
454.91	519.62
455.28	511.63
455.65	504.21
456.02	496.74
456.38	490.36
456.75	482.58
457.12	475.99
457.49	469.45
457.86	463.29
458.23	457.92
458.59	451.99
458.96	446.05
459.33	440.74
459.70	435.39
460.07	431.16
460.43	426.25
460.80	421.66
461.17	417.66
461.54	413.47
461.91	409.45
462.27	405.33
462.64	401.97
463.01	398.15
463.38	394.49
463.74	390.77
464.11	387.52
464.48	384.64
464.85	381.55
465.21	379.15
465.58	376.48
465.95	373.35
466.32	370.68
466.68	368.02
467.05	365.43
467.42	362.87
467.78	360.18
468.15	357.63
468.52	355.78
468.88	353.32
469.25	351.11
469.62	349.31
469.98	347.38
470.35	345.50
470.72	343.82
471.08	342.00
471.45	340.52
471.82	339.01
472.18	337.35
472.55	336.16
472.92	334.77
473.28	333.56
473.65	332.40
474.02	331.34
474.38	330.45
474.75	329.69
475.11	328.89
475.48	328.36
475.85	327.87
476.21	327.33
476.58	326.95
476.94	326.69
477.31	326.42
477.67	326.17
478.04	326.02
478.41	325.93
478.77	326.09
479.14	326.03
479.50	326.15
479.87	326.43
480.23	326.76
480.60	327.02
480.96	327.31
481.33	327.94
481.69	328.50
482.06	329.05
482.42	329.48
482.79	330.08
483.15	330.85
483.52	331.78
483.88	332.62
484.25	333.54
484.61	334.60
484.98	335.63
485.34	336.92
485.71	338.28
486.07	339.76
486.44	341.07
486.80	342.71
487.17	344.40
487.53	346.23
487.90	348.09
488.26	350.17
488.62	352.34
488.99	354.38
489.35	356.53
489.72	358.90
490.08	361.45
490.44	363.99
490.81	366.72
491.17	369.43
491.54	372.43
491.90	375.47
492.26	378.67
492.63	382.09
492.99	385.58
493.36	389.31
493.72	393.16
494.08	397.21
494.45	401.46
494.81	405.87
495.17	410.30
495.54	415.05
495.90	419.87
496.26	424.79
496.63	429.99
496.99	435.43
497.35	441.02
497.72	446.86
498.08	452.81
498.44	458.88
498.80	465.34
499.17	471.92
499.53	478.66
499.89	485.68
500.26	492.69
500.62	499.78
500.98	507.22
501.34	514.78
501.71	522.59
502.07	530.40
502.43	538.39
502.79	546.59
503.16	555.02
503.52	563.63
503.88	572.36
504.24	581.39
504.60	590.56
504.97	599.88
505.33	609.15
505.69	619.05
506.05	629.04
506.41	638.97
506.78	648.97
507.14	659.25
507.50	669.67
507.86	680.43
508.22	691.32
508.59	701.99
508.95	713.13
509.31	724.45
509.67	735.93
510.03	747.45
510.39	759.29
510.75	771.16
511.12	783.10
511.48	795.32
511.84	807.65
512.20	819.98
512.56	832.67
512.92	845.70
513.28	858.49
513.64	871.39
514.00	884.38
514.37	897.51
514.73	910.72
515.09	923.84
515.45	936.83
515.81	949.92
516.17	963.48
516.53	976.73
516.89	989.88
517.25	1003.25
517.61	1016.87
517.97	1030.29
518.33	1043.52
518.69	1057.21
519.05	1071.15
519.41	1084.94
519.77	1099.02
520.13	1112.43
520.49	1125.65
520.85	1139.19
521.21	1152.52
521.57	1166.34
521.93	1179.58
522.29	1193.42
522.65	1207.19
523.01	1220.99
523.37	1234.41
523.73	1247.72
524.09	1261.01
524.45	1274.57
524.81	1288.19
525.17	1301.68
525.53	1315.08
525.89	1328.56
526.25	1341.81
526.61	1354.66
526.97	1367.80
527.33	1380.83
527.68	1394.55
528.04	1408.17
528.40	1421.36
528.76	1434.83
529.12	1447.67
529.48	1461.10
529.84	1473.48
530.20	1486.33
530.56	1499.02
530.91	1512.41
531.27	1525.47
531.63	1538.33
531.99	1551.19
532.35	1563.58
532.71	1576.07
533.07	1589.06
533.42	1601.34
533.78	1613.71
534.14	1625.92
534.50	1637.33
534.86	1649.05
535.21	1659.83
535.57	1671.40
535.93	1682.81
536.29	1694.06
536.65	1705.81
537.00	1716.96
537.36	1728.52
537.72	1739.68
538.08	1751.27
538.44	1762.25
538.79	1773.41
539.15	1784.50
539.51	1795.36
539.87	1806.74
540.22	1817.68
540.58	1828.74
540.94	1839.81
541.29	1850.02
541.65	1859.80
542.01	1870.52
542.37	1880.74
542.72	1891.18
543.08	1901.10
543.44	1911.69
543.79	1921.07
544.15	1930.58
544.51	1940.58
544.87	1950.47
545.22	1959.62
545.58	1968.46
545.94	1977.42
546.29	1985.96
546.65	1994.44
547.01	2002.81
547.36	2010.54
547.72	2018.38
548.07	2025.91
548.43	2033.67
548.79	2041.63
549.14	2050.08
549.50	2058.52
549.86	2066.35
550.21	2073.74
550.57	2081.54
550.92	2088.37
551.28	2095.85
551.64	2103.21
551.99	2110.88
552.35	2118.14
552.70	2125.15
553.06	2131.88
553.41	2138.23
553.77	2144.98
554.13	2151.36
554.48	2158.38
554.84	2165.60
555.19	2172.05
555.55	2178.72
555.90	2185.11
556.26	2191.95
556.61	2198.06
556.97	2202.84
557.32	2208.68
557.68	2215.22
558.03	2220.94
558.39	2226.26
558.74	2232.39
559.10	2237.83
559.45	2243.37
559.81	2248.98
560.16	2254.58
560.52	2260.45
560.87	2266.93
561.23	2272.78
561.58	2279.57
561.94	2284.94
562.29	2289.62
562.64	2295.75
563.00	2301.44
563.35	2306.98
563.71	2312.78
564.06	2318.30
564.42	2324.23
564.77	2329.30
565.12	2334.42
565.48	2339.63
565.83	2345.31
566.19	2350.69
566.54	2356.18
566.89	2360.69
567.25	2365.44
567.60	2371.14
567.96	2376.36
568.31	2380.88
568.66	2385.22
569.02	2389.12
569.37	2392.83
569.72	2397.30
570.08	2400.94
570.43	2403.86
570.78	2407.04
571.14	2409.59
571.49	2412.67
571.84	2416.26
572.20	2419.25
572.55	2422.22
572.90	2424.49
573.26	2427.22
573.61	2429.76
573.96	2431.88
574.31	2433.99
574.67	2435.78
575.02	2436.61
575.37	2438.08
575.72	2438.82
576.08	2440.20
576.43	2440.34
576.78	2440.78
577.13	2442.34
577.49	2443.32
577.84	2444.47
578.19	2445.82
578.54	2446.27
578.90	2447.03
579.25	2447.00
579.60	2446.90
579.95	2446.35
580.30	2446.34
580.66	2445.66
581.01	2443.84
581.36	2441.48
581.71	2440.01
582.06	2438.81
582.42	2437.95
582.77	2435.56
583.12	2433.76
583.47	2432.36
583.82	2431.77
584.17	2430.50
584.53	2428.29
584.88	2426.23
585.23	2424.33
585.58	2421.87
585.93	2420.00
586.28	2417.84
586.63	2415.50
586.98	2413.40
587.34	2411.26
587.69	2408.78
588.04	2406.74
588.39	2405.33
588.74	2402.79
589.09	2400.02
589.44	2396.73
589.79	2394.11
590.14	2392.21
590.49	2389.46
590.84	2385.52
591.19	2382.38
591.54	2379.14
591.89	2375.19
592.25	2372.06
592.60	2367.85
592.95	2363.74
593.30	2359.43
593.65	2355.06
594.00	2350.41
594.35	2347.13
594.70	2342.42
595.05	2337.88
595.40	2332.32
595.75	2326.57
596.10	2322.89
596.45	2318.00
596.80	2313.47
597.15	2308.19
597.50	2302.22
597.85	2297.35
598.19	2292.22
598.54	2286.23
598.89	2280.86
599.24	2276.09
599.59	2269.91
599.94	2264.01
600.29	2258.03
600.64	2252.08
600.99	2245.18
601.34	2239.80
601.69	2232.81
602.04	2226.26
602.39	2219.58
602.74	2213.37
603.08	2207.70
603.43	2201.06
603.78	2194.27
604.13	2187.14
604.48	2179.77
604.83	2173.64
605.18	2167.29
605.53	2160.31
605.87	2153.26
606.22	2146.45
606.57	2138.32
606.92	2130.22
607.27	2123.22
607.62	2116.47
607.96	2109.35
608.31	2102.76
608.66	2094.69
609.01	2086.97
609.36	2079.81
609.70	2072.06
610.05	2064.23
610.40	2055.87
610.75	2047.50
611.10	2039.72
611.44	2030.62
611.79	2021.97
612.14	2011.80
612.49	2001.02
612.83	1991.51
613.18	1982.22
613.53	1972.87
613.88	1963.32
614.22	1954.76
614.57	1944.73
614.92	1934.07
615.27	1923.89
615.61	1913.69
615.96	1904.03
616.31	1894.43
616.65	1885.10
617.00	1875.20
617.35	1865.47
617.70	1855.77
618.04	1845.86
618.39	1835.50
618.74	1825.83
619.08	1816.08
619.43	1807.40
619.78	1799.14
620.12	1790.51
620.47	1780.87
620.82	1770.60
621.16	1760.89
621.51	1750.89
621.85	1741.01
622.20	1730.71
622.55	1720.09
622.89	1710.23
623.24	1700.67
623.59	1690.76
623.93	1680.48
624.28	1670.85
624.62	1660.71
624.97	1650.35
625.32	1640.39
625.66	1631.45
626.01	1622.73
626.35	1613.31
626.70	1603.13
627.04	1592.89
627.39	1582.76
627.73	1573.32
628.08	1564.24
628.43	1554.59
628.77	1545.17
629.12	1536.37
629.46	1528.45
629.81	1520.08
630.15	1510.50
630.50	1500.55
630.84	1490.10
631.19	1480.18
631.53	1470.77
631.88	1460.58
632.22	1450.57
632.57	1441.19
632.91	1431.05
633.26	1421.19
633.60	1411.62
633.95	1402.35
634.29	1392.83
634.64	1383.43
634.98	1373.46
635.32	1364.07
635.67	1355.62
636.01	1346.32
636.36	1336.44
636.70	1326.88
637.05	1317.40
637.39	1308.37
637.73	1299.63
638.08	1292.05
638.42	1283.86
638.77	1275.04
639.11	1266.76
639.45	1258.89
639.80	1250.25
640.14	1241.44
640.49	1232.42
640.83	1223.51
641.17	1215.39
641.52	1207.39
641.86	1198.80
642.20	1190.97
642.55	1182.30
642.89	1173.29
643.23	1164.61
643.58	1156.52
643.92	1147.40
644.26	1138.71
644.61	1130.26
644.95	1121.38
645.29	1112.07
645.64	1102.74
645.98	1094.13
646.32	1086.15
646.66	1077.50
647.01	1069.14
647.35	1061.03
647.69	1052.65
648.04	1044.37
648.38	1035.33
648.72	1026.32
649.06	1017.72
649.41	1009.40
649.75	1001.30
650.09	993.35
650.43	985.27
650.78	976.83
651.12	969.02
651.46	961.48
651.80	954.15
652.14	946.86
652.49	939.28
652.83	931.99
653.17	924.20
653.51	916.47
653.85	909.23
654.20	901.95
654.54	894.47
654.88	887.20
655.22	879.81
655.56	872.78
655.90	865.94
656.25	859.29
656.59	852.30
656.93	845.26
657.27	838.06
657.61	830.94
657.95	824.73
658.29	818.83
658.64	812.63
658.98	806.13
659.32	799.55
659.66	793.28
660.00	786.83
660.34	780.75
660.68	774.62
661.02	768.20
661.36	762.10
661.70	756.19
662.05	750.46
662.39	744.97
662.73	739.50
663.07	734.03
663.41	728.30
663.75	722.57
664.09	716.88
664.43	711.39
664.77	706.02
665.11	700.20
665.45	694.20
665.79	688.34
666.13	682.52
666.47	676.94
666.81	671.41
667.15	665.95
667.49	660.66
667.83	655.34
668.17	650.01
668.51	644.88
668.85	639.90
669.19	635.01
669.53	629.88
669.87	624.74
670.21	619.96
670.55	615.24
670.89	610.67
671.23	606.28
671.57	601.83
671.91	597.57
672.25	593.37
672.58	589.27
672.92	585.16
673.26	581.22
673.60	577.22
673.94	573.35
674.28	569.65
674.62	565.84
674.96	562.02
675.30	558.50
675.64	554.77
675.97	551.08
676.31	547.44
676.65	543.81
676.99	540.29
677.33	536.43
677.67	532.71
678.01	528.89
678.34	525.21
678.68	521.66
679.02	517.92
679.36	514.18
679.70	510.43
680.04	506.83
680.37	503.34
680.71	500.02
681.05	496.80
681.39	493.55
681.73	490.40
682.06	487.35
682.40	484.19
682.74	480.92
683.08	477.67
683.42	474.42
683.75	471.36
684.09	468.32
684.43	465.50
684.77	462.50
685.10	459.58
685.44	456.61
685.78	453.65
686.12	450.86
686.45	448.10
686.79	445.38
687.13	442.84
687.46	440.18
687.80	437.40
688.14	434.46
688.48	431.82
688.81	429.05
689.15	426.43
689.49	423.79
689.82	421.26
690.16	418.69
690.50	416.17
690.83	413.66
691.17	411.07
691.51	408.53
691.84	406.20
692.18	403.99
692.52	401.72
692.85	399.55
693.19	397.43
693.52	395.24
693.86	393.01
694.20	390.76
694.53	388.56
694.87	386.35
695.21	384.21
695.54	382.00
695.88	379.83
696.21	377.61
696.55	375.43
696.88	373.30
697.22	371.26
697.56	369.31
697.89	367.39
698.23	365.59
698.56	363.77
698.90	362.01
699.23	360.06
699.57	358.21
699.90	356.33
700.24	354.43
700.58	352.65
700.91	350.98
701.25	349.37
701.58	347.74
701.92	346.16
702.25	344.55
702.59	342.89
702.92	341.30
703.26	339.68
703.59	338.17
703.93	336.91
704.26	335.49
704.60	334.00
704.93	332.44
705.26	330.94
705.60	329.42
705.93	327.86
706.27	326.51
706.60	325.21
706.94	323.96
707.27	322.54
707.61	321.17
707.94	319.83
708.27	318.31
708.61	316.86
708.94	315.46
709.28	314.10
709.61	312.83
709.94	311.60
710.28	310.40
710.61	309.21
710.95	307.78
711.28	306.69
711.61	305.46
711.95	304.38
712.28	303.17
712.61	301.99
712.95	301.00
713.28	299.96
713.61	298.75
713.95	297.59
714.28	296.56
714.61	295.48
714.95	294.45
715.28	293.42
715.61	292.37
715.95	291.39
716.28	290.45
716.61	289.53
716.95	288.50
717.28	287.57
717.61	286.61
717.94	285.68
718.28	284.60
718.61	283.72
718.94	282.79
719.27	281.93
719.61	281.10
719.94	280.17
720.27	279.19
720.60	278.38
720.94	277.55
721.27	276.76
721.60	276.05
721.93	275.34
722.27	274.69
722.60	274.04
722.93	273.33
723.26	272.63
723.59	271.91
723.93	271.29
724.26	270.63
724.59	269.97
724.92	269.37
725.25	268.84
725.59	268.25
725.92	267.71
726.25	267.12
726.58	266.55
726.91	265.94
727.24	265.40
727.57	264.85
727.91	264.23
728.24	263.71
728.57	263.11
728.90	262.49
729.23	261.83
729.56	261.39
729.89	260.83
730.22	260.27
730.55	259.73
730.89	259.20
731.22	258.68
731.55	258.12
731.88	257.56
732.21	257.00
732.54	256.44
732.87	255.90
733.20	255.42
733.53	254.93
733.86	254.49
734.19	253.98
734.52	253.53
734.85	253.23
735.18	252.70
735.51	252.35
735.84	251.92
736.17	251.57
736.50	251.01
736.83	250.85
737.16	250.48
737.49	250.10
737.82	249.67
738.15	249.25
738.48	248.89
738.81	248.50
739.14	248.05
739.47	247.65
739.80	247.28
740.13	246.93
740.46	246.52
740.79	246.16
741.12	245.79
741.45	245.42
741.78	244.99
742.11	244.74
742.44	244.30
742.77	244.02
743.10	243.63
743.43	243.29
743.75	242.72
744.08	242.63
744.41	242.27
744.74	241.94
745.07	241.60
745.40	241.31
745.73	241.07
746.06	240.78
746.39	240.48
746.71	240.14
747.04	239.74
747.37	239.46
747.70	239.13
748.03	238.83
748.36	238.53
748.68	238.24
749.01	237.83
749.34	237.56
749.67	237.21
750.00	236.97
750.33	236.85
750.65	236.60
750.98	236.07
751.31	235.79
751.64	235.57
751.97	235.42
752.29	235.13
752.62	234.79
752.95	234.51
753.28	234.28
753.60	234.03
753.93	233.89
754.26	233.65
754.59	233.37
754.91	233.16
755.24	232.94
755.57	232.68
755.90	232.49
756.22	232.20
756.55	231.98
756.88	231.70
757.20	231.35
757.53	231.10
757.86	230.89
758.19	230.70
758.51	230.47
758.84	230.16
759.17	229.93
759.49	229.75
759.82	229.67
760.15	229.50
760.47	229.32
760.80	229.03
761.13	228.91
761.45	228.72
761.78	228.53
762.11	228.32
762.43	228.14
762.76	227.95
763.08	227.83
763.41	227.68
763.74	227.53
764.06	227.34
764.39	227.15
764.71	226.98
765.04	226.81
765.37	226.66
765.69	226.49
766.02	226.36
766.34	226.22
766.67	226.03
767.00	225.94
767.32	225.91
767.65	225.93
767.97	225.72
768.30	225.61
768.62	225.44
768.95	225.32
769.27	225.20
769.60	225.11
769.92	224.95
770.25	224.80
770.57	224.63
770.90	224.49
771.22	224.36
771.55	224.24
771.87	224.14
772.20	224.03
772.52	224.09
772.85	224.23
773.17	224.12
773.50	223.98
773.82	223.80
774.15	223.62
774.47	223.39
774.80	223.28
775.12	223.17
775.45	223.13
775.77	223.01
776.09	222.92
776.42	222.83
776.74	222.81
777.07	222.70
777.39	222.66
777.72	222.58
778.04	222.54
778.36	222.46
778.69	222.38
779.01	222.28
779.33	222.02
779.66	221.69
779.98	221.60
780.31	221.52
780.63	221.56
780.95	221.51
781.28	221.40
781.60	221.32
781.92	221.22
782.25	221.14
782.57	221.09
782.89	220.99
783.22	220.92
783.54	220.84
783.86	220.81
784.19	220.71
784.51	220.69
784.83	220.59
785.16	220.50
785.48	220.42
785.80	220.38
786.12	220.35
786.45	220.30
786.77	220.24
787.09	220.17
787.42	220.03
787.74	219.99
788.06	219.94
788.38	219.87
788.71	219.84
789.03	219.80
789.35	219.78
789.67	219.74
789.99	219.69
790.32	219.60
790.64	219.56
790.96	219.71
791.28	219.63
791.61	219.59
791.93	219.57
792.25	219.54
792.57	219.64
792.89	219.55
793.21	219.52
793.54	219.47
793.86	219.41
794.18	219.35
794.50	219.26
794.82	219.24
795.14	219.26
795.47	219.24
795.79	219.18
796.11	219.07
796.43	219.00
796.75	218.97
797.07	218.90
797.39	218.84
797.71	218.65
798.04	218.61
798.36	218.56
798.68	218.50
799.00	218.44
799.32	218.29
799.64	218.30
799.96	218.27
800.28	218.30
800.60	218.26
800.92	218.25
801.24	218.19
801.56	218.15
801.89	218.06
802.21	218.01
802.53	217.94
802.85	217.98
803.17	218.06
803.49	217.98
803.81	217.98
804.13	217.94
804.45	217.84
804.77	217.80
805.09	217.82
805.41	217.78
805.73	217.73
806.05	217.65
806.37	217.58
806.69	217.52
807.01	217.45
807.33	217.42
807.65	217.31
807.97	217.40
808.28	217.39
808.60	217.35
808.92	217.31
809.24	217.40
809.56	217.35
809.88	217.26
810.20	217.22
810.52	217.25
810.84	217.22
811.16	217.20
811.48	217.20
811.80	217.20
812.12	217.16
812.43	217.18
812.75	217.17
813.07	217.14
813.39	217.13
813.71	217.06
814.03	217.03
814.35	216.99
814.67	216.87
814.98	216.78
815.30	216.78
815.62	216.71
815.94	216.57
816.26	216.54
816.58	216.45
816.89	216.45
817.21	216.37
817.53	216.40
817.85	216.38
818.17	216.35
818.48	216.24
818.80	216.27
819.12	216.23
819.44	216.18
819.76	216.13
820.07	216.11
820.39	216.10
820.71	216.10
821.03	216.13
821.34	216.08
821.66	216.11
821.98	216.11
822.30	216.11
822.61	216.20
822.93	216.15
823.25	216.15
823.57	216.12
823.88	216.14
824.20	216.06
824.52	216.08
824.83	216.04
825.15	216.05
825.47	215.98
825.79	215.96
826.10	215.96
826.42	215.97
826.74	215.99
827.05	215.96
827.37	216.00
827.69	215.99
828.00	216.01
828.32	215.98
828.64	215.93
828.95	216.03
829.27	215.97
829.58	215.95
829.90	215.95
830.22	215.97
830.53	215.90
830.85	215.86
831.17	215.78
831.48	215.81
831.80	215.82
832.11	215.83
832.43	215.79
832.75	215.74
833.06	215.83
833.38	215.75
833.69	215.76
834.01	215.71
834.32	215.68
834.64	215.62
834.96	215.63
835.27	215.63
835.59	215.55
835.90	215.50
836.22	215.53
836.53	215.47
836.85	215.42
837.16	215.65
837.48	215.67
837.79	215.77
838.11	215.72
838.42	215.69
838.74	215.69
839.05	215.68
839.37	215.69
839.68	215.57
840.00	215.53
840.31	215.52
840.63	215.50
840.94	215.47
841.26	215.45
841.57	215.42
841.88	215.46
842.20	215.43
842.51	215.42
842.83	215.40
843.14	215.60
843.46	215.61
843.77	215.44
844.08	215.41
844.40	215.33
844.71	215.31
845.03	215.28
845.34	215.26
845.65	215.25
845.97	215.21
846.28	215.20
846.60	215.21
846.91	215.19
847.22	215.20
847.54	215.24
847.85	215.27
848.16	215.24
848.48	215.22
848.79	215.30
849.10	215.30
849.42	215.31
849.73	215.07
850.04	215.08
850.36	215.04
850.67	215.09
850.98	215.08
851.30	215.09
851.61	215.09
851.92	215.10
852.23	215.14
852.55	215.20
852.86	215.19
853.17	215.24
853.49	215.28
853.80	215.30
854.11	215.29
854.42	215.30
854.74	215.29
855.05	215.25
855.36	215.13
855.67	215.14
855.99	215.13
856.30	215.40
856.61	215.36
856.92	215.35
857.23	215.34
857.55	215.34
857.86	215.34
858.17	215.38
858.48	215.35
858.79	215.33
859.11	215.34
859.42	215.36
859.73	215.29
860.04	215.29
860.35	215.24
860.66	215.18
860.98	215.20
861.29	215.22
861.60	215.19
861.91	215.25
862.22	215.22
862.53	215.18
862.84	214.91
863.16	214.96
863.47	214.92
863.78	214.92
864.09	214.94
864.40	214.92
864.71	214.91
865.02	214.92
865.33	214.90
865.64	214.82
865.95	214.82
866.27	214.96
866.58	214.92
866.89	214.94
867.20	214.95
867.51	214.90
867.82	214.89
868.13	214.99
868.44	214.91
868.75	214.94
869.06	214.95
869.37	215.00
869.68	214.96
869.99	214.97
870.30	214.97
870.61	214.95
870.92	214.89
871.23	214.86
871.54	214.87
871.85	214.91
872.16	214.97
872.47	214.94
872.78	214.80
873.09	214.83
873.40	214.81
873.71	214.83
874.02	214.83
874.33	214.81
874.64	214.74
874.95	214.78
875.26	214.75
875.56	214.74
875.87	214.71
876.18	214.70
876.49	214.94
876.80	214.91
877.11	214.88
877.42	214.94
877.73	214.96
878.04	214.93
878.35	214.93
878.66	214.92
878.96	214.93
879.27	214.93
879.58	214.91
879.89	214.89
880.20	214.95
880.51	214.95
880.82	214.96
881.12	215.00
881.43	214.97
881.74	214.94
882.05	214.92
882.36	214.93
882.67	214.94
882.97	214.73
883.28	214.75
883.59	214.77
883.90	214.76
884.21	214.78
884.51	214.75
884.82	214.73
885.13	214.71
885.44	214.71
885.74	214.72
886.05	214.74
886.36	214.74
886.67	214.64
886.98	214.73
887.28	214.74
887.59	214.72
887.90	214.69
888.20	214.69
888.51	214.73
888.82	214.71
889.13	214.72
889.43	214.87
889.74	214.83
890.05	214.82
890.35	214.81
890.66	214.80
890.97	214.79
891.28	214.78
891.58	214.81
891.89	214.80
892.20	214.76
892.50	214.73
892.81	214.74
893.12	214.76
893.42	214.68
893.73	214.71
894.04	214.71
894.34	214.73
894.65	214.72
894.95	214.69
895.26	214.70
895.57	214.76
895.87	214.57
896.18	214.62
896.48	214.64
896.79	214.61
897.10	214.64
897.40	214.64
897.71	214.64
898.01	214.62
898.32	214.62
898.63	214.63
898.93	214.64
899.24	214.64
899.54	214.64
899.85	214.62
900.15	214.58
900.46	214.58
900.76	214.62
901.07	214.62
901.38	214.63
901.68	214.66
901.99	214.58
902.29	214.61
902.60	214.59
902.90	214.58
903.21	214.59
903.51	214.56
903.82	214.62
904.12	214.64
904.43	214.63
904.73	214.62
905.03	214.63
905.34	214.82
905.64	214.80
905.95	214.78
906.25	214.76
906.56	214.77
906.86	214.77
907.17	214.74
907.47	214.79
907.77	214.75
908.08	214.69
908.38	214.71
908.69	214.69
908.99	214.73
909.30	214.73
909.60	214.75
909.90	214.79
910.21	214.75
910.51	214.69
910.81	214.69
911.12	214.74
911.42	214.75
911.73	214.53
912.03	214.55
912.33	214.61
912.64	214.63
912.94	214.62
913.24	214.57
913.55	214.55
913.85	214.51
914.15	214.56
914.46	214.60
914.76	214.57
915.06	214.57
915.37	214.55
915.67	214.54
915.97	214.54
916.27	214.50
916.58	214.49
916.88	214.53
917.18	214.54
917.49	214.65
917.79	214.64
918.09	214.68
918.39	214.74
918.70	214.71
919.00	214.71
919.30	214.80
919.60	214.80
919.91	214.78
920.21	214.80
920.51	214.74
920.81	214.74
921.12	214.77
921.42	214.78
921.72	214.75
922.02	214.75
922.32	214.79
922.63	214.79
922.93	214.90
923.23	214.88
923.53	214.83
923.83	214.70
924.13	214.72
924.44	214.73
924.74	214.72
925.04	214.77
925.34	214.73
925.64	214.64
925.94	214.65
926.24	214.74
926.55	214.70
926.85	214.76
927.15	214.76
927.45	214.77
927.75	214.74
928.05	214.76
928.35	214.72
928.65	214.72
928.95	214.73
929.26	214.65
929.56	214.68
929.86	214.73
930.16	214.71
930.46	214.72
930.76	214.69
931.06	214.63
931.36	214.56
931.66	214.62
931.96	214.66
932.26	214.66
932.56	214.60
932.86	214.65
933.16	214.63
933.46	214.58
933.76	214.55
934.06	214.60
934.36	214.68
934.66	214.70
934.96	214.66
935.26	214.66
935.56	214.70
935.86	214.67
936.16	214.66
936.46	214.64
936.76	214.59
937.06	214.55
937.36	214.57
937.66	214.58
937.96	214.57
938.26	214.51
938.56	214.49
938.86	214.50
939.16	214.56
939.46	214.57
939.76	214.61
940.06	214.62
940.35	214.58
940.65	214.46
940.95	214.46
941.25	214.41
941.55	214.39
941.85	214.37
942.15	214.42
942.45	214.45
942.75	214.44
943.04	214.46
943.34	214.51
943.64	214.44
943.94	214.42
944.24	214.42
944.54	214.45
944.84	214.46
945.13	214.42
945.43	214.38
945.73	214.37
946.03	214.34
946.33	214.30
946.62	214.28
946.92	214.28
947.22	214.29
947.52	214.34
947.82	214.36
948.11	214.34
948.41	214.28
948.71	214.19
949.01	214.22
949.31	214.18
949.60	214.18
949.90	214.22
950.20	214.23
950.50	214.21
950.79	214.18
951.09	214.23
951.39	214.23
951.69	214.20
951.98	214.25
952.28	214.25
952.58	214.28
952.87	214.25
953.17	214.26
953.47	214.24
953.76	214.22
954.06	214.19
954.36	214.16
954.66	214.15
954.95	214.25
955.25	214.28
955.55	214.31
955.84	214.29
956.14	214.34
956.44	214.34
956.73	214.33
957.03	214.35
957.32	214.34
957.62	214.32
957.92	214.32
958.21	214.29
958.51	214.54
958.81	214.59
959.10	214.62
959.40	214.70
959.69	214.69
959.99	214.71
960.29	214.70
960.58	214.69
960.88	214.76
961.17	214.70
961.47	214.70
961.76	214.65
962.06	214.71
962.36	214.65
962.65	214.64
962.95	214.63
963.24	214.62
963.54	214.60
963.83	214.60
964.13	214.62
964.42	214.57
964.72	214.39
965.01	214.36
965.31	214.38
965.60	214.32
965.90	214.47
966.19	214.42
966.49	214.42
966.78	214.42
967.08	214.42
967.37	214.43
967.67	214.40
967.96	214.45
968.26	214.41
968.55	214.43
968.85	214.45
969.14	214.44
969.43	214.40
969.73	214.39
970.02	214.39
970.32	214.37
970.61	214.36
970.91	214.30
971.20	214.27
971.49	214.24
971.79	214.24
972.08	214.10
972.38	214.13
972.67	214.14
972.96	214.19
973.26	214.15
973.55	214.21
973.85	214.19
974.14	214.19
974.43	214.21
974.73	214.16
975.02	214.13
975.31	214.17
975.61	214.19
975.90	214.19
976.19	214.18
976.49	214.20
976.78	214.27
977.07	214.24
977.37	214.27
977.66	214.25
977.95	214.25
978.24	214.25
978.54	214.29
978.83	214.27
979.12	214.23
979.42	214.21
979.71	214.18
980.00	214.20
980.29	214.21
980.59	214.16
980.88	214.21
981.17	214.23
981.46	214.19
981.76	214.20
982.05	214.25
982.34	214.28
982.63	214.28
982.93	214.23
983.22	214.31
983.51	214.31
983.80	214.36
984.09	214.39
984.39	214.38
984.68	214.34
984.97	214.34
985.26	214.32
985.55	214.34
985.85	214.29
986.14	214.30
986.43	214.33
986.72	214.33
987.01	214.28
987.30	214.30
987.59	214.30
987.89	214.33
988.18	214.27
988.47	214.21
988.76	214.21
989.05	214.24
989.34	214.24
989.63	214.26
989.92	214.24
990.22	214.20
990.51	214.20
990.80	214.20
991.09	214.21
991.38	214.24
991.67	214.24
991.96	214.25
992.25	214.24
992.54	214.17
992.83	214.17
993.12	214.16
993.41	214.14
993.70	214.23
993.99	214.26
994.28	214.33
994.58	214.41
994.87	214.37
995.16	214.35
995.45	214.30
995.74	214.26
996.03	214.26
996.32	214.28
996.61	214.32
996.90	214.31
997.19	214.29
997.48	214.30
997.77	214.25
998.06	214.26
998.34	214.22
998.63	214.23
998.92	214.22
999.21	214.26
999.50	214.26
999.79	214.15
1000.08	214.12
1000.37	214.08
1000.66	214.03
1000.95	214.06
1001.24	214.09
1001.53	214.10
1001.82	214.07
1002.11	214.05
1002.40	214.09
1002.68	214.13
1002.97	214.29
1003.26	214.27
1003.55	214.20
1003.84	214.24
1004.13	214.31
1004.42	214.35
1004.71	214.35
1004.99	214.32
1005.28	214.37
1005.57	214.39
1005.86	214.39
1006.15	214.39
1006.44	214.34
1006.72	214.35
1007.01	214.32
1007.30	214.30
1007.59	214.31
1007.88	214.32
1008.17	214.32
1008.45	214.26
1008.74	214.18
1009.03	214.06
1009.32	214.09
1009.60	214.08
1009.89	214.05
1010.18	213.96
1010.47	213.93
1010.76	213.95
1011.04	213.97
1011.33	213.97
1011.62	213.97
1011.91	213.99
1012.19	213.98
1012.48	214.03
1012.77	214.02
1013.05	214.16
1013.34	214.15
1013.63	214.15
1013.92	214.16
1014.20	214.13
1014.49	214.12
1014.78	214.16
1015.06	214.15
1015.35	214.15
1015.64	214.22
1015.92	214.27
1016.21	214.30
1016.50	214.32
1016.78	214.30
1017.07	214.30
1017.36	214.28
1017.64	214.25
1017.93	214.28
1018.22	214.29
1018.50	214.28
1018.79	214.27
1019.08	214.16
1019.36	214.20
1019.65	214.20
1019.93	214.24
1020.22	214.29
1020.51	214.41
1020.79	214.39
1021.08	214.15
1021.36	213.99
1021.65	213.93
1021.94	214.32
1022.22	214.50
1022.51	214.62
1022.79	214.95
1023.08	214.21
1023.36	216.75
1023.65	214.16
>>>>>End Processed Spectral Data<<<<<
