SpectraSuite Data File
++++++++++++++++++++++++++++++++++++
Date: Tue Jan 29 16:20:53 EST 2013
User: group
Dark Spectrum Present: No
Reference Spectrum Present: No
Number of Sampled Component Spectra: 1
Spectrometers: USB2E7196
Integration Time (usec): 65000 (USB2E7196)
Spectra Averaged: 100 (USB2E7196)
Boxcar Smoothing: 10 (USB2E7196)
Correct for Electrical Dark: No (USB2E7196)
Strobe/Lamp Enabled: No (USB2E7196)
Correct for Detector Non-linearity: No (USB2E7196)
Correct for Stray Light: No (USB2E7196)
Number of Pixels in Processed Spectrum: 2048
>>>>>Begin Processed Spectral Data<<<<<
339.09	0.00
339.48	201.93
339.86	203.97
340.24	205.78
340.63	206.96
341.01	211.10
341.39	209.92
341.78	211.04
342.16	211.97
342.54	212.81
342.93	201.75
343.31	211.93
343.69	212.50
344.07	212.96
344.46	213.38
344.84	213.77
345.22	213.96
345.60	214.21
345.99	214.43
346.37	214.61
346.75	214.73
347.13	214.80
347.52	214.90
347.90	214.96
348.28	214.99
348.66	215.09
349.05	215.08
349.43	215.13
349.81	215.14
350.19	215.23
350.57	215.31
350.96	215.40
351.34	215.51
351.72	215.61
352.10	215.75
352.48	215.83
352.87	215.88
353.25	215.94
353.63	216.02
354.01	216.06
354.39	216.10
354.77	216.13
355.15	216.25
355.54	216.26
355.92	216.26
356.30	216.33
356.68	216.50
357.06	216.60
357.44	216.61
357.82	216.69
358.20	216.78
358.58	216.82
358.97	216.90
359.35	217.01
359.73	217.10
360.11	217.12
360.49	217.16
360.87	217.23
361.25	217.27
361.63	217.35
362.01	217.41
362.39	217.44
362.77	217.51
363.15	217.52
363.53	217.58
363.91	217.63
364.29	217.64
364.67	217.47
365.05	217.44
365.43	217.50
365.81	217.56
366.19	217.62
366.57	217.72
366.95	217.65
367.33	217.55
367.71	217.51
368.09	217.51
368.47	217.53
368.85	217.48
369.23	217.52
369.61	217.43
369.99	217.44
370.37	217.42
370.75	217.51
371.13	217.43
371.51	217.38
371.89	217.38
372.27	217.36
372.65	217.35
373.03	217.36
373.41	217.28
373.78	217.21
374.16	217.07
374.54	216.94
374.92	216.90
375.30	216.91
375.68	216.85
376.06	216.83
376.44	216.76
376.82	216.76
377.19	216.71
377.57	216.68
377.95	216.60
378.33	216.55
378.71	216.37
379.09	216.35
379.47	216.35
379.84	216.26
380.22	216.19
380.60	216.14
380.98	216.07
381.36	216.05
381.73	215.99
382.11	216.01
382.49	216.00
382.87	215.97
383.25	215.95
383.62	216.15
384.00	216.09
384.38	216.07
384.76	216.06
385.13	216.12
385.51	216.10
385.89	216.05
386.27	216.03
386.64	216.04
387.02	216.00
387.40	215.95
387.78	215.93
388.15	215.93
388.53	215.91
388.91	215.88
389.29	215.86
389.66	215.89
390.04	215.82
390.42	215.83
390.79	215.83
391.17	215.82
391.55	215.61
391.92	215.59
392.30	215.60
392.68	215.56
393.05	215.53
393.43	215.52
393.81	215.53
394.18	215.52
394.56	215.53
394.94	215.58
395.31	215.55
395.69	215.62
396.06	215.65
396.44	215.70
396.82	215.71
397.19	215.83
397.57	215.82
397.95	215.88
398.32	215.87
398.70	215.91
399.07	215.97
399.45	215.99
399.82	216.06
400.20	216.07
400.58	216.14
400.95	216.08
401.33	216.17
401.70	216.38
402.08	216.49
402.45	216.58
402.83	216.73
403.20	216.86
403.58	216.98
403.95	217.13
404.33	217.26
404.71	217.41
405.08	217.67
405.46	217.85
405.83	218.05
406.21	218.24
406.58	218.47
406.96	218.69
407.33	218.95
407.70	219.24
408.08	219.71
408.45	220.04
408.83	220.47
409.20	220.81
409.58	221.11
409.95	221.54
410.33	222.01
410.70	222.43
411.08	222.96
411.45	223.56
411.82	224.12
412.20	224.82
412.57	225.65
412.95	226.18
413.32	227.00
413.69	227.82
414.07	228.73
414.44	229.67
414.82	230.70
415.19	231.82
415.56	232.99
415.94	234.15
416.31	235.56
416.68	236.92
417.06	238.50
417.43	240.03
417.81	241.74
418.18	243.47
418.55	245.37
418.93	247.39
419.30	249.43
419.67	251.67
420.04	253.89
420.42	256.27
420.79	259.07
421.16	261.84
421.54	264.71
421.91	267.65
422.28	270.74
422.66	274.00
423.03	277.25
423.40	280.56
423.77	284.13
424.15	287.72
424.52	291.52
424.89	295.65
425.26	299.66
425.64	303.53
426.01	307.80
426.38	312.25
426.75	316.77
427.13	321.46
427.50	326.32
427.87	331.48
428.24	336.62
428.61	341.56
428.99	346.98
429.36	352.98
429.73	358.81
430.10	364.57
430.47	370.49
430.85	376.75
431.22	383.35
431.59	390.38
431.96	397.14
432.33	404.59
432.70	411.77
433.08	420.21
433.45	428.15
433.82	436.05
434.19	444.83
434.56	453.37
434.93	461.57
435.30	469.72
435.68	478.69
436.05	487.50
436.42	496.31
436.79	504.32
437.16	512.92
437.53	522.13
437.90	531.28
438.27	540.20
438.64	549.25
439.01	557.72
439.38	565.21
439.75	572.43
440.13	580.70
440.50	588.53
440.87	594.84
441.24	601.36
441.61	608.57
441.98	613.83
442.35	620.07
442.72	626.34
443.09	632.39
443.46	636.13
443.83	638.61
444.20	640.71
444.57	643.85
444.94	645.24
445.31	646.60
445.68	647.85
446.05	648.42
446.42	647.64
446.79	646.64
447.16	645.54
447.53	644.77
447.90	641.47
448.27	638.20
448.64	633.64
449.01	630.36
449.37	624.58
449.74	618.97
450.11	612.18
450.48	604.83
450.85	597.45
451.22	591.01
451.59	584.97
451.96	579.23
452.33	571.50
452.70	564.56
453.07	556.21
453.43	547.73
453.80	539.55
454.17	531.65
454.54	524.23
454.91	516.13
455.28	508.31
455.65	500.95
456.02	493.54
456.38	487.24
456.75	479.57
457.12	473.03
457.49	466.64
457.86	460.51
458.23	455.20
458.59	449.33
458.96	443.42
459.33	438.23
459.70	432.96
460.07	428.76
460.43	423.92
460.80	419.40
461.17	415.46
461.54	411.30
461.91	407.36
462.27	403.28
462.64	399.93
463.01	396.15
463.38	392.58
463.74	388.97
464.11	385.82
464.48	382.94
464.85	379.93
465.21	377.52
465.58	374.95
465.95	371.87
466.32	369.34
466.68	366.79
467.05	364.18
467.42	361.68
467.78	359.00
468.15	356.46
468.52	354.56
468.88	352.09
469.25	349.98
469.62	348.20
469.98	346.32
470.35	344.54
470.72	342.86
471.08	341.10
471.45	339.62
471.82	338.10
472.18	336.47
472.55	335.29
472.92	333.94
473.28	332.76
473.65	331.64
474.02	330.53
474.38	329.68
474.75	328.97
475.11	328.17
475.48	327.65
475.85	327.24
476.21	326.75
476.58	326.44
476.94	326.18
477.31	325.88
477.67	325.66
478.04	325.51
478.41	325.49
478.77	325.68
479.14	325.60
479.50	325.78
479.87	326.08
480.23	326.44
480.60	326.67
480.96	326.94
481.33	327.56
481.69	328.17
482.06	328.69
482.42	329.13
482.79	329.75
483.15	330.52
483.52	331.46
483.88	332.38
484.25	333.31
484.61	334.36
484.98	335.40
485.34	336.69
485.71	338.09
486.07	339.52
486.44	340.82
486.80	342.47
487.17	344.12
487.53	345.93
487.90	347.82
488.26	349.86
488.62	352.02
488.99	354.04
489.35	356.16
489.72	358.55
490.08	361.11
490.44	363.62
490.81	366.33
491.17	369.05
491.54	372.04
491.90	375.03
492.26	378.30
492.63	381.77
492.99	385.32
493.36	388.98
493.72	392.84
494.08	396.88
494.45	401.13
494.81	405.48
495.17	409.98
495.54	414.63
495.90	419.52
496.26	424.47
496.63	429.74
496.99	435.17
497.35	440.74
497.72	446.59
498.08	452.57
498.44	458.68
498.80	465.08
499.17	471.53
499.53	478.29
499.89	485.18
500.26	492.17
500.62	499.26
500.98	506.71
501.34	514.25
501.71	522.02
502.07	529.85
502.43	537.93
502.79	546.09
503.16	554.47
503.52	563.06
503.88	571.82
504.24	580.77
504.60	589.86
504.97	599.11
505.33	608.46
505.69	618.39
506.05	628.37
506.41	638.35
506.78	648.53
507.14	658.91
507.50	669.44
507.86	680.19
508.22	691.01
508.59	701.73
508.95	712.91
509.31	724.29
509.67	735.88
510.03	747.34
510.39	759.18
510.75	771.16
511.12	783.21
511.48	795.41
511.84	807.70
512.20	820.17
512.56	832.90
512.92	845.81
513.28	858.53
513.64	871.32
514.00	884.16
514.37	897.23
514.73	910.32
515.09	923.39
515.45	936.42
515.81	949.56
516.17	963.01
516.53	976.21
516.89	989.29
517.25	1002.42
517.61	1015.99
517.97	1029.51
518.33	1042.69
518.69	1056.24
519.05	1069.95
519.41	1083.69
519.77	1097.66
520.13	1111.04
520.49	1124.20
520.85	1137.60
521.21	1151.00
521.57	1164.84
521.93	1177.98
522.29	1191.80
522.65	1205.55
523.01	1219.11
523.37	1232.33
523.73	1245.70
524.09	1258.91
524.45	1272.44
524.81	1286.02
525.17	1299.40
525.53	1312.62
525.89	1326.15
526.25	1339.42
526.61	1352.27
526.97	1365.40
527.33	1378.27
527.68	1391.80
528.04	1405.31
528.40	1418.54
528.76	1431.95
529.12	1444.72
529.48	1458.10
529.84	1470.32
530.20	1482.94
530.56	1495.61
530.91	1508.85
531.27	1521.72
531.63	1534.55
531.99	1547.33
532.35	1559.55
532.71	1572.00
533.07	1584.88
533.42	1597.08
533.78	1609.01
534.14	1621.18
534.50	1632.47
534.86	1643.99
535.21	1654.84
535.57	1666.27
535.93	1677.48
536.29	1688.50
536.65	1700.04
537.00	1711.02
537.36	1722.56
537.72	1733.57
538.08	1745.00
538.44	1755.97
538.79	1767.02
539.15	1777.91
539.51	1788.55
539.87	1799.97
540.22	1810.71
540.58	1821.56
540.94	1832.33
541.29	1842.66
541.65	1852.40
542.01	1862.92
542.37	1873.12
542.72	1883.28
543.08	1893.14
543.44	1903.65
543.79	1913.03
544.15	1922.44
544.51	1932.32
544.87	1942.18
545.22	1951.47
545.58	1960.32
545.94	1969.28
546.29	1977.90
546.65	1986.32
547.01	1994.56
547.36	2002.18
547.72	2009.93
548.07	2017.41
548.43	2025.18
548.79	2033.10
549.14	2041.24
549.50	2049.70
549.86	2057.57
550.21	2064.95
550.57	2072.69
550.92	2079.39
551.28	2086.85
551.64	2094.11
551.99	2101.72
552.35	2108.72
552.70	2115.66
553.06	2122.29
553.41	2128.47
553.77	2134.97
554.13	2141.30
554.48	2148.46
554.84	2155.65
555.19	2162.12
555.55	2168.71
555.90	2174.99
556.26	2181.74
556.61	2187.88
556.97	2192.64
557.32	2198.40
557.68	2204.90
558.03	2210.51
558.39	2215.96
558.74	2222.02
559.10	2227.67
559.45	2233.18
559.81	2238.89
560.16	2244.39
560.52	2250.33
560.87	2256.78
561.23	2262.72
561.58	2269.50
561.94	2274.68
562.29	2279.46
562.64	2285.85
563.00	2291.49
563.35	2297.11
563.71	2303.06
564.06	2308.76
564.42	2314.86
564.77	2320.04
565.12	2325.41
565.48	2330.74
565.83	2336.30
566.19	2341.74
566.54	2347.18
566.89	2351.76
567.25	2356.36
567.60	2362.09
567.96	2367.28
568.31	2371.99
568.66	2376.37
569.02	2380.15
569.37	2384.05
569.72	2388.43
570.08	2391.91
570.43	2395.17
570.78	2398.59
571.14	2400.94
571.49	2404.25
571.84	2407.93
572.20	2410.92
572.55	2413.94
572.90	2416.36
573.26	2419.35
573.61	2422.03
573.96	2424.25
574.31	2426.42
574.67	2428.40
575.02	2429.27
575.37	2430.97
575.72	2431.78
576.08	2433.54
576.43	2433.90
576.78	2434.56
577.13	2436.26
577.49	2437.57
577.84	2438.82
578.19	2440.03
578.54	2440.98
578.90	2441.63
579.25	2441.66
579.60	2441.76
579.95	2441.14
580.30	2441.34
580.66	2440.59
581.01	2439.00
581.36	2436.85
581.71	2435.60
582.06	2434.54
582.42	2433.91
582.77	2431.84
583.12	2430.37
583.47	2428.84
583.82	2428.48
584.17	2427.37
584.53	2425.43
584.88	2423.55
585.23	2421.66
585.58	2419.51
585.93	2417.71
586.28	2415.73
586.63	2413.28
586.98	2411.28
587.34	2409.49
587.69	2407.19
588.04	2405.39
588.39	2403.99
588.74	2401.45
589.09	2398.73
589.44	2395.79
589.79	2393.36
590.14	2391.45
590.49	2388.66
590.84	2385.03
591.19	2382.01
591.54	2378.76
591.89	2374.80
592.25	2371.54
592.60	2367.55
592.95	2363.59
593.30	2359.30
593.65	2354.88
594.00	2350.58
594.35	2347.53
594.70	2342.93
595.05	2338.31
595.40	2332.91
595.75	2327.18
596.10	2323.74
596.45	2319.09
596.80	2314.51
597.15	2309.44
597.50	2303.39
597.85	2298.56
598.19	2293.34
598.54	2287.55
598.89	2282.35
599.24	2277.71
599.59	2271.53
599.94	2265.62
600.29	2259.51
600.64	2253.64
600.99	2246.92
601.34	2241.44
601.69	2234.38
602.04	2228.01
602.39	2221.43
602.74	2215.29
603.08	2209.81
603.43	2203.28
603.78	2196.42
604.13	2189.37
604.48	2182.01
604.83	2176.07
605.18	2169.78
605.53	2162.79
605.87	2155.71
606.22	2148.95
606.57	2141.05
606.92	2133.14
607.27	2126.17
607.62	2119.68
607.96	2112.58
608.31	2106.21
608.66	2098.47
609.01	2090.80
609.36	2083.63
609.70	2075.93
610.05	2068.17
610.40	2059.91
610.75	2051.60
611.10	2043.76
611.44	2034.77
611.79	2026.02
612.14	2015.84
612.49	2005.06
612.83	1995.76
613.18	1986.40
613.53	1976.99
613.88	1967.35
614.22	1958.65
614.57	1948.77
614.92	1938.04
615.27	1927.74
615.61	1917.48
615.96	1907.62
616.31	1898.00
616.65	1888.52
617.00	1878.72
617.35	1869.05
617.70	1859.18
618.04	1849.04
618.39	1838.87
618.74	1829.28
619.08	1819.54
619.43	1810.86
619.78	1802.59
620.12	1793.80
620.47	1784.10
620.82	1773.65
621.16	1763.69
621.51	1753.77
621.85	1743.75
622.20	1733.27
622.55	1722.70
622.89	1712.72
623.24	1702.94
623.59	1693.07
623.93	1682.80
624.28	1672.82
624.62	1662.48
624.97	1652.08
625.32	1642.10
625.66	1633.03
626.01	1624.05
626.35	1614.55
626.70	1604.27
627.04	1594.06
627.39	1583.73
627.73	1574.40
628.08	1565.42
628.43	1555.91
628.77	1546.47
629.12	1537.44
629.46	1529.52
629.81	1520.98
630.15	1511.36
630.50	1501.40
630.84	1490.78
631.19	1480.74
631.53	1471.31
631.88	1461.07
632.22	1451.06
632.57	1441.67
632.91	1431.37
633.26	1421.40
633.60	1411.77
633.95	1402.45
634.29	1392.89
634.64	1383.46
634.98	1373.27
635.32	1363.86
635.67	1355.17
636.01	1345.71
636.36	1335.91
636.70	1326.28
637.05	1316.85
637.39	1307.79
637.73	1299.06
638.08	1291.41
638.42	1283.12
638.77	1274.40
639.11	1266.08
639.45	1258.06
639.80	1249.34
640.14	1240.57
640.49	1231.56
640.83	1222.57
641.17	1214.30
641.52	1206.02
641.86	1197.43
642.20	1189.53
642.55	1180.76
642.89	1171.84
643.23	1163.18
643.58	1155.01
643.92	1145.80
644.26	1136.95
644.61	1128.41
644.95	1119.43
645.29	1110.09
645.64	1100.87
645.98	1092.11
646.32	1084.06
646.66	1075.47
647.01	1067.05
647.35	1058.78
647.69	1050.39
648.04	1041.98
648.38	1033.05
648.72	1024.14
649.06	1015.56
649.41	1007.26
649.75	999.11
650.09	991.07
650.43	982.88
650.78	974.43
651.12	966.74
651.46	959.29
651.80	951.94
652.14	944.63
652.49	936.95
652.83	929.46
653.17	921.68
653.51	913.95
653.85	906.54
654.20	899.16
654.54	891.53
654.88	884.19
655.22	876.89
655.56	869.72
655.90	862.93
656.25	856.18
656.59	849.16
656.93	842.13
657.27	834.95
657.61	827.94
657.95	821.75
658.29	815.72
658.64	809.49
658.98	802.95
659.32	796.36
659.66	790.06
660.00	783.70
660.34	777.56
660.68	771.34
661.02	764.97
661.36	759.00
661.70	753.30
662.05	747.61
662.39	742.10
662.73	736.67
663.07	731.21
663.41	725.57
663.75	719.80
664.09	714.06
664.43	708.57
664.77	703.22
665.11	697.34
665.45	691.30
665.79	685.42
666.13	679.71
666.47	674.14
666.81	668.77
667.15	663.29
667.49	658.03
667.83	652.73
668.17	647.44
668.51	642.23
668.85	637.24
669.19	632.27
669.53	627.17
669.87	621.95
670.21	617.10
670.55	612.32
670.89	607.86
671.23	603.54
671.57	599.06
671.91	594.66
672.25	590.48
672.58	586.37
672.92	582.31
673.26	578.33
673.60	574.42
673.94	570.45
674.28	566.83
674.62	563.08
674.96	559.31
675.30	555.76
675.64	552.07
675.97	548.39
676.31	544.80
676.65	541.21
676.99	537.81
677.33	533.91
677.67	530.18
678.01	526.32
678.34	522.63
678.68	519.10
679.02	515.50
679.36	511.80
679.70	508.08
680.04	504.46
680.37	500.98
680.71	497.62
681.05	494.42
681.39	491.10
681.73	487.90
682.06	484.86
682.40	481.70
682.74	478.51
683.08	475.30
683.42	472.06
683.75	469.00
684.09	465.93
684.43	463.12
684.77	460.19
685.10	457.32
685.44	454.36
685.78	451.45
686.12	448.64
686.45	445.91
686.79	443.21
687.13	440.66
687.46	438.01
687.80	435.33
688.14	432.48
688.48	429.86
688.81	427.19
689.15	424.54
689.49	421.97
689.82	419.43
690.16	416.79
690.50	414.34
690.83	411.83
691.17	409.25
691.51	406.76
691.84	404.47
692.18	402.23
692.52	400.01
692.85	397.84
693.19	395.68
693.52	393.48
693.86	391.26
694.20	389.04
694.53	386.85
694.87	384.67
695.21	382.49
695.54	380.34
695.88	378.13
696.21	375.92
696.55	373.74
696.88	371.66
697.22	369.65
697.56	367.72
697.89	365.81
698.23	364.06
698.56	362.27
698.90	360.49
699.23	358.56
699.57	356.70
699.90	354.83
700.24	353.03
700.58	351.27
700.91	349.59
701.25	347.99
701.58	346.37
701.92	344.77
702.25	343.21
702.59	341.56
702.92	340.02
703.26	338.46
703.59	337.00
703.93	335.70
704.26	334.29
704.60	332.75
704.93	331.26
705.26	329.74
705.60	328.21
705.93	326.73
706.27	325.42
706.60	324.10
706.94	322.85
707.27	321.43
707.61	320.06
707.94	318.70
708.27	317.19
708.61	315.74
708.94	314.33
709.28	313.00
709.61	311.72
709.94	310.49
710.28	309.25
710.61	308.03
710.95	306.64
711.28	305.57
711.61	304.43
711.95	303.34
712.28	302.13
712.61	301.00
712.95	299.93
713.28	298.87
713.61	297.74
713.95	296.60
714.28	295.58
714.61	294.57
714.95	293.60
715.28	292.60
715.61	291.60
715.95	290.64
716.28	289.66
716.61	288.72
716.95	287.72
717.28	286.83
717.61	285.86
717.94	284.95
718.28	283.90
718.61	282.98
718.94	282.03
719.27	281.21
719.61	280.33
719.94	279.45
720.27	278.54
720.60	277.68
720.94	276.89
721.27	276.12
721.60	275.39
721.93	274.69
722.27	274.03
722.60	273.36
722.93	272.69
723.26	272.03
723.59	271.31
723.93	270.73
724.26	270.05
724.59	269.40
724.92	268.79
725.25	268.25
725.59	267.63
725.92	267.14
726.25	266.56
726.58	266.01
726.91	265.42
727.24	264.87
727.57	264.29
727.91	263.63
728.24	263.08
728.57	262.51
728.90	261.91
729.23	261.29
729.56	260.87
729.89	260.31
730.22	259.77
730.55	259.25
730.89	258.67
731.22	258.14
731.55	257.66
731.88	257.16
732.21	256.63
732.54	256.12
732.87	255.56
733.20	255.05
733.53	254.53
733.86	254.10
734.19	253.56
734.52	253.14
734.85	252.87
735.18	252.34
735.51	251.93
735.84	251.53
736.17	251.18
736.50	250.63
736.83	250.48
737.16	250.08
737.49	249.68
737.82	249.32
738.15	248.96
738.48	248.56
738.81	248.18
739.14	247.75
739.47	247.35
739.80	246.96
740.13	246.66
740.46	246.28
740.79	245.87
741.12	245.57
741.45	245.20
741.78	244.79
742.11	244.54
742.44	244.19
742.77	243.89
743.10	243.53
743.43	243.18
743.75	242.61
744.08	242.56
744.41	242.22
744.74	241.86
745.07	241.48
745.40	241.18
745.73	240.89
746.06	240.59
746.39	240.31
746.71	239.96
747.04	239.61
747.37	239.32
747.70	239.06
748.03	238.73
748.36	238.48
748.68	238.16
749.01	237.84
749.34	237.54
749.67	237.21
750.00	236.96
750.33	236.81
750.65	236.55
750.98	235.99
751.31	235.74
751.64	235.51
751.97	235.38
752.29	235.11
752.62	234.77
752.95	234.50
753.28	234.24
753.60	234.04
753.93	233.85
754.26	233.59
754.59	233.28
754.91	233.05
755.24	232.79
755.57	232.55
755.90	232.30
756.22	232.08
756.55	231.86
756.88	231.58
757.20	231.27
757.53	231.02
757.86	230.82
758.19	230.60
758.51	230.40
758.84	230.11
759.17	229.90
759.49	229.77
759.82	229.72
760.15	229.54
760.47	229.35
760.80	229.09
761.13	228.96
761.45	228.80
761.78	228.60
762.11	228.41
762.43	228.24
762.76	228.05
763.08	227.90
763.41	227.74
763.74	227.61
764.06	227.45
764.39	227.28
764.71	227.12
765.04	226.97
765.37	226.79
765.69	226.65
766.02	226.49
766.34	226.33
766.67	226.06
767.00	225.96
767.32	225.93
767.65	225.92
767.97	225.75
768.30	225.64
768.62	225.52
768.95	225.37
769.27	225.24
769.60	225.19
769.92	225.01
770.25	224.82
770.57	224.63
770.90	224.46
771.22	224.38
771.55	224.27
771.87	224.16
772.20	224.04
772.52	224.09
772.85	224.26
773.17	224.16
773.50	224.07
773.82	223.96
774.15	223.77
774.47	223.58
774.80	223.51
775.12	223.40
775.45	223.30
775.77	223.24
776.09	223.18
776.42	223.04
776.74	223.00
777.07	222.93
777.39	222.87
777.72	222.78
778.04	222.73
778.36	222.64
778.69	222.56
779.01	222.54
779.33	222.28
779.66	221.95
779.98	221.81
780.31	221.76
780.63	221.75
780.95	221.72
781.28	221.64
781.60	221.53
781.92	221.47
782.25	221.43
782.57	221.33
782.89	221.22
783.22	221.17
783.54	221.11
783.86	221.04
784.19	220.96
784.51	221.00
784.83	220.91
785.16	220.85
785.48	220.81
785.80	220.71
786.12	220.68
786.45	220.62
786.77	220.61
787.09	220.50
787.42	220.39
787.74	220.32
788.06	220.23
788.38	220.15
788.71	220.07
789.03	220.00
789.35	220.01
789.67	219.91
789.99	219.84
790.32	219.75
790.64	219.74
790.96	219.87
791.28	219.72
791.61	219.62
791.93	219.57
792.25	219.50
792.57	219.61
792.89	219.53
793.21	219.52
793.54	219.43
793.86	219.38
794.18	219.32
794.50	219.24
794.82	219.22
795.14	219.23
795.47	219.25
795.79	219.21
796.11	219.12
796.43	219.10
796.75	219.06
797.07	219.03
797.39	218.97
797.71	218.80
798.04	218.79
798.36	218.79
798.68	218.72
799.00	218.68
799.32	218.52
799.64	218.52
799.96	218.42
800.28	218.42
800.60	218.37
800.92	218.36
801.24	218.31
801.56	218.28
801.89	218.23
802.21	218.19
802.53	218.12
802.85	218.12
803.17	218.19
803.49	218.14
803.81	218.08
804.13	218.03
804.45	217.97
804.77	217.93
805.09	217.89
805.41	217.87
805.73	217.83
806.05	217.75
806.37	217.74
806.69	217.73
807.01	217.71
807.33	217.71
807.65	217.58
807.97	217.65
808.28	217.61
808.60	217.56
808.92	217.53
809.24	217.64
809.56	217.55
809.88	217.45
810.20	217.42
810.52	217.46
810.84	217.42
811.16	217.37
811.48	217.34
811.80	217.38
812.12	217.35
812.43	217.36
812.75	217.38
813.07	217.31
813.39	217.29
813.71	217.24
814.03	217.19
814.35	217.24
814.67	217.11
814.98	217.07
815.30	217.06
815.62	216.97
815.94	216.78
816.26	216.79
816.58	216.72
816.89	216.72
817.21	216.65
817.53	216.61
817.85	216.58
818.17	216.56
818.48	216.47
818.80	216.51
819.12	216.43
819.44	216.35
819.76	216.31
820.07	216.28
820.39	216.23
820.71	216.23
821.03	216.21
821.34	216.20
821.66	216.20
821.98	216.21
822.30	216.18
822.61	216.32
822.93	216.30
823.25	216.30
823.57	216.28
823.88	216.31
824.20	216.31
824.52	216.36
824.83	216.35
825.15	216.29
825.47	216.23
825.79	216.24
826.10	216.24
826.42	216.23
826.74	216.23
827.05	216.22
827.37	216.21
827.69	216.17
828.00	216.18
828.32	216.18
828.64	216.13
828.95	216.23
829.27	216.14
829.58	216.10
829.90	216.12
830.22	216.13
830.53	216.08
830.85	216.05
831.17	216.00
831.48	215.99
831.80	216.01
832.11	216.00
832.43	215.96
832.75	215.93
833.06	216.05
833.38	216.00
833.69	215.98
834.01	215.97
834.32	215.95
834.64	215.90
834.96	215.89
835.27	215.90
835.59	215.84
835.90	215.78
836.22	215.80
836.53	215.75
836.85	215.67
837.16	215.87
837.48	215.88
837.79	215.91
838.11	215.91
838.42	215.92
838.74	215.96
839.05	215.95
839.37	215.95
839.68	215.85
840.00	215.85
840.31	215.90
840.63	215.90
840.94	215.90
841.26	215.86
841.57	215.86
841.88	215.89
842.20	215.87
842.51	215.87
842.83	215.84
843.14	216.05
843.46	216.07
843.77	215.91
844.08	215.87
844.40	215.81
844.71	215.80
845.03	215.79
845.34	215.75
845.65	215.75
845.97	215.75
846.28	215.75
846.60	215.74
846.91	215.73
847.22	215.69
847.54	215.74
847.85	215.77
848.16	215.74
848.48	215.67
848.79	215.73
849.10	215.78
849.42	215.79
849.73	215.58
850.04	215.57
850.36	215.50
850.67	215.55
850.98	215.55
851.30	215.54
851.61	215.47
851.92	215.44
852.23	215.49
852.55	215.49
852.86	215.48
853.17	215.49
853.49	215.50
853.80	215.54
854.11	215.54
854.42	215.54
854.74	215.50
855.05	215.49
855.36	215.41
855.67	215.40
855.99	215.38
856.30	215.62
856.61	215.61
856.92	215.60
857.23	215.56
857.55	215.54
857.86	215.57
858.17	215.62
858.48	215.60
858.79	215.56
859.11	215.56
859.42	215.52
859.73	215.47
860.04	215.46
860.35	215.39
860.66	215.31
860.98	215.29
861.29	215.35
861.60	215.34
861.91	215.37
862.22	215.34
862.53	215.31
862.84	215.04
863.16	215.10
863.47	215.09
863.78	215.08
864.09	215.08
864.40	215.03
864.71	215.03
865.02	215.07
865.33	215.04
865.64	215.01
865.95	215.06
866.27	215.21
866.58	215.18
866.89	215.24
867.20	215.21
867.51	215.22
867.82	215.18
868.13	215.23
868.44	215.17
868.75	215.22
869.06	215.25
869.37	215.31
869.68	215.24
869.99	215.28
870.30	215.34
870.61	215.35
870.92	215.34
871.23	215.33
871.54	215.36
871.85	215.40
872.16	215.42
872.47	215.36
872.78	215.26
873.09	215.25
873.40	215.19
873.71	215.26
874.02	215.26
874.33	215.25
874.64	215.21
874.95	215.27
875.26	215.22
875.56	215.19
875.87	215.16
876.18	215.13
876.49	215.31
876.80	215.28
877.11	215.22
877.42	215.24
877.73	215.23
878.04	215.19
878.35	215.22
878.66	215.24
878.96	215.27
879.27	215.26
879.58	215.26
879.89	215.27
880.20	215.31
880.51	215.29
880.82	215.32
881.12	215.29
881.43	215.24
881.74	215.18
882.05	215.14
882.36	215.17
882.67	215.21
882.97	215.01
883.28	214.98
883.59	215.04
883.90	215.07
884.21	215.10
884.51	215.08
884.82	215.03
885.13	215.01
885.44	215.01
885.74	214.98
886.05	214.98
886.36	214.98
886.67	214.92
886.98	215.07
887.28	215.08
887.59	215.09
887.90	215.11
888.20	215.13
888.51	215.22
888.82	215.19
889.13	215.18
889.43	215.35
889.74	215.33
890.05	215.31
890.35	215.27
890.66	215.25
890.97	215.24
891.28	215.20
891.58	215.21
891.89	215.19
892.20	215.19
892.50	215.17
892.81	215.17
893.12	215.16
893.42	215.01
893.73	214.99
894.04	215.00
894.34	214.99
894.65	215.02
894.95	214.98
895.26	214.98
895.57	215.09
895.87	214.88
896.18	214.93
896.48	214.92
896.79	214.91
897.10	214.92
897.40	214.90
897.71	214.96
898.01	214.91
898.32	214.96
898.63	214.93
898.93	214.94
899.24	214.95
899.54	214.92
899.85	214.91
900.15	214.90
900.46	214.88
900.76	214.89
901.07	214.84
901.38	214.85
901.68	214.85
901.99	214.72
902.29	214.78
902.60	214.75
902.90	214.75
903.21	214.77
903.51	214.74
903.82	214.79
904.12	214.79
904.43	214.82
904.73	214.77
905.03	214.78
905.34	214.99
905.64	214.95
905.95	214.97
906.25	214.99
906.56	215.00
906.86	214.99
907.17	214.97
907.47	215.01
907.77	214.98
908.08	214.95
908.38	214.97
908.69	214.96
908.99	215.02
909.30	215.03
909.60	215.02
909.90	215.05
910.21	215.00
910.51	214.97
910.81	214.96
911.12	214.97
911.42	214.99
911.73	214.76
912.03	214.80
912.33	214.86
912.64	214.87
912.94	214.81
913.24	214.81
913.55	214.80
913.85	214.76
914.15	214.80
914.46	214.80
914.76	214.76
915.06	214.72
915.37	214.66
915.67	214.64
915.97	214.64
916.27	214.58
916.58	214.60
916.88	214.58
917.18	214.57
917.49	214.71
917.79	214.70
918.09	214.75
918.39	214.78
918.70	214.76
919.00	214.75
919.30	214.89
919.60	214.88
919.91	214.88
920.21	214.92
920.51	214.88
920.81	214.90
921.12	214.94
921.42	214.93
921.72	214.93
922.02	214.97
922.32	214.96
922.63	215.00
922.93	215.09
923.23	215.14
923.53	215.11
923.83	214.99
924.13	215.03
924.44	215.00
924.74	215.04
925.04	215.04
925.34	215.01
925.64	214.90
925.94	214.89
926.24	215.01
926.55	215.00
926.85	215.04
927.15	215.03
927.45	215.03
927.75	215.04
928.05	215.05
928.35	215.00
928.65	215.06
928.95	215.06
929.26	214.96
929.56	214.94
929.86	214.96
930.16	214.92
930.46	214.90
930.76	214.91
931.06	214.80
931.36	214.77
931.66	214.81
931.96	214.86
932.26	214.89
932.56	214.78
932.86	214.80
933.16	214.77
933.46	214.76
933.76	214.72
934.06	214.79
934.36	214.86
934.66	214.87
934.96	214.83
935.26	214.84
935.56	214.89
935.86	214.87
936.16	214.87
936.46	214.86
936.76	214.90
937.06	214.87
937.36	214.90
937.66	214.88
937.96	214.86
938.26	214.83
938.56	214.80
938.86	214.84
939.16	214.88
939.46	214.92
939.76	214.93
940.06	214.93
940.35	214.86
940.65	214.76
940.95	214.77
941.25	214.75
941.55	214.73
941.85	214.72
942.15	214.75
942.45	214.80
942.75	214.81
943.04	214.76
943.34	214.80
943.64	214.77
943.94	214.78
944.24	214.79
944.54	214.78
944.84	214.79
945.13	214.76
945.43	214.69
945.73	214.64
946.03	214.62
946.33	214.63
946.62	214.61
946.92	214.59
947.22	214.61
947.52	214.61
947.82	214.63
948.11	214.58
948.41	214.52
948.71	214.48
949.01	214.49
949.31	214.49
949.60	214.47
949.90	214.50
950.20	214.48
950.50	214.48
950.79	214.46
951.09	214.53
951.39	214.52
951.69	214.48
951.98	214.53
952.28	214.53
952.58	214.51
952.87	214.52
953.17	214.57
953.47	214.53
953.76	214.53
954.06	214.50
954.36	214.50
954.66	214.50
954.95	214.53
955.25	214.52
955.55	214.53
955.84	214.49
956.14	214.52
956.44	214.51
956.73	214.48
957.03	214.49
957.32	214.45
957.62	214.42
957.92	214.47
958.21	214.43
958.51	214.70
958.81	214.72
959.10	214.75
959.40	214.77
959.69	214.80
959.99	214.79
960.29	214.76
960.58	214.77
960.88	214.86
961.17	214.82
961.47	214.88
961.76	214.87
962.06	214.89
962.36	214.86
962.65	214.89
962.95	214.92
963.24	214.92
963.54	214.92
963.83	214.96
964.13	214.97
964.42	214.96
964.72	214.80
965.01	214.79
965.31	214.77
965.60	214.68
965.90	214.79
966.19	214.76
966.49	214.80
966.78	214.79
967.08	214.77
967.37	214.79
967.67	214.75
967.96	214.79
968.26	214.78
968.55	214.81
968.85	214.81
969.14	214.80
969.43	214.79
969.73	214.77
970.02	214.73
970.32	214.70
970.61	214.68
970.91	214.59
971.20	214.60
971.49	214.59
971.79	214.65
972.08	214.52
972.38	214.55
972.67	214.53
972.96	214.55
973.26	214.50
973.55	214.58
973.85	214.57
974.14	214.54
974.43	214.55
974.73	214.51
975.02	214.49
975.31	214.49
975.61	214.49
975.90	214.48
976.19	214.48
976.49	214.53
976.78	214.53
977.07	214.52
977.37	214.50
977.66	214.51
977.95	214.49
978.24	214.52
978.54	214.58
978.83	214.55
979.12	214.57
979.42	214.57
979.71	214.52
980.00	214.53
980.29	214.53
980.59	214.53
980.88	214.59
981.17	214.56
981.46	214.54
981.76	214.54
982.05	214.58
982.34	214.60
982.63	214.58
982.93	214.58
983.22	214.68
983.51	214.70
983.80	214.75
984.09	214.77
984.39	214.72
984.68	214.66
984.97	214.68
985.26	214.63
985.55	214.66
985.85	214.61
986.14	214.65
986.43	214.66
986.72	214.65
987.01	214.56
987.30	214.57
987.59	214.59
987.89	214.64
988.18	214.57
988.47	214.55
988.76	214.53
989.05	214.51
989.34	214.44
989.63	214.47
989.92	214.42
990.22	214.41
990.51	214.42
990.80	214.44
991.09	214.44
991.38	214.48
991.67	214.46
991.96	214.46
992.25	214.43
992.54	214.41
992.83	214.42
993.12	214.43
993.41	214.49
993.70	214.57
993.99	214.61
994.28	214.66
994.58	214.71
994.87	214.69
995.16	214.72
995.45	214.72
995.74	214.68
996.03	214.70
996.32	214.72
996.61	214.76
996.90	214.73
997.19	214.72
997.48	214.71
997.77	214.71
998.06	214.68
998.34	214.67
998.63	214.65
998.92	214.63
999.21	214.66
999.50	214.65
999.79	214.54
1000.08	214.46
1000.37	214.44
1000.66	214.41
1000.95	214.46
1001.24	214.43
1001.53	214.48
1001.82	214.47
1002.11	214.45
1002.40	214.47
1002.68	214.51
1002.97	214.65
1003.26	214.66
1003.55	214.62
1003.84	214.63
1004.13	214.74
1004.42	214.71
1004.71	214.71
1004.99	214.71
1005.28	214.74
1005.57	214.71
1005.86	214.69
1006.15	214.68
1006.44	214.64
1006.72	214.65
1007.01	214.65
1007.30	214.69
1007.59	214.63
1007.88	214.61
1008.17	214.61
1008.45	214.56
1008.74	214.49
1009.03	214.40
1009.32	214.37
1009.60	214.40
1009.89	214.37
1010.18	214.28
1010.47	214.28
1010.76	214.28
1011.04	214.30
1011.33	214.32
1011.62	214.36
1011.91	214.42
1012.19	214.44
1012.48	214.44
1012.77	214.42
1013.05	214.50
1013.34	214.49
1013.63	214.51
1013.92	214.52
1014.20	214.52
1014.49	214.52
1014.78	214.55
1015.06	214.51
1015.35	214.51
1015.64	214.52
1015.92	214.57
1016.21	214.56
1016.50	214.58
1016.78	214.59
1017.07	214.58
1017.36	214.52
1017.64	214.49
1017.93	214.44
1018.22	214.42
1018.50	214.45
1018.79	214.46
1019.08	214.37
1019.36	214.34
1019.65	214.32
1019.93	214.38
1020.22	214.39
1020.51	214.51
1020.79	214.48
1021.08	214.26
1021.36	214.36
1021.65	214.28
1021.94	214.33
1022.22	214.25
1022.51	214.23
1022.79	215.23
1023.08	214.47
1023.36	216.94
1023.65	214.32
>>>>>End Processed Spectral Data<<<<<
