SpectraSuite Data File
++++++++++++++++++++++++++++++++++++
Date: Tue Jan 29 16:14:37 EST 2013
User: group
Dark Spectrum Present: No
Reference Spectrum Present: No
Number of Sampled Component Spectra: 1
Spectrometers: USB2E7196
Integration Time (usec): 65000 (USB2E7196)
Spectra Averaged: 100 (USB2E7196)
Boxcar Smoothing: 10 (USB2E7196)
Correct for Electrical Dark: No (USB2E7196)
Strobe/Lamp Enabled: No (USB2E7196)
Correct for Detector Non-linearity: No (USB2E7196)
Correct for Stray Light: No (USB2E7196)
Number of Pixels in Processed Spectrum: 2048
>>>>>Begin Processed Spectral Data<<<<<
339.09	0.00
339.48	202.99
339.86	203.84
340.24	205.49
340.63	206.34
341.01	211.20
341.39	208.93
341.78	211.63
342.16	212.05
342.54	212.36
342.93	201.69
343.31	211.84
343.69	212.36
344.07	212.79
344.46	213.22
344.84	213.61
345.22	213.78
345.60	214.06
345.99	214.22
346.37	214.36
346.75	214.48
347.13	214.55
347.52	214.59
347.90	214.71
348.28	214.75
348.66	214.83
349.05	214.78
349.43	214.83
349.81	214.87
350.19	214.93
350.57	214.98
350.96	215.06
351.34	215.21
351.72	215.31
352.10	215.43
352.48	215.49
352.87	215.56
353.25	215.62
353.63	215.71
354.01	215.74
354.39	215.84
354.77	215.91
355.15	216.06
355.54	216.11
355.92	216.11
356.30	216.19
356.68	216.39
357.06	216.48
357.44	216.52
357.82	216.57
358.20	216.64
358.58	216.73
358.97	216.83
359.35	216.94
359.73	217.05
360.11	217.14
360.49	217.22
360.87	217.28
361.25	217.35
361.63	217.45
362.01	217.57
362.39	217.60
362.77	217.66
363.15	217.69
363.53	217.80
363.91	217.86
364.29	217.89
364.67	217.74
365.05	217.77
365.43	217.83
365.81	217.88
366.19	217.99
366.57	218.07
366.95	218.07
367.33	218.02
367.71	218.01
368.09	218.07
368.47	218.06
368.85	218.10
369.23	218.12
369.61	218.06
369.99	218.08
370.37	218.07
370.75	218.17
371.13	218.10
371.51	217.99
371.89	217.99
372.27	218.00
372.65	218.01
373.03	217.98
373.41	217.93
373.78	217.88
374.16	217.75
374.54	217.66
374.92	217.63
375.30	217.58
375.68	217.51
376.06	217.46
376.44	217.41
376.82	217.39
377.19	217.34
377.57	217.29
377.95	217.21
378.33	217.18
378.71	217.02
379.09	217.02
379.47	217.02
379.84	216.95
380.22	216.86
380.60	216.81
380.98	216.74
381.36	216.70
381.73	216.65
382.11	216.64
382.49	216.61
382.87	216.55
383.25	216.53
383.62	216.73
384.00	216.62
384.38	216.60
384.76	216.57
385.13	216.62
385.51	216.57
385.89	216.51
386.27	216.46
386.64	216.43
387.02	216.35
387.40	216.31
387.78	216.28
388.15	216.25
388.53	216.19
388.91	216.18
389.29	216.17
389.66	216.16
390.04	216.11
390.42	216.12
390.79	216.11
391.17	216.10
391.55	215.84
391.92	215.86
392.30	215.88
392.68	215.85
393.05	215.80
393.43	215.81
393.81	215.80
394.18	215.79
394.56	215.78
394.94	215.85
395.31	215.83
395.69	215.91
396.06	215.96
396.44	215.99
396.82	215.99
397.19	216.10
397.57	216.12
397.95	216.18
398.32	216.12
398.70	216.18
399.07	216.21
399.45	216.26
399.82	216.27
400.20	216.25
400.58	216.31
400.95	216.30
401.33	216.41
401.70	216.62
402.08	216.72
402.45	216.83
402.83	216.95
403.20	217.09
403.58	217.15
403.95	217.30
404.33	217.46
404.71	217.60
405.08	217.82
405.46	217.95
405.83	218.15
406.21	218.36
406.58	218.55
406.96	218.79
407.33	219.04
407.70	219.35
408.08	219.83
408.45	220.15
408.83	220.52
409.20	220.85
409.58	221.14
409.95	221.59
410.33	222.04
410.70	222.46
411.08	222.97
411.45	223.54
411.82	224.08
412.20	224.73
412.57	225.53
412.95	226.07
413.32	226.90
413.69	227.68
414.07	228.52
414.44	229.50
414.82	230.49
415.19	231.62
415.56	232.76
415.94	233.89
416.31	235.26
416.68	236.63
417.06	238.20
417.43	239.67
417.81	241.33
418.18	243.03
418.55	244.91
418.93	246.91
419.30	248.94
419.67	251.10
420.04	253.29
420.42	255.59
420.79	258.32
421.16	261.01
421.54	263.83
421.91	266.78
422.28	269.76
422.66	272.91
423.03	276.04
423.40	279.29
423.77	282.79
424.15	286.28
424.52	289.95
424.89	293.95
425.26	297.89
425.64	301.68
426.01	305.82
426.38	310.13
426.75	314.52
427.13	319.10
427.50	323.86
427.87	328.89
428.24	333.94
428.61	338.75
428.99	344.09
429.36	349.88
429.73	355.58
430.10	361.28
430.47	367.14
430.85	373.23
431.22	379.68
431.59	386.53
431.96	393.14
432.33	400.45
432.70	407.47
433.08	415.66
433.45	423.41
433.82	431.16
434.19	439.74
434.56	448.12
434.93	456.13
435.30	464.22
435.68	473.07
436.05	481.75
436.42	490.34
436.79	498.15
437.16	506.66
437.53	515.61
437.90	524.43
438.27	533.09
438.64	541.99
439.01	550.27
439.38	557.60
439.75	564.70
440.13	572.79
440.50	580.47
440.87	586.73
441.24	593.09
441.61	600.22
441.98	605.41
442.35	611.45
442.72	617.55
443.09	623.33
443.46	626.91
443.83	629.25
444.20	631.36
444.57	634.41
444.94	635.80
445.31	637.11
445.68	638.42
446.05	639.03
446.42	638.26
446.79	637.28
447.16	636.21
447.53	635.43
447.90	632.23
448.27	629.01
448.64	624.48
449.01	621.36
449.37	615.63
449.74	610.13
450.11	603.48
450.48	596.34
450.85	589.19
451.22	582.91
451.59	577.02
451.96	571.37
452.33	563.81
452.70	556.94
453.07	548.75
453.43	540.47
453.80	532.41
454.17	524.75
454.54	517.49
454.91	509.70
455.28	502.03
455.65	494.86
456.02	487.68
456.38	481.66
456.75	474.08
457.12	467.80
457.49	461.52
457.86	455.64
458.23	450.52
458.59	444.77
458.96	439.01
459.33	433.92
459.70	428.81
460.07	424.70
460.43	420.02
460.80	415.69
461.17	411.84
461.54	407.85
461.91	403.94
462.27	400.03
462.64	396.63
463.01	393.00
463.38	389.40
463.74	385.82
464.11	382.64
464.48	379.85
464.85	376.79
465.21	374.50
465.58	371.92
465.95	368.90
466.32	366.38
466.68	363.84
467.05	361.38
467.42	358.94
467.78	356.37
468.15	353.92
468.52	352.06
468.88	349.67
469.25	347.54
469.62	345.85
469.98	343.95
470.35	342.21
470.72	340.57
471.08	338.85
471.45	337.43
471.82	335.97
472.18	334.42
472.55	333.34
472.92	332.00
473.28	330.88
473.65	329.79
474.02	328.70
474.38	327.91
474.75	327.21
475.11	326.43
475.48	325.87
475.85	325.38
476.21	324.91
476.58	324.58
476.94	324.37
477.31	324.07
477.67	323.87
478.04	323.77
478.41	323.76
478.77	323.97
479.14	323.96
479.50	324.09
479.87	324.37
480.23	324.64
480.60	324.92
480.96	325.18
481.33	325.77
481.69	326.40
482.06	326.94
482.42	327.41
482.79	328.01
483.15	328.81
483.52	329.82
483.88	330.77
484.25	331.74
484.61	332.82
484.98	333.87
485.34	335.18
485.71	336.59
486.07	338.02
486.44	339.35
486.80	340.93
487.17	342.69
487.53	344.51
487.90	346.41
488.26	348.39
488.62	350.55
488.99	352.55
489.35	354.69
489.72	357.05
490.08	359.58
490.44	362.13
490.81	364.83
491.17	367.50
491.54	370.39
491.90	373.38
492.26	376.59
492.63	379.98
492.99	383.43
493.36	387.09
493.72	390.96
494.08	394.95
494.45	399.18
494.81	403.48
495.17	407.92
495.54	412.60
495.90	417.43
496.26	422.32
496.63	427.51
496.99	432.83
497.35	438.37
497.72	444.11
498.08	449.97
498.44	456.00
498.80	462.40
499.17	468.92
499.53	475.62
499.89	482.46
500.26	489.37
500.62	496.46
500.98	503.79
501.34	511.15
501.71	518.89
502.07	526.59
502.43	534.53
502.79	542.62
503.16	550.92
503.52	559.42
503.88	568.03
504.24	576.94
504.60	585.99
504.97	595.16
505.33	604.39
505.69	614.23
506.05	624.08
506.41	633.85
506.78	643.84
507.14	653.95
507.50	664.33
507.86	674.99
508.22	685.61
508.59	696.13
508.95	707.19
509.31	718.31
509.67	729.72
510.03	741.03
510.39	752.69
510.75	764.51
511.12	776.37
511.48	788.44
511.84	800.59
512.20	812.76
512.56	825.28
512.92	837.96
513.28	850.43
513.64	863.07
514.00	875.72
514.37	888.48
514.73	901.48
515.09	914.24
515.45	926.95
515.81	939.83
516.17	953.10
516.53	966.14
516.89	979.09
517.25	991.99
517.61	1005.41
517.97	1018.60
518.33	1031.39
518.69	1044.77
519.05	1058.24
519.41	1071.64
519.77	1085.38
520.13	1098.48
520.49	1111.37
520.85	1124.51
521.21	1137.69
521.57	1151.05
521.93	1163.98
522.29	1177.53
522.65	1191.05
523.01	1204.38
523.37	1217.37
523.73	1230.44
524.09	1243.30
524.45	1256.42
524.81	1269.72
525.17	1282.68
525.53	1295.42
525.89	1308.57
526.25	1321.36
526.61	1333.96
526.97	1346.87
527.33	1359.35
527.68	1372.58
528.04	1385.74
528.40	1398.56
528.76	1411.50
529.12	1424.18
529.48	1437.16
529.84	1449.13
530.20	1461.54
530.56	1473.93
530.91	1486.80
531.27	1499.27
531.63	1511.87
531.99	1524.34
532.35	1536.29
532.71	1548.43
533.07	1561.16
533.42	1573.01
533.78	1584.71
534.14	1596.38
534.50	1607.19
534.86	1618.58
535.21	1629.17
535.57	1640.33
535.93	1651.48
536.29	1662.32
536.65	1673.43
537.00	1684.02
537.36	1695.00
537.72	1705.67
538.08	1716.70
538.44	1727.41
538.79	1738.18
539.15	1748.61
539.51	1758.91
539.87	1769.89
540.22	1780.35
540.58	1790.94
540.94	1801.54
541.29	1811.50
541.65	1821.00
542.01	1831.37
542.37	1841.23
542.72	1850.98
543.08	1860.63
543.44	1870.68
543.79	1879.64
544.15	1888.85
544.51	1898.56
544.87	1908.01
545.22	1916.86
545.58	1925.48
545.94	1933.98
546.29	1942.19
546.65	1950.34
547.01	1958.52
547.36	1965.96
547.72	1973.40
548.07	1980.67
548.43	1988.19
548.79	1995.94
549.14	2003.82
549.50	2011.88
549.86	2019.23
550.21	2026.36
550.57	2033.74
550.92	2040.27
551.28	2047.57
551.64	2054.71
551.99	2062.14
552.35	2069.31
552.70	2075.96
553.06	2082.45
553.41	2088.57
553.77	2094.83
554.13	2100.86
554.48	2107.69
554.84	2114.62
555.19	2121.00
555.55	2127.48
555.90	2133.59
556.26	2140.17
556.61	2146.11
556.97	2150.89
557.32	2156.74
557.68	2163.04
558.03	2168.66
558.39	2173.88
558.74	2179.65
559.10	2185.00
559.45	2190.29
559.81	2195.69
560.16	2201.25
560.52	2207.18
560.87	2213.45
561.23	2219.56
561.58	2226.25
561.94	2231.31
562.29	2236.05
562.64	2242.24
563.00	2247.69
563.35	2253.23
563.71	2259.09
564.06	2264.63
564.42	2270.45
564.77	2275.65
565.12	2280.99
565.48	2286.15
565.83	2291.64
566.19	2297.14
566.54	2302.62
566.89	2307.27
567.25	2311.67
567.60	2317.30
567.96	2322.40
568.31	2327.22
568.66	2331.35
569.02	2335.24
569.37	2339.03
569.72	2343.47
570.08	2347.02
570.43	2350.11
570.78	2353.37
571.14	2355.82
571.49	2359.07
571.84	2362.63
572.20	2365.49
572.55	2368.62
572.90	2370.88
573.26	2373.97
573.61	2376.56
573.96	2378.69
574.31	2380.74
574.67	2382.83
575.02	2383.94
575.37	2385.38
575.72	2386.10
576.08	2387.69
576.43	2388.08
576.78	2388.89
577.13	2390.67
577.49	2391.79
577.84	2393.19
578.19	2394.73
578.54	2395.50
578.90	2396.53
579.25	2396.56
579.60	2396.76
579.95	2396.05
580.30	2396.42
580.66	2395.72
581.01	2394.25
581.36	2392.04
581.71	2390.86
582.06	2390.06
582.42	2389.31
582.77	2387.37
583.12	2385.99
583.47	2385.00
583.82	2384.65
584.17	2383.50
584.53	2381.47
584.88	2379.60
585.23	2377.71
585.58	2375.60
585.93	2373.69
586.28	2371.64
586.63	2369.54
586.98	2367.56
587.34	2365.88
587.69	2363.73
588.04	2361.91
588.39	2360.54
588.74	2358.41
589.09	2356.03
589.44	2353.02
589.79	2350.54
590.14	2348.77
590.49	2346.19
590.84	2342.40
591.19	2339.38
591.54	2336.21
591.89	2332.29
592.25	2329.32
592.60	2325.38
592.95	2321.32
593.30	2317.32
593.65	2313.11
594.00	2308.78
594.35	2305.76
594.70	2301.23
595.05	2296.57
595.40	2291.33
595.75	2285.92
596.10	2282.39
596.45	2277.55
596.80	2273.12
597.15	2268.11
597.50	2262.28
597.85	2257.26
598.19	2252.11
598.54	2246.43
598.89	2241.46
599.24	2237.17
599.59	2231.14
599.94	2225.55
600.29	2219.85
600.64	2214.07
600.99	2207.53
601.34	2202.39
601.69	2195.46
602.04	2189.18
602.39	2182.85
602.74	2176.77
603.08	2171.23
603.43	2164.78
603.78	2158.11
604.13	2151.02
604.48	2143.87
604.83	2137.86
605.18	2131.76
605.53	2124.93
605.87	2118.00
606.22	2111.26
606.57	2103.35
606.92	2095.50
607.27	2088.69
607.62	2081.94
607.96	2074.90
608.31	2068.38
608.66	2060.42
609.01	2052.92
609.36	2045.83
609.70	2038.09
610.05	2030.38
610.40	2022.24
610.75	2014.09
611.10	2006.41
611.44	1997.80
611.79	1989.20
612.14	1979.24
612.49	1968.83
612.83	1959.74
613.18	1950.80
613.53	1941.56
613.88	1932.02
614.22	1923.42
614.57	1913.50
614.92	1903.09
615.27	1893.02
615.61	1883.07
615.96	1873.44
616.31	1863.87
616.65	1854.66
617.00	1844.90
617.35	1835.42
617.70	1825.69
618.04	1815.64
618.39	1805.41
618.74	1795.79
619.08	1786.14
619.43	1777.55
619.78	1769.29
620.12	1760.65
620.47	1750.74
620.82	1740.47
621.16	1730.78
621.51	1720.94
621.85	1711.13
622.20	1700.69
622.55	1690.24
622.89	1680.27
623.24	1670.71
623.59	1660.98
623.93	1650.83
624.28	1641.26
624.62	1631.04
624.97	1620.77
625.32	1611.10
625.66	1602.34
626.01	1593.65
626.35	1584.34
626.70	1574.18
627.04	1564.07
627.39	1553.91
627.73	1544.64
628.08	1535.68
628.43	1526.11
628.77	1516.85
629.12	1508.05
629.46	1500.30
629.81	1491.87
630.15	1482.37
630.50	1472.52
630.84	1462.19
631.19	1452.33
631.53	1442.95
631.88	1433.03
632.22	1423.01
632.57	1413.54
632.91	1403.41
633.26	1393.46
633.60	1383.93
633.95	1374.72
634.29	1365.34
634.64	1356.03
634.98	1346.25
635.32	1336.91
635.67	1328.40
636.01	1319.27
636.36	1309.48
636.70	1299.95
637.05	1290.70
637.39	1281.81
637.73	1273.23
638.08	1265.73
638.42	1257.41
638.77	1248.63
639.11	1240.28
639.45	1232.58
639.80	1224.04
640.14	1215.53
640.49	1206.71
640.83	1197.93
641.17	1189.85
641.52	1181.71
641.86	1173.12
642.20	1165.34
642.55	1156.85
642.89	1148.06
643.23	1139.38
643.58	1131.42
643.92	1122.44
644.26	1113.86
644.61	1105.45
644.95	1096.73
645.29	1087.54
645.64	1078.61
645.98	1070.29
646.32	1062.45
646.66	1054.04
647.01	1045.78
647.35	1037.64
647.69	1029.32
648.04	1021.01
648.38	1012.19
648.72	1003.44
649.06	995.11
649.41	986.96
649.75	978.97
650.09	971.10
650.43	963.05
650.78	954.81
651.12	947.26
651.46	939.84
651.80	932.61
652.14	925.43
652.49	917.87
652.83	910.51
653.17	902.83
653.51	895.23
653.85	887.95
654.20	880.85
654.54	873.35
654.88	866.21
655.22	859.15
655.56	852.23
655.90	845.49
656.25	838.85
656.59	831.98
656.93	825.02
657.27	817.98
657.61	811.18
657.95	805.09
658.29	799.25
658.64	793.27
658.98	786.95
659.32	780.42
659.66	774.28
660.00	767.97
660.34	762.00
660.68	756.02
661.02	749.74
661.36	743.86
661.70	738.16
662.05	732.65
662.39	727.28
662.73	721.94
663.07	716.67
663.41	711.22
663.75	705.63
664.09	700.15
664.43	694.86
664.77	689.54
665.11	683.80
665.45	677.92
665.79	672.17
666.13	666.51
666.47	661.13
666.81	655.82
667.15	650.60
667.49	645.44
667.83	640.21
668.17	635.11
668.51	630.08
668.85	625.27
669.19	620.42
669.53	615.46
669.87	610.46
670.21	605.77
670.55	601.08
670.89	596.71
671.23	592.42
671.57	588.12
671.91	583.97
672.25	579.92
672.58	575.85
672.92	571.83
673.26	568.00
673.60	564.18
673.94	560.33
674.28	556.79
674.62	553.11
674.96	549.48
675.30	546.00
675.64	542.38
675.97	538.75
676.31	535.15
676.65	531.60
676.99	528.20
677.33	524.42
677.67	520.84
678.01	517.03
678.34	513.44
678.68	509.97
679.02	506.35
679.36	502.63
679.70	499.07
680.04	495.61
680.37	492.19
680.71	488.93
681.05	485.87
681.39	482.65
681.73	479.58
682.06	476.56
682.40	473.46
682.74	470.32
683.08	467.22
683.42	464.15
683.75	461.29
684.09	458.37
684.43	455.58
684.77	452.73
685.10	449.96
685.44	447.13
685.78	444.20
686.12	441.52
686.45	438.93
686.79	436.29
687.13	433.80
687.46	431.24
687.80	428.66
688.14	425.81
688.48	423.32
688.81	420.67
689.15	418.16
689.49	415.69
689.82	413.22
690.16	410.71
690.50	408.30
690.83	405.79
691.17	403.25
691.51	400.89
691.84	398.72
692.18	396.54
692.52	394.37
692.85	392.30
693.19	390.20
693.52	388.03
693.86	385.91
694.20	383.74
694.53	381.66
694.87	379.50
695.21	377.46
695.54	375.26
695.88	373.12
696.21	370.97
696.55	368.89
696.88	366.87
697.22	364.92
697.56	363.08
697.89	361.24
698.23	359.50
698.56	357.73
698.90	356.00
699.23	354.15
699.57	352.35
699.90	350.55
700.24	348.81
700.58	347.14
700.91	345.51
701.25	343.97
701.58	342.46
701.92	340.93
702.25	339.35
702.59	337.80
702.92	336.32
703.26	334.83
703.59	333.42
703.93	332.21
704.26	330.82
704.60	329.31
704.93	327.86
705.26	326.43
705.60	324.99
705.93	323.45
706.27	322.14
706.60	320.90
706.94	319.70
707.27	318.33
707.61	317.03
707.94	315.72
708.27	314.25
708.61	312.79
708.94	311.42
709.28	310.21
709.61	308.98
709.94	307.84
710.28	306.69
710.61	305.49
710.95	304.08
711.28	303.08
711.61	301.93
711.95	300.86
712.28	299.68
712.61	298.53
712.95	297.55
713.28	296.54
713.61	295.39
713.95	294.26
714.28	293.26
714.61	292.21
714.95	291.18
715.28	290.19
715.61	289.21
715.95	288.32
716.28	287.39
716.61	286.45
716.95	285.45
717.28	284.50
717.61	283.56
717.94	282.70
718.28	281.67
718.61	280.84
718.94	279.91
719.27	279.09
719.61	278.32
719.94	277.50
720.27	276.53
720.60	275.74
720.94	274.94
721.27	274.21
721.60	273.58
721.93	272.91
722.27	272.32
722.60	271.67
722.93	270.94
723.26	270.31
723.59	269.65
723.93	269.05
724.26	268.45
724.59	267.81
724.92	267.26
725.25	266.72
725.59	266.11
725.92	265.64
726.25	265.06
726.58	264.48
726.91	263.87
727.24	263.35
727.57	262.82
727.91	262.25
728.24	261.71
728.57	261.08
728.90	260.52
729.23	259.92
729.56	259.51
729.89	258.99
730.22	258.40
730.55	257.90
730.89	257.38
731.22	256.82
731.55	256.33
731.88	255.79
732.21	255.29
732.54	254.82
732.87	254.32
733.20	253.87
733.53	253.42
733.86	252.97
734.19	252.54
734.52	252.13
734.85	251.88
735.18	251.42
735.51	251.11
735.84	250.71
736.17	250.31
736.50	249.74
736.83	249.60
737.16	249.27
737.49	248.88
737.82	248.50
738.15	248.16
738.48	247.84
738.81	247.47
739.14	247.04
739.47	246.65
739.80	246.27
740.13	245.97
740.46	245.57
740.79	245.20
741.12	244.84
741.45	244.47
741.78	244.04
742.11	243.78
742.44	243.40
742.77	243.11
743.10	242.77
743.43	242.49
743.75	241.92
744.08	241.88
744.41	241.53
744.74	241.19
745.07	240.85
745.40	240.54
745.73	240.33
746.06	240.02
746.39	239.74
746.71	239.41
747.04	239.05
747.37	238.75
747.70	238.48
748.03	238.19
748.36	237.94
748.68	237.60
749.01	237.28
749.34	236.96
749.67	236.64
750.00	236.41
750.33	236.26
750.65	236.00
750.98	235.44
751.31	235.20
751.64	234.99
751.97	234.87
752.29	234.61
752.62	234.20
752.95	233.97
753.28	233.72
753.60	233.51
753.93	233.35
754.26	233.15
754.59	232.86
754.91	232.60
755.24	232.34
755.57	232.14
755.90	231.92
756.22	231.71
756.55	231.48
756.88	231.20
757.20	230.90
757.53	230.64
757.86	230.44
758.19	230.24
758.51	230.03
758.84	229.75
759.17	229.58
759.49	229.43
759.82	229.37
760.15	229.22
760.47	229.01
760.80	228.75
761.13	228.61
761.45	228.44
761.78	228.30
762.11	228.17
762.43	227.98
762.76	227.80
763.08	227.68
763.41	227.53
763.74	227.41
764.06	227.26
764.39	227.14
764.71	226.97
765.04	226.81
765.37	226.66
765.69	226.49
766.02	226.31
766.34	226.16
766.67	225.93
767.00	225.83
767.32	225.82
767.65	225.85
767.97	225.69
768.30	225.59
768.62	225.46
768.95	225.30
769.27	225.17
769.60	225.07
769.92	224.91
770.25	224.76
770.57	224.60
770.90	224.48
771.22	224.35
771.55	224.28
771.87	224.20
772.20	224.06
772.52	224.15
772.85	224.29
773.17	224.21
773.50	224.09
773.82	223.93
774.15	223.72
774.47	223.49
774.80	223.40
775.12	223.29
775.45	223.22
775.77	223.14
776.09	223.07
776.42	222.97
776.74	222.98
777.07	222.88
777.39	222.79
777.72	222.68
778.04	222.64
778.36	222.54
778.69	222.47
779.01	222.37
779.33	222.12
779.66	221.83
779.98	221.74
780.31	221.66
780.63	221.67
780.95	221.63
781.28	221.53
781.60	221.43
781.92	221.37
782.25	221.29
782.57	221.22
782.89	221.15
783.22	221.09
783.54	220.94
783.86	220.89
784.19	220.85
784.51	220.87
784.83	220.76
785.16	220.69
785.48	220.62
785.80	220.61
786.12	220.53
786.45	220.48
786.77	220.44
787.09	220.38
787.42	220.22
787.74	220.18
788.06	220.15
788.38	220.11
788.71	220.04
789.03	219.97
789.35	219.96
789.67	219.92
789.99	219.84
790.32	219.76
790.64	219.74
790.96	219.84
791.28	219.69
791.61	219.63
791.93	219.57
792.25	219.50
792.57	219.60
792.89	219.52
793.21	219.44
793.54	219.38
793.86	219.31
794.18	219.33
794.50	219.27
794.82	219.23
795.14	219.21
795.47	219.24
795.79	219.21
796.11	219.11
796.43	219.04
796.75	219.02
797.07	219.03
797.39	218.94
797.71	218.73
798.04	218.71
798.36	218.70
798.68	218.69
799.00	218.66
799.32	218.51
799.64	218.54
799.96	218.52
800.28	218.50
800.60	218.48
800.92	218.45
801.24	218.39
801.56	218.37
801.89	218.29
802.21	218.27
802.53	218.23
802.85	218.25
803.17	218.34
803.49	218.27
803.81	218.18
804.13	218.18
804.45	218.17
804.77	218.17
805.09	218.15
805.41	218.10
805.73	218.05
806.05	217.97
806.37	217.94
806.69	217.89
807.01	217.87
807.33	217.88
807.65	217.77
807.97	217.84
808.28	217.79
808.60	217.79
808.92	217.69
809.24	217.78
809.56	217.69
809.88	217.53
810.20	217.50
810.52	217.56
810.84	217.51
811.16	217.45
811.48	217.39
811.80	217.45
812.12	217.40
812.43	217.44
812.75	217.42
813.07	217.38
813.39	217.37
813.71	217.32
814.03	217.23
814.35	217.24
814.67	217.12
814.98	217.08
815.30	217.07
815.62	217.04
815.94	216.89
816.26	216.86
816.58	216.84
816.89	216.87
817.21	216.79
817.53	216.78
817.85	216.79
818.17	216.77
818.48	216.66
818.80	216.70
819.12	216.64
819.44	216.62
819.76	216.56
820.07	216.55
820.39	216.51
820.71	216.55
821.03	216.50
821.34	216.51
821.66	216.52
821.98	216.50
822.30	216.48
822.61	216.56
822.93	216.54
823.25	216.53
823.57	216.46
823.88	216.47
824.20	216.48
824.52	216.50
824.83	216.49
825.15	216.47
825.47	216.43
825.79	216.43
826.10	216.39
826.42	216.39
826.74	216.43
827.05	216.45
827.37	216.43
827.69	216.43
828.00	216.40
828.32	216.38
828.64	216.34
828.95	216.45
829.27	216.39
829.58	216.42
829.90	216.43
830.22	216.45
830.53	216.42
830.85	216.37
831.17	216.31
831.48	216.28
831.80	216.28
832.11	216.28
832.43	216.24
832.75	216.23
833.06	216.35
833.38	216.22
833.69	216.20
834.01	216.17
834.32	216.17
834.64	216.11
834.96	216.10
835.27	216.11
835.59	216.00
835.90	215.93
836.22	215.91
836.53	215.87
836.85	215.84
837.16	216.02
837.48	216.03
837.79	216.10
838.11	216.13
838.42	216.11
838.74	216.11
839.05	216.07
839.37	216.01
839.68	215.88
840.00	215.89
840.31	215.93
840.63	215.92
840.94	215.88
841.26	215.89
841.57	215.89
841.88	215.91
842.20	215.93
842.51	215.92
842.83	215.92
843.14	216.10
843.46	216.09
843.77	215.98
844.08	215.96
844.40	215.89
844.71	215.84
845.03	215.81
845.34	215.78
845.65	215.76
845.97	215.78
846.28	215.76
846.60	215.78
846.91	215.72
847.22	215.73
847.54	215.81
847.85	215.81
848.16	215.78
848.48	215.71
848.79	215.74
849.10	215.75
849.42	215.73
849.73	215.54
850.04	215.56
850.36	215.48
850.67	215.51
850.98	215.50
851.30	215.51
851.61	215.50
851.92	215.51
852.23	215.58
852.55	215.62
852.86	215.63
853.17	215.61
853.49	215.62
853.80	215.63
854.11	215.60
854.42	215.62
854.74	215.59
855.05	215.59
855.36	215.49
855.67	215.48
855.99	215.49
856.30	215.75
856.61	215.71
856.92	215.69
857.23	215.69
857.55	215.66
857.86	215.65
858.17	215.68
858.48	215.67
858.79	215.64
859.11	215.64
859.42	215.61
859.73	215.62
860.04	215.63
860.35	215.60
860.66	215.54
860.98	215.50
861.29	215.52
861.60	215.53
861.91	215.55
862.22	215.51
862.53	215.48
862.84	215.20
863.16	215.27
863.47	215.27
863.78	215.25
864.09	215.26
864.40	215.29
864.71	215.27
865.02	215.23
865.33	215.22
865.64	215.18
865.95	215.18
866.27	215.32
866.58	215.31
866.89	215.30
867.20	215.33
867.51	215.32
867.82	215.31
868.13	215.36
868.44	215.33
868.75	215.41
869.06	215.40
869.37	215.40
869.68	215.29
869.99	215.31
870.30	215.31
870.61	215.34
870.92	215.27
871.23	215.23
871.54	215.28
871.85	215.31
872.16	215.36
872.47	215.34
872.78	215.18
873.09	215.18
873.40	215.17
873.71	215.18
874.02	215.18
874.33	215.17
874.64	215.13
874.95	215.15
875.26	215.09
875.56	215.08
875.87	215.10
876.18	215.13
876.49	215.32
876.80	215.30
877.11	215.26
877.42	215.30
877.73	215.32
878.04	215.29
878.35	215.26
878.66	215.21
878.96	215.20
879.27	215.23
879.58	215.20
879.89	215.16
880.20	215.21
880.51	215.24
880.82	215.21
881.12	215.23
881.43	215.21
881.74	215.20
882.05	215.21
882.36	215.18
882.67	215.19
882.97	214.99
883.28	214.99
883.59	214.99
883.90	215.00
884.21	215.03
884.51	215.01
884.82	215.01
885.13	215.01
885.44	215.03
885.74	215.04
886.05	215.03
886.36	215.03
886.67	214.96
886.98	215.04
887.28	215.07
887.59	215.05
887.90	215.03
888.20	214.98
888.51	215.00
888.82	215.00
889.13	215.01
889.43	215.14
889.74	215.11
890.05	215.09
890.35	215.06
890.66	215.01
890.97	215.01
891.28	214.98
891.58	215.00
891.89	215.00
892.20	214.96
892.50	214.93
892.81	214.92
893.12	214.89
893.42	214.82
893.73	214.84
894.04	214.85
894.34	214.88
894.65	214.90
894.95	214.90
895.26	214.91
895.57	214.97
895.87	214.77
896.18	214.82
896.48	214.82
896.79	214.83
897.10	214.88
897.40	214.88
897.71	214.93
898.01	214.92
898.32	214.95
898.63	214.92
898.93	214.96
899.24	214.97
899.54	214.97
899.85	214.96
900.15	214.95
900.46	214.91
900.76	214.91
901.07	214.95
901.38	214.94
901.68	214.95
901.99	214.87
902.29	214.88
902.60	214.83
902.90	214.82
903.21	214.82
903.51	214.77
903.82	214.81
904.12	214.79
904.43	214.76
904.73	214.74
905.03	214.76
905.34	214.95
905.64	214.90
905.95	214.93
906.25	214.89
906.56	214.85
906.86	214.87
907.17	214.87
907.47	214.87
907.77	214.84
908.08	214.80
908.38	214.83
908.69	214.88
908.99	214.95
909.30	214.96
909.60	214.95
909.90	214.98
910.21	214.91
910.51	214.88
910.81	214.90
911.12	214.91
911.42	214.94
911.73	214.71
912.03	214.78
912.33	214.80
912.64	214.80
912.94	214.82
913.24	214.76
913.55	214.75
913.85	214.72
914.15	214.76
914.46	214.82
914.76	214.77
915.06	214.76
915.37	214.73
915.67	214.74
915.97	214.74
916.27	214.70
916.58	214.77
916.88	214.77
917.18	214.78
917.49	214.93
917.79	214.87
918.09	214.94
918.39	214.99
918.70	214.95
919.00	214.95
919.30	215.03
919.60	215.05
919.91	215.04
920.21	215.05
920.51	215.03
920.81	214.97
921.12	215.03
921.42	215.01
921.72	215.00
922.02	214.98
922.32	214.99
922.63	215.00
922.93	215.06
923.23	215.06
923.53	215.02
923.83	214.87
924.13	214.88
924.44	214.85
924.74	214.89
925.04	214.96
925.34	214.98
925.64	214.93
925.94	214.94
926.24	215.02
926.55	215.02
926.85	215.03
927.15	215.07
927.45	215.06
927.75	215.07
928.05	215.09
928.35	215.12
928.65	215.16
928.95	215.19
929.26	215.13
929.56	215.16
929.86	215.19
930.16	215.19
930.46	215.21
930.76	215.23
931.06	215.10
931.36	215.05
931.66	215.08
931.96	215.08
932.26	215.09
932.56	215.02
932.86	215.04
933.16	215.01
933.46	214.99
933.76	214.96
934.06	214.99
934.36	215.06
934.66	215.01
934.96	215.01
935.26	215.03
935.56	215.05
935.86	215.02
936.16	215.00
936.46	214.97
936.76	214.94
937.06	214.91
937.36	214.94
937.66	214.98
937.96	214.98
938.26	214.93
938.56	214.90
938.86	214.92
939.16	214.95
939.46	215.00
939.76	215.03
940.06	215.02
940.35	214.99
940.65	214.87
940.95	214.90
941.25	214.83
941.55	214.78
941.85	214.76
942.15	214.80
942.45	214.86
942.75	214.88
943.04	214.87
943.34	214.93
943.64	214.92
943.94	214.86
944.24	214.85
944.54	214.86
944.84	214.88
945.13	214.85
945.43	214.82
945.73	214.79
946.03	214.75
946.33	214.71
946.62	214.67
946.92	214.68
947.22	214.66
947.52	214.68
947.82	214.71
948.11	214.70
948.41	214.65
948.71	214.58
949.01	214.62
949.31	214.61
949.60	214.55
949.90	214.59
950.20	214.58
950.50	214.59
950.79	214.57
951.09	214.60
951.39	214.63
951.69	214.60
951.98	214.65
952.28	214.64
952.58	214.66
952.87	214.68
953.17	214.70
953.47	214.73
953.76	214.71
954.06	214.65
954.36	214.60
954.66	214.59
954.95	214.64
955.25	214.62
955.55	214.67
955.84	214.65
956.14	214.64
956.44	214.64
956.73	214.60
957.03	214.61
957.32	214.56
957.62	214.53
957.92	214.58
958.21	214.55
958.51	214.80
958.81	214.82
959.10	214.85
959.40	214.93
959.69	214.91
959.99	214.96
960.29	215.01
960.58	215.00
960.88	215.11
961.17	215.06
961.47	215.06
961.76	215.01
962.06	215.05
962.36	215.05
962.65	215.07
962.95	215.07
963.24	215.07
963.54	215.11
963.83	215.15
964.13	215.10
964.42	215.05
964.72	214.86
965.01	214.86
965.31	214.85
965.60	214.78
965.90	214.94
966.19	214.90
966.49	214.92
966.78	214.95
967.08	214.90
967.37	214.93
967.67	214.91
967.96	214.97
968.26	214.98
968.55	214.96
968.85	214.99
969.14	215.00
969.43	215.00
969.73	214.97
970.02	214.95
970.32	214.94
970.61	214.94
970.91	214.89
971.20	214.86
971.49	214.82
971.79	214.82
972.08	214.64
972.38	214.65
972.67	214.63
972.96	214.66
973.26	214.61
973.55	214.69
973.85	214.67
974.14	214.64
974.43	214.64
974.73	214.61
975.02	214.56
975.31	214.60
975.61	214.61
975.90	214.62
976.19	214.59
976.49	214.62
976.78	214.62
977.07	214.62
977.37	214.64
977.66	214.66
977.95	214.65
978.24	214.71
978.54	214.74
978.83	214.73
979.12	214.70
979.42	214.69
979.71	214.64
980.00	214.65
980.29	214.67
980.59	214.62
980.88	214.71
981.17	214.70
981.46	214.67
981.76	214.66
982.05	214.73
982.34	214.79
982.63	214.80
982.93	214.80
983.22	214.89
983.51	214.88
983.80	214.93
984.09	214.97
984.39	214.90
984.68	214.90
984.97	214.89
985.26	214.86
985.55	214.89
985.85	214.86
986.14	214.89
986.43	214.87
986.72	214.87
987.01	214.76
987.30	214.74
987.59	214.74
987.89	214.74
988.18	214.66
988.47	214.60
988.76	214.58
989.05	214.58
989.34	214.55
989.63	214.62
989.92	214.59
990.22	214.56
990.51	214.55
990.80	214.53
991.09	214.57
991.38	214.59
991.67	214.57
991.96	214.53
992.25	214.53
992.54	214.53
992.83	214.53
993.12	214.58
993.41	214.67
993.70	214.73
993.99	214.76
994.28	214.81
994.58	214.86
994.87	214.82
995.16	214.82
995.45	214.78
995.74	214.69
996.03	214.70
996.32	214.73
996.61	214.79
996.90	214.78
997.19	214.74
997.48	214.77
997.77	214.77
998.06	214.81
998.34	214.79
998.63	214.81
998.92	214.81
999.21	214.83
999.50	214.78
999.79	214.73
1000.08	214.73
1000.37	214.72
1000.66	214.67
1000.95	214.75
1001.24	214.79
1001.53	214.80
1001.82	214.81
1002.11	214.74
1002.40	214.78
1002.68	214.83
1002.97	214.98
1003.26	214.96
1003.55	214.90
1003.84	214.93
1004.13	215.01
1004.42	215.01
1004.71	214.97
1004.99	214.97
1005.28	214.99
1005.57	214.97
1005.86	214.94
1006.15	214.89
1006.44	214.87
1006.72	214.92
1007.01	214.86
1007.30	214.84
1007.59	214.83
1007.88	214.85
1008.17	214.88
1008.45	214.79
1008.74	214.70
1009.03	214.57
1009.32	214.59
1009.60	214.59
1009.89	214.54
1010.18	214.44
1010.47	214.42
1010.76	214.44
1011.04	214.45
1011.33	214.49
1011.62	214.51
1011.91	214.52
1012.19	214.53
1012.48	214.54
1012.77	214.55
1013.05	214.67
1013.34	214.67
1013.63	214.65
1013.92	214.67
1014.20	214.66
1014.49	214.71
1014.78	214.73
1015.06	214.68
1015.35	214.69
1015.64	214.71
1015.92	214.75
1016.21	214.77
1016.50	214.78
1016.78	214.78
1017.07	214.78
1017.36	214.71
1017.64	214.64
1017.93	214.64
1018.22	214.64
1018.50	214.62
1018.79	214.60
1019.08	214.47
1019.36	214.49
1019.65	214.45
1019.93	214.49
1020.22	214.52
1020.51	214.62
1020.79	214.60
1021.08	214.28
1021.36	214.20
1021.65	214.65
1021.94	214.49
1022.22	214.85
1022.51	213.62
1022.79	215.75
1023.08	214.92
1023.36	217.07
1023.65	214.23
>>>>>End Processed Spectral Data<<<<<
