SpectraSuite Data File
++++++++++++++++++++++++++++++++++++
Date: Tue Jan 29 16:21:26 EST 2013
User: group
Dark Spectrum Present: No
Reference Spectrum Present: No
Number of Sampled Component Spectra: 1
Spectrometers: USB2E7196
Integration Time (usec): 65000 (USB2E7196)
Spectra Averaged: 100 (USB2E7196)
Boxcar Smoothing: 10 (USB2E7196)
Correct for Electrical Dark: No (USB2E7196)
Strobe/Lamp Enabled: No (USB2E7196)
Correct for Detector Non-linearity: No (USB2E7196)
Correct for Stray Light: No (USB2E7196)
Number of Pixels in Processed Spectrum: 2048
>>>>>Begin Processed Spectral Data<<<<<
339.09	0.00
339.48	202.39
339.86	204.29
340.24	205.71
340.63	206.53
341.01	211.05
341.39	209.22
341.78	211.09
342.16	212.98
342.54	212.75
342.93	201.79
343.31	212.01
343.69	212.55
344.07	213.00
344.46	213.45
344.84	213.88
345.22	214.07
345.60	214.37
345.99	214.59
346.37	214.71
346.75	214.82
347.13	214.89
347.52	214.95
347.90	215.07
348.28	215.11
348.66	215.17
349.05	215.15
349.43	215.23
349.81	215.31
350.19	215.36
350.57	215.43
350.96	215.54
351.34	215.61
351.72	215.73
352.10	215.86
352.48	215.87
352.87	215.91
353.25	215.94
353.63	215.98
354.01	216.00
354.39	216.07
354.77	216.14
355.15	216.27
355.54	216.35
355.92	216.36
356.30	216.45
356.68	216.67
357.06	216.75
357.44	216.79
357.82	216.88
358.20	216.96
358.58	216.99
358.97	217.03
359.35	217.12
359.73	217.24
360.11	217.27
360.49	217.34
360.87	217.40
361.25	217.51
361.63	217.60
362.01	217.68
362.39	217.72
362.77	217.77
363.15	217.79
363.53	217.80
363.91	217.83
364.29	217.83
364.67	217.63
365.05	217.65
365.43	217.69
365.81	217.70
366.19	217.79
366.57	217.92
366.95	217.91
367.33	217.86
367.71	217.83
368.09	217.87
368.47	217.88
368.85	217.82
369.23	217.83
369.61	217.76
369.99	217.76
370.37	217.74
370.75	217.81
371.13	217.72
371.51	217.68
371.89	217.69
372.27	217.65
372.65	217.67
373.03	217.64
373.41	217.57
373.78	217.52
374.16	217.36
374.54	217.26
374.92	217.21
375.30	217.18
375.68	217.10
376.06	217.06
376.44	217.00
376.82	217.03
377.19	216.97
377.57	216.93
377.95	216.86
378.33	216.81
378.71	216.66
379.09	216.69
379.47	216.68
379.84	216.57
380.22	216.52
380.60	216.44
380.98	216.41
381.36	216.35
381.73	216.29
382.11	216.31
382.49	216.26
382.87	216.17
383.25	216.12
383.62	216.34
384.00	216.26
384.38	216.25
384.76	216.22
385.13	216.28
385.51	216.25
385.89	216.19
386.27	216.15
386.64	216.14
387.02	216.07
387.40	216.00
387.78	216.05
388.15	216.06
388.53	216.00
388.91	215.95
389.29	215.92
389.66	215.94
390.04	215.87
390.42	215.85
390.79	215.86
391.17	215.86
391.55	215.56
391.92	215.55
392.30	215.57
392.68	215.54
393.05	215.50
393.43	215.50
393.81	215.53
394.18	215.53
394.56	215.52
394.94	215.56
395.31	215.58
395.69	215.59
396.06	215.62
396.44	215.66
396.82	215.69
397.19	215.82
397.57	215.79
397.95	215.87
398.32	215.86
398.70	215.92
399.07	216.02
399.45	216.09
399.82	216.13
400.20	216.13
400.58	216.15
400.95	216.12
401.33	216.21
401.70	216.40
402.08	216.50
402.45	216.62
402.83	216.74
403.20	216.86
403.58	216.95
403.95	217.10
404.33	217.26
404.71	217.40
405.08	217.64
405.46	217.84
405.83	218.00
406.21	218.23
406.58	218.47
406.96	218.67
407.33	218.94
407.70	219.23
408.08	219.74
408.45	220.09
408.83	220.50
409.20	220.87
409.58	221.10
409.95	221.55
410.33	222.03
410.70	222.47
411.08	223.00
411.45	223.55
411.82	224.11
412.20	224.78
412.57	225.62
412.95	226.17
413.32	226.99
413.69	227.82
414.07	228.75
414.44	229.72
414.82	230.71
415.19	231.91
415.56	233.11
415.94	234.29
416.31	235.70
416.68	237.08
417.06	238.67
417.43	240.23
417.81	241.91
418.18	243.68
418.55	245.56
418.93	247.56
419.30	249.66
419.67	251.89
420.04	254.16
420.42	256.53
420.79	259.34
421.16	262.12
421.54	265.00
421.91	267.85
422.28	270.91
422.66	274.17
423.03	277.33
423.40	280.65
423.77	284.19
424.15	287.82
424.52	291.65
424.89	295.81
425.26	299.88
425.64	303.71
426.01	307.98
426.38	312.43
426.75	316.95
427.13	321.64
427.50	326.60
427.87	331.73
428.24	336.83
428.61	341.75
428.99	347.17
429.36	353.13
429.73	359.02
430.10	364.84
430.47	370.87
430.85	377.15
431.22	383.78
431.59	390.78
431.96	397.54
432.33	404.92
432.70	412.05
433.08	420.46
433.45	428.51
433.82	436.39
434.19	445.16
434.56	453.78
434.93	462.02
435.30	470.19
435.68	479.23
436.05	488.14
436.42	496.93
436.79	505.00
437.16	513.67
437.53	522.81
437.90	531.88
438.27	540.67
438.64	549.74
439.01	558.23
439.38	565.69
439.75	572.90
440.13	581.18
440.50	589.04
440.87	595.29
441.24	601.83
441.61	609.07
441.98	614.33
442.35	620.60
442.72	626.80
443.09	632.73
443.46	636.42
443.83	638.97
444.20	641.14
444.57	644.25
444.94	645.67
445.31	647.14
445.68	648.49
446.05	649.18
446.42	648.42
446.79	647.42
447.16	646.40
447.53	645.61
447.90	642.37
448.27	639.10
448.64	634.59
449.01	631.27
449.37	625.43
449.74	619.85
450.11	612.98
450.48	605.67
450.85	598.29
451.22	591.89
451.59	585.75
451.96	580.03
452.33	572.28
452.70	565.22
453.07	556.81
453.43	548.28
453.80	540.04
454.17	532.16
454.54	524.68
454.91	516.56
455.28	508.71
455.65	501.36
456.02	493.96
456.38	487.73
456.75	479.96
457.12	473.54
457.49	467.11
457.86	461.03
458.23	455.73
458.59	449.90
458.96	443.97
459.33	438.70
459.70	433.34
460.07	429.13
460.43	424.35
460.80	419.81
461.17	415.87
461.54	411.71
461.91	407.71
462.27	403.67
462.64	400.30
463.01	396.52
463.38	392.90
463.74	389.28
464.11	386.10
464.48	383.30
464.85	380.16
465.21	377.78
465.58	375.15
465.95	372.08
466.32	369.54
466.68	366.98
467.05	364.44
467.42	361.89
467.78	359.22
468.15	356.69
468.52	354.84
468.88	352.38
469.25	350.21
469.62	348.45
469.98	346.51
470.35	344.77
470.72	343.12
471.08	341.33
471.45	339.77
471.82	338.25
472.18	336.62
472.55	335.47
472.92	334.09
473.28	332.91
473.65	331.80
474.02	330.63
474.38	329.73
474.75	329.00
475.11	328.26
475.48	327.71
475.85	327.22
476.21	326.74
476.58	326.40
476.94	326.21
477.31	325.99
477.67	325.77
478.04	325.56
478.41	325.51
478.77	325.69
479.14	325.66
479.50	325.79
479.87	326.07
480.23	326.36
480.60	326.62
480.96	326.90
481.33	327.43
481.69	328.03
482.06	328.54
482.42	329.03
482.79	329.66
483.15	330.43
483.52	331.43
483.88	332.32
484.25	333.25
484.61	334.26
484.98	335.22
485.34	336.51
485.71	337.95
486.07	339.39
486.44	340.68
486.80	342.30
487.17	344.02
487.53	345.84
487.90	347.77
488.26	349.83
488.62	352.02
488.99	354.10
489.35	356.28
489.72	358.69
490.08	361.20
490.44	363.77
490.81	366.50
491.17	369.21
491.54	372.17
491.90	375.23
492.26	378.47
492.63	381.94
492.99	385.43
493.36	389.11
493.72	393.05
494.08	397.13
494.45	401.36
494.81	405.68
495.17	410.16
495.54	414.85
495.90	419.65
496.26	424.60
496.63	429.86
496.99	435.28
497.35	440.90
497.72	446.70
498.08	452.63
498.44	458.74
498.80	465.23
499.17	471.79
499.53	478.55
499.89	485.45
500.26	492.43
500.62	499.55
500.98	506.95
501.34	514.40
501.71	522.21
502.07	530.08
502.43	538.14
502.79	546.33
503.16	554.76
503.52	563.42
503.88	572.17
504.24	581.20
504.60	590.35
504.97	599.64
505.33	608.98
505.69	618.93
506.05	628.90
506.41	638.80
506.78	648.95
507.14	659.29
507.50	669.85
507.86	680.55
508.22	691.43
508.59	702.22
508.95	713.38
509.31	724.71
509.67	736.29
510.03	747.86
510.39	759.66
510.75	771.62
511.12	783.68
511.48	795.90
511.84	808.20
512.20	820.56
512.56	833.35
512.92	846.32
513.28	859.07
513.64	871.87
514.00	884.73
514.37	897.77
514.73	910.96
515.09	924.00
515.45	936.99
515.81	950.09
516.17	963.47
516.53	976.76
516.89	989.86
517.25	1003.08
517.61	1016.61
517.97	1030.11
518.33	1043.33
518.69	1056.94
519.05	1070.71
519.41	1084.41
519.77	1098.44
520.13	1111.76
520.49	1124.89
520.85	1138.21
521.21	1151.62
521.57	1165.37
521.93	1178.50
522.29	1192.29
522.65	1205.99
523.01	1219.70
523.37	1232.93
523.73	1246.26
524.09	1259.55
524.45	1273.08
524.81	1286.59
525.17	1299.99
525.53	1313.21
525.89	1326.59
526.25	1339.75
526.61	1352.72
526.97	1365.88
527.33	1378.72
527.68	1392.24
528.04	1405.89
528.40	1419.04
528.76	1432.52
529.12	1445.49
529.48	1458.84
529.84	1471.09
530.20	1483.92
530.56	1496.64
530.91	1509.98
531.27	1522.93
531.63	1535.70
531.99	1548.49
532.35	1560.78
532.71	1573.23
533.07	1586.16
533.42	1598.30
533.78	1610.52
534.14	1622.56
534.50	1633.83
534.86	1645.60
535.21	1656.52
535.57	1668.01
535.93	1679.53
536.29	1690.55
536.65	1701.98
537.00	1712.93
537.36	1724.36
537.72	1735.41
538.08	1746.78
538.44	1757.78
538.79	1768.88
539.15	1779.79
539.51	1790.51
539.87	1801.87
540.22	1812.70
540.58	1823.58
540.94	1834.64
541.29	1844.90
541.65	1854.67
542.01	1865.15
542.37	1875.08
542.72	1885.20
543.08	1894.96
543.44	1905.38
543.79	1914.83
544.15	1924.28
544.51	1934.39
544.87	1944.28
545.22	1953.44
545.58	1962.18
545.94	1971.06
546.29	1979.64
546.65	1988.05
547.01	1996.42
547.36	2004.15
547.72	2012.03
548.07	2019.67
548.43	2027.29
548.79	2035.01
549.14	2043.14
549.50	2051.69
549.86	2059.60
550.21	2067.04
550.57	2074.84
550.92	2081.53
551.28	2088.97
551.64	2096.36
551.99	2103.88
552.35	2111.06
552.70	2117.90
553.06	2124.79
553.41	2131.06
553.77	2137.56
554.13	2143.94
554.48	2150.87
554.84	2157.85
555.19	2164.38
555.55	2170.89
555.90	2177.30
556.26	2184.25
556.61	2190.41
556.97	2195.26
557.32	2201.12
557.68	2207.59
558.03	2213.35
558.39	2218.80
558.74	2224.72
559.10	2230.24
559.45	2235.83
559.81	2241.42
560.16	2247.05
560.52	2252.94
560.87	2259.51
561.23	2265.57
561.58	2272.30
561.94	2277.73
562.29	2282.59
562.64	2288.69
563.00	2294.39
563.35	2299.94
563.71	2305.78
564.06	2311.47
564.42	2317.59
564.77	2322.78
565.12	2328.14
565.48	2333.30
565.83	2338.89
566.19	2344.48
566.54	2350.09
566.89	2354.69
567.25	2359.42
567.60	2365.33
567.96	2370.57
568.31	2375.18
568.66	2379.53
569.02	2383.54
569.37	2387.33
569.72	2391.87
570.08	2395.48
570.43	2398.68
570.78	2401.99
571.14	2404.53
571.49	2407.75
571.84	2411.29
572.20	2414.22
572.55	2417.30
572.90	2419.78
573.26	2422.68
573.61	2425.32
573.96	2427.44
574.31	2429.59
574.67	2431.48
575.02	2432.18
575.37	2433.69
575.72	2434.34
576.08	2435.86
576.43	2436.14
576.78	2436.73
577.13	2438.43
577.49	2439.69
577.84	2440.92
578.19	2442.29
578.54	2443.08
578.90	2443.94
579.25	2444.01
579.60	2444.12
579.95	2443.48
580.30	2443.65
580.66	2443.20
581.01	2441.56
581.36	2439.41
581.71	2438.08
582.06	2437.04
582.42	2436.35
582.77	2434.18
583.12	2432.82
583.47	2431.60
583.82	2431.01
584.17	2429.86
584.53	2427.80
584.88	2425.90
585.23	2424.05
585.58	2421.84
585.93	2419.77
586.28	2417.75
586.63	2415.29
586.98	2413.26
587.34	2411.35
587.69	2409.03
588.04	2406.91
588.39	2405.70
588.74	2403.23
589.09	2400.63
589.44	2397.55
589.79	2395.06
590.14	2393.36
590.49	2390.54
590.84	2386.68
591.19	2383.62
591.54	2380.37
591.89	2376.39
592.25	2373.10
592.60	2368.83
592.95	2364.76
593.30	2360.57
593.65	2356.12
594.00	2351.76
594.35	2348.66
594.70	2344.11
595.05	2339.56
595.40	2334.20
595.75	2328.35
596.10	2324.77
596.45	2320.00
596.80	2315.62
597.15	2310.60
597.50	2304.46
597.85	2299.56
598.19	2294.44
598.54	2288.69
598.89	2283.53
599.24	2279.04
599.59	2272.82
599.94	2267.05
600.29	2261.01
600.64	2255.19
600.99	2248.42
601.34	2242.88
601.69	2235.93
602.04	2229.59
602.39	2222.83
602.74	2216.70
603.08	2211.15
603.43	2204.65
603.78	2197.86
604.13	2190.73
604.48	2183.47
604.83	2177.43
605.18	2171.09
605.53	2164.17
605.87	2157.14
606.22	2150.30
606.57	2142.27
606.92	2134.23
607.27	2127.35
607.62	2120.76
607.96	2113.79
608.31	2107.39
608.66	2099.67
609.01	2092.06
609.36	2084.80
609.70	2077.14
610.05	2069.43
610.40	2061.07
610.75	2052.66
611.10	2044.73
611.44	2035.77
611.79	2026.92
612.14	2016.90
612.49	2006.23
612.83	1996.73
613.18	1987.49
613.53	1978.14
613.88	1968.50
614.22	1959.98
614.57	1950.01
614.92	1939.42
615.27	1929.10
615.61	1918.92
615.96	1909.10
616.31	1899.34
616.65	1889.88
617.00	1880.03
617.35	1870.25
617.70	1860.43
618.04	1850.26
618.39	1840.05
618.74	1830.25
619.08	1820.58
619.43	1811.74
619.78	1803.52
620.12	1794.92
620.47	1785.12
620.82	1774.58
621.16	1764.75
621.51	1754.71
621.85	1744.70
622.20	1734.24
622.55	1723.53
622.89	1713.47
623.24	1703.65
623.59	1693.78
623.93	1683.63
624.28	1673.82
624.62	1663.56
624.97	1653.17
625.32	1643.29
625.66	1634.30
626.01	1625.42
626.35	1615.87
626.70	1605.75
627.04	1595.45
627.39	1585.19
627.73	1575.89
628.08	1566.92
628.43	1557.22
628.77	1547.78
629.12	1538.84
629.46	1530.98
629.81	1522.65
630.15	1512.91
630.50	1503.05
630.84	1492.48
631.19	1482.34
631.53	1472.90
631.88	1462.64
632.22	1452.50
632.57	1442.97
632.91	1432.77
633.26	1422.78
633.60	1413.03
633.95	1403.64
634.29	1394.18
634.64	1384.77
634.98	1374.59
635.32	1365.07
635.67	1356.48
636.01	1347.24
636.36	1337.34
636.70	1327.53
637.05	1318.02
637.39	1309.10
637.73	1300.37
638.08	1292.73
638.42	1284.43
638.77	1275.47
639.11	1266.98
639.45	1259.11
639.80	1250.48
640.14	1241.56
640.49	1232.60
640.83	1223.73
641.17	1215.44
641.52	1207.17
641.86	1198.43
642.20	1190.51
642.55	1181.84
642.89	1172.85
643.23	1163.97
643.58	1155.82
643.92	1146.77
644.26	1137.89
644.61	1129.32
644.95	1120.40
645.29	1110.99
645.64	1101.66
645.98	1093.07
646.32	1085.13
646.66	1076.47
647.01	1068.04
647.35	1059.90
647.69	1051.44
648.04	1042.95
648.38	1033.93
648.72	1025.02
649.06	1016.45
649.41	1008.10
649.75	1000.01
650.09	992.00
650.43	983.95
650.78	975.50
651.12	967.68
651.46	960.24
651.80	952.81
652.14	945.42
652.49	937.87
652.83	930.48
653.17	922.70
653.51	914.93
653.85	907.54
654.20	900.18
654.54	892.53
654.88	885.21
655.22	877.98
655.56	870.85
655.90	863.90
656.25	857.13
656.59	850.20
656.93	843.15
657.27	835.88
657.61	828.75
657.95	822.55
658.29	816.54
658.64	810.24
658.98	803.71
659.32	797.10
659.66	790.74
660.00	784.31
660.34	778.18
660.68	772.03
661.02	765.68
661.36	759.72
661.70	753.90
662.05	748.25
662.39	742.71
662.73	737.32
663.07	731.88
663.41	726.23
663.75	720.45
664.09	714.69
664.43	709.26
664.77	703.87
665.11	698.01
665.45	691.96
665.79	686.15
666.13	680.39
666.47	674.75
666.81	669.22
667.15	663.79
667.49	658.49
667.83	653.22
668.17	647.95
668.51	642.68
668.85	637.71
669.19	632.72
669.53	627.61
669.87	622.40
670.21	617.64
670.55	612.80
670.89	608.27
671.23	603.91
671.57	599.54
671.91	595.23
672.25	591.04
672.58	586.93
672.92	582.83
673.26	578.92
673.60	575.03
673.94	571.20
674.28	567.55
674.62	563.81
674.96	559.93
675.30	556.38
675.64	552.73
675.97	549.08
676.31	545.49
676.65	541.90
676.99	538.43
677.33	534.46
677.67	530.85
678.01	526.98
678.34	523.33
678.68	519.78
679.02	516.09
679.36	512.31
679.70	508.63
680.04	505.03
680.37	501.51
680.71	498.16
681.05	494.92
681.39	491.66
681.73	488.50
682.06	485.47
682.40	482.34
682.74	479.10
683.08	475.85
683.42	472.60
683.75	469.55
684.09	466.51
684.43	463.68
684.77	460.76
685.10	457.86
685.44	454.88
685.78	451.90
686.12	449.13
686.45	446.43
686.79	443.76
687.13	441.17
687.46	438.53
687.80	435.82
688.14	432.95
688.48	430.27
688.81	427.49
689.15	424.92
689.49	422.28
689.82	419.74
690.16	417.12
690.50	414.62
690.83	412.12
691.17	409.53
691.51	407.04
691.84	404.69
692.18	402.48
692.52	400.30
692.85	398.14
693.19	395.99
693.52	393.77
693.86	391.53
694.20	389.37
694.53	387.22
694.87	385.05
695.21	382.93
695.54	380.78
695.88	378.65
696.21	376.37
696.55	374.23
696.88	372.18
697.22	370.20
697.56	368.29
697.89	366.40
698.23	364.64
698.56	362.83
698.90	361.05
699.23	359.08
699.57	357.18
699.90	355.31
700.24	353.49
700.58	351.71
700.91	350.05
701.25	348.47
701.58	346.85
701.92	345.20
702.25	343.57
702.59	341.89
702.92	340.34
703.26	338.82
703.59	337.36
703.93	336.02
704.26	334.57
704.60	333.07
704.93	331.59
705.26	330.09
705.60	328.63
705.93	327.11
706.27	325.82
706.60	324.57
706.94	323.28
707.27	321.85
707.61	320.53
707.94	319.16
708.27	317.61
708.61	316.14
708.94	314.78
709.28	313.49
709.61	312.22
709.94	310.98
710.28	309.74
710.61	308.53
710.95	307.13
711.28	306.09
711.61	304.91
711.95	303.71
712.28	302.51
712.61	301.35
712.95	300.27
713.28	299.22
713.61	298.05
713.95	296.91
714.28	295.93
714.61	294.90
714.95	293.86
715.28	292.86
715.61	291.84
715.95	290.90
716.28	289.92
716.61	288.99
716.95	287.97
717.28	287.06
717.61	286.07
717.94	285.17
718.28	284.10
718.61	283.17
718.94	282.30
719.27	281.45
719.61	280.61
719.94	279.76
720.27	278.78
720.60	277.90
720.94	277.12
721.27	276.34
721.60	275.64
721.93	274.93
722.27	274.23
722.60	273.57
722.93	272.90
723.26	272.21
723.59	271.53
723.93	270.90
724.26	270.25
724.59	269.61
724.92	269.01
725.25	268.47
725.59	267.89
725.92	267.33
726.25	266.74
726.58	266.15
726.91	265.58
727.24	265.03
727.57	264.49
727.91	263.86
728.24	263.31
728.57	262.70
728.90	262.14
729.23	261.54
729.56	261.13
729.89	260.53
730.22	259.98
730.55	259.39
730.89	258.86
731.22	258.34
731.55	257.80
731.88	257.26
732.21	256.68
732.54	256.16
732.87	255.67
733.20	255.20
733.53	254.76
733.86	254.24
734.19	253.74
734.52	253.29
734.85	252.98
735.18	252.51
735.51	252.14
735.84	251.68
736.17	251.32
736.50	250.75
736.83	250.58
737.16	250.23
737.49	249.87
737.82	249.45
738.15	249.08
738.48	248.75
738.81	248.37
739.14	247.97
739.47	247.60
739.80	247.22
740.13	246.87
740.46	246.43
740.79	246.07
741.12	245.69
741.45	245.31
741.78	244.88
742.11	244.62
742.44	244.22
742.77	243.94
743.10	243.56
743.43	243.22
743.75	242.62
744.08	242.50
744.41	242.12
744.74	241.76
745.07	241.38
745.40	241.04
745.73	240.81
746.06	240.54
746.39	240.21
746.71	239.89
747.04	239.54
747.37	239.23
747.70	238.99
748.03	238.72
748.36	238.48
748.68	238.17
749.01	237.76
749.34	237.50
749.67	237.21
750.00	236.98
750.33	236.83
750.65	236.61
750.98	236.13
751.31	235.90
751.64	235.74
751.97	235.64
752.29	235.35
752.62	235.04
752.95	234.76
753.28	234.54
753.60	234.28
753.93	234.08
754.26	233.84
754.59	233.53
754.91	233.27
755.24	233.02
755.57	232.77
755.90	232.56
756.22	232.33
756.55	232.07
756.88	231.80
757.20	231.50
757.53	231.27
757.86	231.03
758.19	230.85
758.51	230.61
758.84	230.28
759.17	230.11
759.49	229.91
759.82	229.83
760.15	229.62
760.47	229.43
760.80	229.21
761.13	229.09
761.45	228.92
761.78	228.74
762.11	228.57
762.43	228.41
762.76	228.25
763.08	228.08
763.41	227.94
763.74	227.81
764.06	227.65
764.39	227.47
764.71	227.31
765.04	227.14
765.37	226.99
765.69	226.84
766.02	226.67
766.34	226.50
766.67	226.25
767.00	226.16
767.32	226.14
767.65	226.12
767.97	225.95
768.30	225.83
768.62	225.72
768.95	225.59
769.27	225.44
769.60	225.35
769.92	225.17
770.25	224.98
770.57	224.81
770.90	224.69
771.22	224.56
771.55	224.44
771.87	224.32
772.20	224.21
772.52	224.28
772.85	224.41
773.17	224.30
773.50	224.22
773.82	224.10
774.15	223.90
774.47	223.66
774.80	223.56
775.12	223.44
775.45	223.36
775.77	223.25
776.09	223.15
776.42	223.02
776.74	223.00
777.07	222.93
777.39	222.91
777.72	222.76
778.04	222.72
778.36	222.65
778.69	222.61
779.01	222.51
779.33	222.28
779.66	221.96
779.98	221.87
780.31	221.80
780.63	221.77
780.95	221.73
781.28	221.67
781.60	221.58
781.92	221.53
782.25	221.46
782.57	221.39
782.89	221.34
783.22	221.29
783.54	221.21
783.86	221.18
784.19	221.04
784.51	221.08
784.83	220.97
785.16	220.89
785.48	220.79
785.80	220.74
786.12	220.66
786.45	220.60
786.77	220.56
787.09	220.48
787.42	220.36
787.74	220.30
788.06	220.25
788.38	220.18
788.71	220.08
789.03	220.01
789.35	220.01
789.67	219.96
789.99	219.92
790.32	219.84
790.64	219.79
790.96	219.90
791.28	219.74
791.61	219.70
791.93	219.67
792.25	219.63
792.57	219.75
792.89	219.67
793.21	219.67
793.54	219.63
793.86	219.56
794.18	219.51
794.50	219.43
794.82	219.40
795.14	219.39
795.47	219.43
795.79	219.40
796.11	219.30
796.43	219.22
796.75	219.19
797.07	219.14
797.39	219.10
797.71	218.94
798.04	218.96
798.36	218.94
798.68	218.91
799.00	218.88
799.32	218.72
799.64	218.73
799.96	218.67
800.28	218.65
800.60	218.63
800.92	218.63
801.24	218.63
801.56	218.62
801.89	218.57
802.21	218.51
802.53	218.42
802.85	218.45
803.17	218.54
803.49	218.48
803.81	218.44
804.13	218.41
804.45	218.37
804.77	218.33
805.09	218.31
805.41	218.27
805.73	218.22
806.05	218.10
806.37	218.05
806.69	218.03
807.01	218.00
807.33	217.99
807.65	217.91
807.97	217.94
808.28	217.89
808.60	217.84
808.92	217.79
809.24	217.94
809.56	217.85
809.88	217.72
810.20	217.68
810.52	217.70
810.84	217.64
811.16	217.58
811.48	217.51
811.80	217.54
812.12	217.50
812.43	217.48
812.75	217.50
813.07	217.44
813.39	217.43
813.71	217.36
814.03	217.31
814.35	217.29
814.67	217.18
814.98	217.11
815.30	217.07
815.62	216.99
815.94	216.82
816.26	216.78
816.58	216.75
816.89	216.76
817.21	216.70
817.53	216.69
817.85	216.69
818.17	216.70
818.48	216.59
818.80	216.59
819.12	216.57
819.44	216.52
819.76	216.52
820.07	216.48
820.39	216.45
820.71	216.44
821.03	216.42
821.34	216.38
821.66	216.41
821.98	216.46
822.30	216.46
822.61	216.53
822.93	216.54
823.25	216.50
823.57	216.46
823.88	216.47
824.20	216.46
824.52	216.49
824.83	216.46
825.15	216.43
825.47	216.42
825.79	216.40
826.10	216.36
826.42	216.32
826.74	216.33
827.05	216.31
827.37	216.32
827.69	216.30
828.00	216.31
828.32	216.27
828.64	216.24
828.95	216.34
829.27	216.29
829.58	216.30
829.90	216.35
830.22	216.34
830.53	216.26
830.85	216.23
831.17	216.16
831.48	216.13
831.80	216.10
832.11	216.09
832.43	216.04
832.75	216.05
833.06	216.18
833.38	216.12
833.69	216.12
834.01	216.11
834.32	216.06
834.64	216.01
834.96	216.01
835.27	216.00
835.59	215.91
835.90	215.86
836.22	215.83
836.53	215.78
836.85	215.78
837.16	215.97
837.48	215.95
837.79	216.00
838.11	216.03
838.42	216.05
838.74	216.07
839.05	216.07
839.37	216.05
839.68	215.89
840.00	215.89
840.31	215.90
840.63	215.87
840.94	215.87
841.26	215.87
841.57	215.86
841.88	215.87
842.20	215.82
842.51	215.80
842.83	215.78
843.14	215.95
843.46	215.94
843.77	215.84
844.08	215.85
844.40	215.81
844.71	215.77
845.03	215.75
845.34	215.69
845.65	215.69
845.97	215.69
846.28	215.70
846.60	215.74
846.91	215.70
847.22	215.69
847.54	215.72
847.85	215.74
848.16	215.73
848.48	215.67
848.79	215.78
849.10	215.79
849.42	215.82
849.73	215.61
850.04	215.60
850.36	215.51
850.67	215.57
850.98	215.55
851.30	215.61
851.61	215.61
851.92	215.65
852.23	215.66
852.55	215.68
852.86	215.68
853.17	215.64
853.49	215.68
853.80	215.72
854.11	215.72
854.42	215.75
854.74	215.75
855.05	215.77
855.36	215.68
855.67	215.68
855.99	215.66
856.30	215.92
856.61	215.92
856.92	215.91
857.23	215.83
857.55	215.84
857.86	215.76
858.17	215.76
858.48	215.75
858.79	215.74
859.11	215.74
859.42	215.73
859.73	215.71
860.04	215.67
860.35	215.60
860.66	215.56
860.98	215.49
861.29	215.50
861.60	215.47
861.91	215.48
862.22	215.46
862.53	215.45
862.84	215.20
863.16	215.24
863.47	215.21
863.78	215.22
864.09	215.20
864.40	215.20
864.71	215.21
865.02	215.19
865.33	215.14
865.64	215.10
865.95	215.10
866.27	215.25
866.58	215.23
866.89	215.27
867.20	215.29
867.51	215.27
867.82	215.24
868.13	215.33
868.44	215.28
868.75	215.32
869.06	215.30
869.37	215.29
869.68	215.23
869.99	215.24
870.30	215.26
870.61	215.31
870.92	215.26
871.23	215.25
871.54	215.31
871.85	215.34
872.16	215.39
872.47	215.35
872.78	215.21
873.09	215.24
873.40	215.21
873.71	215.20
874.02	215.23
874.33	215.21
874.64	215.12
874.95	215.18
875.26	215.11
875.56	215.09
875.87	215.10
876.18	215.10
876.49	215.33
876.80	215.32
877.11	215.27
877.42	215.30
877.73	215.28
878.04	215.23
878.35	215.27
878.66	215.26
878.96	215.28
879.27	215.27
879.58	215.26
879.89	215.22
880.20	215.28
880.51	215.25
880.82	215.24
881.12	215.27
881.43	215.25
881.74	215.25
882.05	215.23
882.36	215.25
882.67	215.27
882.97	215.05
883.28	214.99
883.59	214.99
883.90	215.00
884.21	215.03
884.51	215.02
884.82	214.96
885.13	214.96
885.44	214.97
885.74	214.98
886.05	214.98
886.36	215.02
886.67	214.97
886.98	215.10
887.28	215.12
887.59	215.13
887.90	215.11
888.20	215.13
888.51	215.19
888.82	215.16
889.13	215.20
889.43	215.34
889.74	215.37
890.05	215.34
890.35	215.37
890.66	215.36
890.97	215.34
891.28	215.34
891.58	215.33
891.89	215.34
892.20	215.29
892.50	215.25
892.81	215.22
893.12	215.24
893.42	215.14
893.73	215.14
894.04	215.15
894.34	215.17
894.65	215.16
894.95	215.11
895.26	215.11
895.57	215.18
895.87	215.00
896.18	215.03
896.48	215.04
896.79	215.01
897.10	215.03
897.40	215.04
897.71	215.06
898.01	215.06
898.32	215.08
898.63	215.11
898.93	215.15
899.24	215.17
899.54	215.12
899.85	215.14
900.15	215.13
900.46	215.09
900.76	215.09
901.07	215.08
901.38	215.08
901.68	215.08
901.99	214.97
902.29	215.01
902.60	214.99
902.90	214.97
903.21	214.96
903.51	214.93
903.82	214.96
904.12	214.95
904.43	214.95
904.73	214.89
905.03	214.90
905.34	215.09
905.64	215.09
905.95	215.09
906.25	215.07
906.56	215.06
906.86	215.09
907.17	215.04
907.47	215.05
907.77	215.03
908.08	215.01
908.38	215.05
908.69	215.03
908.99	215.06
909.30	215.11
909.60	215.10
909.90	215.11
910.21	215.06
910.51	215.02
910.81	214.99
911.12	215.04
911.42	215.02
911.73	214.80
912.03	214.81
912.33	214.86
912.64	214.88
912.94	214.85
913.24	214.81
913.55	214.83
913.85	214.81
914.15	214.86
914.46	214.87
914.76	214.81
915.06	214.79
915.37	214.75
915.67	214.73
915.97	214.74
916.27	214.72
916.58	214.73
916.88	214.76
917.18	214.75
917.49	214.86
917.79	214.86
918.09	214.89
918.39	214.90
918.70	214.90
919.00	214.87
919.30	214.97
919.60	214.93
919.91	214.91
920.21	214.92
920.51	214.87
920.81	214.89
921.12	214.93
921.42	214.95
921.72	214.96
922.02	214.97
922.32	215.00
922.63	214.98
922.93	215.07
923.23	215.05
923.53	215.03
923.83	214.88
924.13	214.88
924.44	214.90
924.74	214.94
925.04	214.94
925.34	214.93
925.64	214.85
925.94	214.88
926.24	215.01
926.55	215.00
926.85	215.04
927.15	215.02
927.45	214.98
927.75	214.98
928.05	214.96
928.35	214.94
928.65	214.97
928.95	215.03
929.26	214.98
929.56	215.04
929.86	215.09
930.16	215.09
930.46	215.10
930.76	215.10
931.06	215.00
931.36	214.97
931.66	215.02
931.96	215.03
932.26	215.03
932.56	214.95
932.86	214.98
933.16	214.99
933.46	214.99
933.76	215.00
934.06	215.06
934.36	215.14
934.66	215.13
934.96	215.11
935.26	215.10
935.56	215.10
935.86	215.02
936.16	214.98
936.46	214.92
936.76	214.92
937.06	214.90
937.36	214.95
937.66	214.96
937.96	214.92
938.26	214.87
938.56	214.88
938.86	214.88
939.16	214.92
939.46	214.91
939.76	214.93
940.06	214.91
940.35	214.82
940.65	214.73
940.95	214.77
941.25	214.70
941.55	214.68
941.85	214.68
942.15	214.74
942.45	214.78
942.75	214.80
943.04	214.78
943.34	214.81
943.64	214.78
943.94	214.76
944.24	214.80
944.54	214.82
944.84	214.81
945.13	214.77
945.43	214.71
945.73	214.70
946.03	214.65
946.33	214.64
946.62	214.65
946.92	214.64
947.22	214.63
947.52	214.62
947.82	214.65
948.11	214.60
948.41	214.58
948.71	214.53
949.01	214.57
949.31	214.56
949.60	214.52
949.90	214.54
950.20	214.51
950.50	214.47
950.79	214.46
951.09	214.46
951.39	214.46
951.69	214.47
951.98	214.51
952.28	214.52
952.58	214.51
952.87	214.51
953.17	214.54
953.47	214.51
953.76	214.52
954.06	214.47
954.36	214.46
954.66	214.47
954.95	214.52
955.25	214.53
955.55	214.56
955.84	214.55
956.14	214.55
956.44	214.59
956.73	214.60
957.03	214.62
957.32	214.65
957.62	214.61
957.92	214.62
958.21	214.61
958.51	214.84
958.81	214.87
959.10	214.87
959.40	214.91
959.69	214.93
959.99	214.96
960.29	214.97
960.58	215.00
960.88	215.04
961.17	215.01
961.47	215.01
961.76	215.00
962.06	215.01
962.36	215.01
962.65	215.03
962.95	215.01
963.24	215.01
963.54	214.97
963.83	215.01
964.13	215.01
964.42	214.97
964.72	214.84
965.01	214.83
965.31	214.83
965.60	214.77
965.90	214.90
966.19	214.86
966.49	214.87
966.78	214.82
967.08	214.84
967.37	214.85
967.67	214.84
967.96	214.86
968.26	214.88
968.55	214.87
968.85	214.84
969.14	214.85
969.43	214.84
969.73	214.88
970.02	214.86
970.32	214.87
970.61	214.84
970.91	214.76
971.20	214.74
971.49	214.77
971.79	214.78
972.08	214.64
972.38	214.63
972.67	214.64
972.96	214.68
973.26	214.63
973.55	214.66
973.85	214.66
974.14	214.66
974.43	214.67
974.73	214.65
975.02	214.64
975.31	214.66
975.61	214.65
975.90	214.61
976.19	214.62
976.49	214.64
976.78	214.67
977.07	214.68
977.37	214.70
977.66	214.72
977.95	214.71
978.24	214.73
978.54	214.77
978.83	214.73
979.12	214.73
979.42	214.70
979.71	214.71
980.00	214.68
980.29	214.67
980.59	214.61
980.88	214.65
981.17	214.65
981.46	214.63
981.76	214.63
982.05	214.70
982.34	214.70
982.63	214.68
982.93	214.68
983.22	214.73
983.51	214.73
983.80	214.71
984.09	214.73
984.39	214.73
984.68	214.72
984.97	214.72
985.26	214.71
985.55	214.72
985.85	214.68
986.14	214.75
986.43	214.77
986.72	214.78
987.01	214.72
987.30	214.70
987.59	214.70
987.89	214.70
988.18	214.65
988.47	214.65
988.76	214.63
989.05	214.58
989.34	214.53
989.63	214.58
989.92	214.57
990.22	214.55
990.51	214.55
990.80	214.52
991.09	214.57
991.38	214.57
991.67	214.56
991.96	214.53
992.25	214.50
992.54	214.44
992.83	214.44
993.12	214.44
993.41	214.51
993.70	214.57
993.99	214.63
994.28	214.63
994.58	214.64
994.87	214.62
995.16	214.63
995.45	214.63
995.74	214.56
996.03	214.55
996.32	214.59
996.61	214.63
996.90	214.64
997.19	214.57
997.48	214.62
997.77	214.60
998.06	214.58
998.34	214.58
998.63	214.61
998.92	214.64
999.21	214.70
999.50	214.67
999.79	214.62
1000.08	214.61
1000.37	214.61
1000.66	214.57
1000.95	214.63
1001.24	214.62
1001.53	214.61
1001.82	214.59
1002.11	214.55
1002.40	214.53
1002.68	214.55
1002.97	214.70
1003.26	214.68
1003.55	214.65
1003.84	214.65
1004.13	214.74
1004.42	214.70
1004.71	214.68
1004.99	214.64
1005.28	214.67
1005.57	214.65
1005.86	214.62
1006.15	214.56
1006.44	214.57
1006.72	214.63
1007.01	214.58
1007.30	214.61
1007.59	214.64
1007.88	214.64
1008.17	214.66
1008.45	214.63
1008.74	214.55
1009.03	214.49
1009.32	214.49
1009.60	214.47
1009.89	214.45
1010.18	214.36
1010.47	214.35
1010.76	214.35
1011.04	214.37
1011.33	214.35
1011.62	214.37
1011.91	214.40
1012.19	214.44
1012.48	214.38
1012.77	214.38
1013.05	214.48
1013.34	214.47
1013.63	214.42
1013.92	214.46
1014.20	214.47
1014.49	214.49
1014.78	214.53
1015.06	214.44
1015.35	214.47
1015.64	214.50
1015.92	214.54
1016.21	214.56
1016.50	214.57
1016.78	214.57
1017.07	214.57
1017.36	214.54
1017.64	214.50
1017.93	214.51
1018.22	214.46
1018.50	214.49
1018.79	214.43
1019.08	214.33
1019.36	214.37
1019.65	214.36
1019.93	214.39
1020.22	214.40
1020.51	214.52
1020.79	214.48
1021.08	213.82
1021.36	214.02
1021.65	213.87
1021.94	214.37
1022.22	214.85
1022.51	214.15
1022.79	215.04
1023.08	214.65
1023.36	217.16
1023.65	213.92
>>>>>End Processed Spectral Data<<<<<
