SpectraSuite Data File
++++++++++++++++++++++++++++++++++++
Date: Tue Jan 29 16:00:25 EST 2013
User: group
Dark Spectrum Present: No
Reference Spectrum Present: No
Number of Sampled Component Spectra: 1
Spectrometers: USB2E7196
Integration Time (usec): 65000 (USB2E7196)
Spectra Averaged: 100 (USB2E7196)
Boxcar Smoothing: 10 (USB2E7196)
Correct for Electrical Dark: No (USB2E7196)
Strobe/Lamp Enabled: No (USB2E7196)
Correct for Detector Non-linearity: No (USB2E7196)
Correct for Stray Light: No (USB2E7196)
Number of Pixels in Processed Spectrum: 2048
>>>>>Begin Processed Spectral Data<<<<<
339.09	0.00
339.48	202.83
339.86	203.99
340.24	205.56
340.63	207.37
341.01	211.64
341.39	209.85
341.78	211.33
342.16	212.88
342.54	213.02
342.93	202.00
343.31	212.19
343.69	212.73
344.07	213.20
344.46	213.65
344.84	214.01
345.22	214.19
345.60	214.44
345.99	214.62
346.37	214.73
346.75	214.85
347.13	214.94
347.52	215.01
347.90	215.12
348.28	215.13
348.66	215.21
349.05	215.15
349.43	215.24
349.81	215.29
350.19	215.32
350.57	215.43
350.96	215.52
351.34	215.66
351.72	215.74
352.10	215.89
352.48	215.99
352.87	216.05
353.25	216.13
353.63	216.21
354.01	216.30
354.39	216.36
354.77	216.42
355.15	216.54
355.54	216.59
355.92	216.65
356.30	216.77
356.68	216.98
357.06	217.10
357.44	217.14
357.82	217.23
358.20	217.33
358.58	217.39
358.97	217.42
359.35	217.49
359.73	217.62
360.11	217.64
360.49	217.69
360.87	217.74
361.25	217.84
361.63	217.93
362.01	217.95
362.39	217.97
362.77	218.05
363.15	218.09
363.53	218.14
363.91	218.15
364.29	218.19
364.67	218.01
365.05	218.03
365.43	218.05
365.81	218.05
366.19	218.14
366.57	218.23
366.95	218.27
367.33	218.26
367.71	218.25
368.09	218.28
368.47	218.28
368.85	218.28
369.23	218.29
369.61	218.20
369.99	218.28
370.37	218.32
370.75	218.39
371.13	218.33
371.51	218.30
371.89	218.30
372.27	218.26
372.65	218.25
373.03	218.25
373.41	218.21
373.78	218.16
374.16	218.01
374.54	217.89
374.92	217.80
375.30	217.75
375.68	217.65
376.06	217.61
376.44	217.56
376.82	217.53
377.19	217.45
377.57	217.42
377.95	217.28
378.33	217.22
378.71	217.04
379.09	217.00
379.47	216.97
379.84	216.86
380.22	216.83
380.60	216.76
380.98	216.71
381.36	216.66
381.73	216.61
382.11	216.63
382.49	216.63
382.87	216.59
383.25	216.53
383.62	216.73
384.00	216.66
384.38	216.60
384.76	216.58
385.13	216.63
385.51	216.58
385.89	216.52
386.27	216.52
386.64	216.54
387.02	216.51
387.40	216.48
387.78	216.50
388.15	216.44
388.53	216.40
388.91	216.34
389.29	216.31
389.66	216.33
390.04	216.26
390.42	216.24
390.79	216.25
391.17	216.25
391.55	216.03
391.92	216.00
392.30	216.02
392.68	215.95
393.05	215.94
393.43	215.97
393.81	216.02
394.18	215.97
394.56	215.97
394.94	216.00
395.31	215.98
395.69	216.02
396.06	216.06
396.44	216.10
396.82	216.12
397.19	216.27
397.57	216.26
397.95	216.33
398.32	216.28
398.70	216.32
399.07	216.40
399.45	216.44
399.82	216.50
400.20	216.54
400.58	216.63
400.95	216.61
401.33	216.69
401.70	216.90
402.08	216.99
402.45	217.05
402.83	217.17
403.20	217.30
403.58	217.38
403.95	217.54
404.33	217.65
404.71	217.79
405.08	218.03
405.46	218.19
405.83	218.34
406.21	218.57
406.58	218.79
406.96	219.00
407.33	219.25
407.70	219.53
408.08	219.99
408.45	220.35
408.83	220.73
409.20	221.07
409.58	221.34
409.95	221.77
410.33	222.25
410.70	222.65
411.08	223.17
411.45	223.72
411.82	224.23
412.20	224.93
412.57	225.74
412.95	226.25
413.32	227.07
413.69	227.91
414.07	228.77
414.44	229.70
414.82	230.64
415.19	231.78
415.56	232.93
415.94	234.04
416.31	235.37
416.68	236.67
417.06	238.21
417.43	239.68
417.81	241.38
418.18	243.09
418.55	245.01
418.93	246.95
419.30	248.97
419.67	251.12
420.04	253.34
420.42	255.61
420.79	258.31
421.16	260.97
421.54	263.72
421.91	266.59
422.28	269.59
422.66	272.78
423.03	275.90
423.40	279.11
423.77	282.58
424.15	286.12
424.52	289.85
424.89	293.81
425.26	297.75
425.64	301.48
426.01	305.60
426.38	309.84
426.75	314.25
427.13	318.82
427.50	323.68
427.87	328.67
428.24	333.67
428.61	338.48
428.99	343.83
429.36	349.63
429.73	355.35
430.10	361.00
430.47	366.83
430.85	372.91
431.22	379.37
431.59	386.23
431.96	392.82
432.33	400.06
432.70	407.03
433.08	415.26
433.45	423.03
433.82	430.73
434.19	439.35
434.56	447.68
434.93	455.69
435.30	463.66
435.68	472.38
436.05	481.02
436.42	489.61
436.79	497.42
437.16	505.85
437.53	514.79
437.90	523.64
438.27	532.26
438.64	541.12
439.01	549.45
439.38	556.75
439.75	563.80
440.13	571.93
440.50	579.63
440.87	585.77
441.24	592.10
441.61	599.18
441.98	604.32
442.35	610.43
442.72	616.49
443.09	622.28
443.46	625.91
443.83	628.35
444.20	630.46
444.57	633.43
444.94	634.79
445.31	636.12
445.68	637.33
446.05	637.89
446.42	637.12
446.79	636.08
447.16	635.01
447.53	634.15
447.90	630.86
448.27	627.66
448.64	623.23
449.01	620.02
449.37	614.32
449.74	608.82
450.11	602.12
450.48	595.02
450.85	587.84
451.22	581.60
451.59	575.68
451.96	570.06
452.33	562.52
452.70	555.78
453.07	547.65
453.43	539.40
453.80	531.48
454.17	523.83
454.54	516.59
454.91	508.76
455.28	501.22
455.65	494.14
456.02	486.98
456.38	480.92
456.75	473.45
457.12	467.20
457.49	461.01
457.86	455.16
458.23	450.04
458.59	444.29
458.96	438.57
459.33	433.52
459.70	428.37
460.07	424.28
460.43	419.50
460.80	415.10
461.17	411.28
461.54	407.22
461.91	403.34
462.27	399.41
462.64	396.09
463.01	392.38
463.38	388.82
463.74	385.22
464.11	382.06
464.48	379.33
464.85	376.33
465.21	373.97
465.58	371.40
465.95	368.35
466.32	365.89
466.68	363.37
467.05	360.88
467.42	358.45
467.78	355.93
468.15	353.52
468.52	351.72
468.88	349.39
469.25	347.30
469.62	345.60
469.98	343.75
470.35	342.05
470.72	340.46
471.08	338.79
471.45	337.39
471.82	335.94
472.18	334.34
472.55	333.16
472.92	331.85
473.28	330.63
473.65	329.57
474.02	328.51
474.38	327.67
474.75	326.94
475.11	326.18
475.48	325.63
475.85	325.21
476.21	324.74
476.58	324.38
476.94	324.19
477.31	323.93
477.67	323.69
478.04	323.54
478.41	323.53
478.77	323.67
479.14	323.67
479.50	323.83
479.87	324.18
480.23	324.56
480.60	324.83
480.96	325.22
481.33	325.84
481.69	326.44
482.06	326.95
482.42	327.48
482.79	328.12
483.15	328.94
483.52	329.90
483.88	330.79
484.25	331.80
484.61	332.79
484.98	333.85
485.34	335.18
485.71	336.56
486.07	337.99
486.44	339.33
486.80	340.95
487.17	342.59
487.53	344.38
487.90	346.23
488.26	348.24
488.62	350.41
488.99	352.45
489.35	354.60
489.72	357.01
490.08	359.51
490.44	362.04
490.81	364.76
491.17	367.45
491.54	370.47
491.90	373.54
492.26	376.80
492.63	380.24
492.99	383.74
493.36	387.41
493.72	391.32
494.08	395.33
494.45	399.55
494.81	403.87
495.17	408.34
495.54	413.09
495.90	417.89
496.26	422.76
496.63	427.93
496.99	433.31
497.35	438.89
497.72	444.73
498.08	450.62
498.44	456.68
498.80	463.09
499.17	469.55
499.53	476.24
499.89	483.12
500.26	490.07
500.62	497.15
500.98	504.51
501.34	511.89
501.71	519.64
502.07	527.43
502.43	535.51
502.79	543.59
503.16	551.93
503.52	560.48
503.88	569.22
504.24	578.17
504.60	587.26
504.97	596.47
505.33	605.71
505.69	615.63
506.05	625.43
506.41	635.18
506.78	645.22
507.14	655.32
507.50	665.70
507.86	676.29
508.22	686.98
508.59	697.57
508.95	708.68
509.31	719.85
509.67	731.19
510.03	742.53
510.39	754.26
510.75	766.04
511.12	777.93
511.48	790.00
511.84	802.07
512.20	814.29
512.56	826.83
512.92	839.50
513.28	851.89
513.64	864.52
514.00	877.29
514.37	890.19
514.73	903.17
515.09	916.10
515.45	928.93
515.81	941.83
516.17	955.19
516.53	968.16
516.89	981.13
517.25	994.23
517.61	1007.53
517.97	1020.71
518.33	1033.67
518.69	1046.95
519.05	1060.44
519.41	1074.00
519.77	1087.64
520.13	1100.77
520.49	1113.81
520.85	1127.08
521.21	1140.34
521.57	1153.84
521.93	1166.66
522.29	1180.28
522.65	1193.68
523.01	1206.96
523.37	1219.87
523.73	1232.78
524.09	1245.73
524.45	1258.92
524.81	1272.15
525.17	1285.33
525.53	1298.29
525.89	1311.39
526.25	1324.31
526.61	1336.92
526.97	1349.66
527.33	1362.28
527.68	1375.37
528.04	1388.50
528.40	1401.42
528.76	1414.29
529.12	1426.86
529.48	1439.82
529.84	1451.75
530.20	1464.22
530.56	1476.67
530.91	1489.73
531.27	1502.38
531.63	1514.89
531.99	1527.21
532.35	1539.00
532.71	1551.09
533.07	1563.54
533.42	1575.34
533.78	1587.17
534.14	1598.86
534.50	1609.84
534.86	1621.14
535.21	1631.77
535.57	1642.99
535.93	1653.95
536.29	1664.92
536.65	1676.05
537.00	1686.75
537.36	1697.83
537.72	1708.49
538.08	1719.39
538.44	1729.97
538.79	1740.66
539.15	1751.25
539.51	1761.71
539.87	1773.04
540.22	1783.46
540.58	1794.12
540.94	1804.75
541.29	1814.74
541.65	1824.21
542.01	1834.51
542.37	1844.42
542.72	1854.38
543.08	1863.94
543.44	1874.03
543.79	1883.06
544.15	1892.23
544.51	1902.01
544.87	1911.50
545.22	1920.29
545.58	1928.95
545.94	1937.59
546.29	1945.94
546.65	1953.95
547.01	1962.02
547.36	1969.31
547.72	1976.87
548.07	1984.26
548.43	1991.81
548.79	1999.31
549.14	2007.13
549.50	2015.24
549.86	2022.73
550.21	2029.77
550.57	2037.00
550.92	2043.58
551.28	2050.81
551.64	2057.79
551.99	2064.91
552.35	2072.00
552.70	2078.72
553.06	2085.10
553.41	2091.09
553.77	2097.41
554.13	2103.60
554.48	2110.52
554.84	2117.29
555.19	2123.63
555.55	2130.02
555.90	2136.24
556.26	2142.92
556.61	2148.88
556.97	2153.57
557.32	2159.37
557.68	2165.62
558.03	2171.30
558.39	2176.32
558.74	2182.17
559.10	2187.83
559.45	2193.34
559.81	2198.74
560.16	2204.32
560.52	2210.31
560.87	2216.68
561.23	2222.66
561.58	2229.31
561.94	2234.32
562.29	2239.29
562.64	2245.44
563.00	2250.89
563.35	2256.41
563.71	2262.25
564.06	2267.93
564.42	2273.83
564.77	2278.90
565.12	2284.25
565.48	2289.72
565.83	2295.41
566.19	2301.07
566.54	2306.51
566.89	2311.29
567.25	2316.04
567.60	2321.85
567.96	2327.10
568.31	2331.84
568.66	2336.01
569.02	2339.96
569.37	2343.85
569.72	2348.24
570.08	2351.89
570.43	2355.16
570.78	2358.22
571.14	2360.97
571.49	2364.15
571.84	2367.95
572.20	2371.02
572.55	2374.13
572.90	2376.21
573.26	2379.37
573.61	2381.79
573.96	2383.84
574.31	2385.84
574.67	2387.82
575.02	2388.81
575.37	2390.42
575.72	2391.25
576.08	2393.00
576.43	2393.48
576.78	2394.45
577.13	2396.39
577.49	2397.56
577.84	2398.99
578.19	2400.73
578.54	2401.60
578.90	2402.83
579.25	2402.90
579.60	2403.10
579.95	2402.78
580.30	2403.36
580.66	2402.78
581.01	2401.28
581.36	2399.43
581.71	2398.49
582.06	2397.70
582.42	2397.06
582.77	2395.10
583.12	2393.93
583.47	2392.90
583.82	2392.47
584.17	2391.42
584.53	2389.36
584.88	2387.74
585.23	2385.84
585.58	2383.77
585.93	2381.81
586.28	2379.78
586.63	2377.71
586.98	2375.84
587.34	2374.11
587.69	2372.00
588.04	2370.25
588.39	2369.03
588.74	2366.84
589.09	2364.46
589.44	2361.70
589.79	2359.45
590.14	2357.88
590.49	2355.20
590.84	2351.61
591.19	2348.93
591.54	2345.66
591.89	2341.78
592.25	2338.60
592.60	2334.73
592.95	2330.79
593.30	2326.75
593.65	2322.39
594.00	2318.11
594.35	2314.99
594.70	2310.36
595.05	2305.77
595.40	2300.53
595.75	2295.16
596.10	2291.62
596.45	2286.81
596.80	2282.33
597.15	2277.04
597.50	2271.09
597.85	2266.13
598.19	2260.93
598.54	2255.23
598.89	2250.36
599.24	2246.00
599.59	2239.93
599.94	2234.40
600.29	2228.64
600.64	2222.95
600.99	2216.50
601.34	2211.24
601.69	2204.31
602.04	2198.02
602.39	2191.68
602.74	2185.72
603.08	2180.30
603.43	2173.93
603.78	2167.29
604.13	2160.03
604.48	2153.03
604.83	2147.13
605.18	2141.02
605.53	2134.16
605.87	2127.02
606.22	2120.30
606.57	2112.43
606.92	2104.76
607.27	2097.74
607.62	2091.12
607.96	2084.12
608.31	2077.54
608.66	2069.85
609.01	2062.39
609.36	2055.31
609.70	2047.61
610.05	2039.89
610.40	2031.53
610.75	2023.37
611.10	2015.75
611.44	2007.22
611.79	1998.58
612.14	1988.54
612.49	1978.13
612.83	1968.94
613.18	1960.02
613.53	1950.70
613.88	1941.25
614.22	1932.71
614.57	1922.85
614.92	1912.40
615.27	1902.43
615.61	1892.53
615.96	1882.70
616.31	1873.21
616.65	1863.93
617.00	1854.09
617.35	1844.46
617.70	1834.79
618.04	1824.59
618.39	1814.07
618.74	1804.31
619.08	1794.66
619.43	1786.02
619.78	1777.79
620.12	1769.08
620.47	1759.12
620.82	1748.84
621.16	1739.04
621.51	1729.02
621.85	1719.23
622.20	1708.63
622.55	1697.92
622.89	1688.15
623.24	1678.64
623.59	1668.85
623.93	1658.79
624.28	1649.10
624.62	1638.80
624.97	1628.47
625.32	1618.83
625.66	1610.15
626.01	1601.27
626.35	1591.83
626.70	1581.52
627.04	1571.25
627.39	1561.24
627.73	1551.91
628.08	1542.74
628.43	1533.15
628.77	1523.82
629.12	1514.95
629.46	1507.19
629.81	1498.74
630.15	1489.03
630.50	1479.08
630.84	1468.64
631.19	1458.68
631.53	1449.15
631.88	1439.03
632.22	1429.00
632.57	1419.67
632.91	1409.43
633.26	1399.52
633.60	1390.03
633.95	1380.74
634.29	1371.32
634.64	1361.86
634.98	1352.12
635.32	1342.83
635.67	1334.22
636.01	1325.02
636.36	1315.03
636.70	1305.34
637.05	1295.90
637.39	1286.91
637.73	1278.20
638.08	1270.49
638.42	1262.08
638.77	1253.32
639.11	1245.14
639.45	1237.32
639.80	1228.47
640.14	1219.75
640.49	1210.88
640.83	1201.91
641.17	1193.91
641.52	1185.64
641.86	1176.96
642.20	1169.00
642.55	1160.40
642.89	1151.37
643.23	1142.63
643.58	1134.59
643.92	1125.60
644.26	1116.91
644.61	1108.47
644.95	1099.67
645.29	1090.43
645.64	1081.36
645.98	1072.98
646.32	1064.98
646.66	1056.40
647.01	1048.01
647.35	1039.91
647.69	1031.57
648.04	1023.41
648.38	1014.37
648.72	1005.62
649.06	997.23
649.41	989.02
649.75	981.01
650.09	973.21
650.43	965.11
650.78	956.93
651.12	949.32
651.46	942.05
651.80	934.81
652.14	927.45
652.49	920.03
652.83	912.75
653.17	904.99
653.51	897.39
653.85	890.15
654.20	882.90
654.54	875.35
654.88	868.20
655.22	860.97
655.56	854.04
655.90	847.31
656.25	840.66
656.59	833.71
656.93	826.79
657.27	819.71
657.61	812.92
657.95	806.85
658.29	800.87
658.64	794.64
658.98	788.18
659.32	781.66
659.66	775.40
660.00	768.97
660.34	762.98
660.68	756.85
661.02	750.59
661.36	744.77
661.70	739.15
662.05	733.44
662.39	728.01
662.73	722.66
663.07	717.26
663.41	711.73
663.75	706.17
664.09	700.53
664.43	695.20
664.77	689.86
665.11	684.00
665.45	678.14
665.79	672.41
666.13	666.77
666.47	661.42
666.81	656.02
667.15	650.77
667.49	645.64
667.83	640.46
668.17	635.34
668.51	630.27
668.85	625.36
669.19	620.52
669.53	615.57
669.87	610.55
670.21	605.89
670.55	601.13
670.89	596.78
671.23	592.56
671.57	588.26
671.91	584.04
672.25	580.01
672.58	575.95
672.92	572.00
673.26	568.12
673.60	564.32
673.94	560.52
674.28	556.90
674.62	553.24
674.96	549.53
675.30	546.04
675.64	542.38
675.97	538.83
676.31	535.32
676.65	531.73
676.99	528.30
677.33	524.51
677.67	520.96
678.01	517.08
678.34	513.51
678.68	510.00
679.02	506.37
679.36	502.69
679.70	499.12
680.04	495.67
680.37	492.35
680.71	489.10
681.05	486.01
681.39	482.89
681.73	479.74
682.06	476.78
682.40	473.70
682.74	470.61
683.08	467.41
683.42	464.29
683.75	461.36
684.09	458.44
684.43	455.68
684.77	452.78
685.10	450.06
685.44	447.08
685.78	444.17
686.12	441.55
686.45	438.86
686.79	436.23
687.13	433.67
687.46	430.96
687.80	428.24
688.14	425.46
688.48	422.86
688.81	420.20
689.15	417.66
689.49	415.07
689.82	412.60
690.16	410.12
690.50	407.73
690.83	405.24
691.17	402.68
691.51	400.28
691.84	398.14
692.18	395.98
692.52	393.87
692.85	391.86
693.19	389.72
693.52	387.64
693.86	385.52
694.20	383.40
694.53	381.37
694.87	379.24
695.21	377.15
695.54	375.04
695.88	372.94
696.21	370.83
696.55	368.77
696.88	366.80
697.22	364.88
697.56	363.03
697.89	361.18
698.23	359.50
698.56	357.78
698.90	355.95
699.23	354.06
699.57	352.24
699.90	350.40
700.24	348.63
700.58	346.92
700.91	345.25
701.25	343.74
701.58	342.19
701.92	340.63
702.25	339.07
702.59	337.53
702.92	336.03
703.26	334.48
703.59	333.13
703.93	331.86
704.26	330.43
704.60	328.94
704.93	327.53
705.26	326.09
705.60	324.59
705.93	323.18
706.27	321.89
706.60	320.65
706.94	319.41
707.27	318.04
707.61	316.75
707.94	315.47
708.27	313.96
708.61	312.54
708.94	311.28
709.28	310.02
709.61	308.80
709.94	307.67
710.28	306.50
710.61	305.30
710.95	303.89
711.28	302.85
711.61	301.70
711.95	300.63
712.28	299.46
712.61	298.35
712.95	297.33
713.28	296.32
713.61	295.21
713.95	294.11
714.28	293.17
714.61	292.19
714.95	291.18
715.28	290.23
715.61	289.26
715.95	288.32
716.28	287.39
716.61	286.43
716.95	285.48
717.28	284.58
717.61	283.67
717.94	282.85
718.28	281.87
718.61	281.02
718.94	280.13
719.27	279.32
719.61	278.53
719.94	277.67
720.27	276.75
720.60	275.94
720.94	275.20
721.27	274.44
721.60	273.76
721.93	273.10
722.27	272.45
722.60	271.78
722.93	271.10
723.26	270.45
723.59	269.83
723.93	269.20
724.26	268.59
724.59	267.95
724.92	267.33
725.25	266.81
725.59	266.30
725.92	265.78
726.25	265.26
726.58	264.68
726.91	264.09
727.24	263.58
727.57	263.06
727.91	262.44
728.24	261.91
728.57	261.32
728.90	260.79
729.23	260.20
729.56	259.80
729.89	259.25
730.22	258.69
730.55	258.14
730.89	257.62
731.22	257.09
731.55	256.58
731.88	256.10
732.21	255.53
732.54	254.96
732.87	254.45
733.20	253.94
733.53	253.50
733.86	253.08
734.19	252.63
734.52	252.22
734.85	251.98
735.18	251.53
735.51	251.15
735.84	250.70
736.17	250.34
736.50	249.83
736.83	249.69
737.16	249.34
737.49	248.96
737.82	248.58
738.15	248.25
738.48	247.90
738.81	247.49
739.14	247.08
739.47	246.72
739.80	246.40
740.13	246.11
740.46	245.73
740.79	245.36
741.12	244.99
741.45	244.64
741.78	244.20
742.11	243.91
742.44	243.59
742.77	243.30
743.10	242.97
743.43	242.63
743.75	242.09
744.08	242.04
744.41	241.73
744.74	241.38
745.07	241.02
745.40	240.68
745.73	240.48
746.06	240.20
746.39	239.93
746.71	239.55
747.04	239.20
747.37	238.90
747.70	238.58
748.03	238.30
748.36	238.02
748.68	237.70
749.01	237.35
749.34	237.06
749.67	236.77
750.00	236.49
750.33	236.36
750.65	236.11
750.98	235.59
751.31	235.36
751.64	235.14
751.97	235.04
752.29	234.80
752.62	234.49
752.95	234.27
753.28	233.98
753.60	233.73
753.93	233.54
754.26	233.34
754.59	233.11
754.91	232.86
755.24	232.65
755.57	232.44
755.90	232.21
756.22	231.96
756.55	231.72
756.88	231.52
757.20	231.21
757.53	230.98
757.86	230.78
758.19	230.56
758.51	230.34
758.84	230.01
759.17	229.84
759.49	229.66
759.82	229.58
760.15	229.48
760.47	229.32
760.80	229.12
761.13	228.96
761.45	228.77
761.78	228.60
762.11	228.42
762.43	228.20
762.76	228.05
763.08	227.93
763.41	227.80
763.74	227.65
764.06	227.52
764.39	227.34
764.71	227.15
765.04	227.00
765.37	226.83
765.69	226.73
766.02	226.56
766.34	226.39
766.67	226.15
767.00	226.03
767.32	226.03
767.65	226.02
767.97	225.86
768.30	225.76
768.62	225.64
768.95	225.50
769.27	225.42
769.60	225.35
769.92	225.16
770.25	225.01
770.57	224.85
770.90	224.72
771.22	224.60
771.55	224.53
771.87	224.45
772.20	224.34
772.52	224.36
772.85	224.54
773.17	224.45
773.50	224.33
773.82	224.21
774.15	223.99
774.47	223.75
774.80	223.64
775.12	223.55
775.45	223.45
775.77	223.36
776.09	223.28
776.42	223.20
776.74	223.20
777.07	223.09
777.39	223.01
777.72	222.89
778.04	222.84
778.36	222.74
778.69	222.66
779.01	222.61
779.33	222.36
779.66	221.99
779.98	221.91
780.31	221.84
780.63	221.83
780.95	221.79
781.28	221.77
781.60	221.70
781.92	221.64
782.25	221.58
782.57	221.50
782.89	221.39
783.22	221.30
783.54	221.20
783.86	221.16
784.19	221.07
784.51	221.03
784.83	220.93
785.16	220.87
785.48	220.81
785.80	220.75
786.12	220.71
786.45	220.68
786.77	220.62
787.09	220.56
787.42	220.42
787.74	220.33
788.06	220.27
788.38	220.19
788.71	220.12
789.03	220.06
789.35	220.04
789.67	220.00
789.99	219.96
790.32	219.89
790.64	219.88
790.96	220.02
791.28	219.93
791.61	219.86
791.93	219.82
792.25	219.77
792.57	219.86
792.89	219.78
793.21	219.76
793.54	219.72
793.86	219.66
794.18	219.63
794.50	219.58
794.82	219.51
795.14	219.52
795.47	219.50
795.79	219.46
796.11	219.34
796.43	219.28
796.75	219.23
797.07	219.20
797.39	219.14
797.71	218.96
798.04	218.93
798.36	218.92
798.68	218.89
799.00	218.86
799.32	218.75
799.64	218.76
799.96	218.70
800.28	218.69
800.60	218.66
800.92	218.66
801.24	218.59
801.56	218.58
801.89	218.52
802.21	218.47
802.53	218.42
802.85	218.51
803.17	218.58
803.49	218.52
803.81	218.48
804.13	218.45
804.45	218.38
804.77	218.37
805.09	218.35
805.41	218.27
805.73	218.21
806.05	218.14
806.37	218.10
806.69	218.04
807.01	218.01
807.33	217.98
807.65	217.89
807.97	218.00
808.28	217.97
808.60	217.94
808.92	217.91
809.24	217.99
809.56	217.89
809.88	217.78
810.20	217.77
810.52	217.81
810.84	217.74
811.16	217.69
811.48	217.68
811.80	217.71
812.12	217.72
812.43	217.73
812.75	217.70
813.07	217.63
813.39	217.64
813.71	217.59
814.03	217.53
814.35	217.51
814.67	217.39
814.98	217.32
815.30	217.28
815.62	217.19
815.94	217.05
816.26	217.06
816.58	217.00
816.89	217.02
817.21	216.90
817.53	216.89
817.85	216.91
818.17	216.86
818.48	216.77
818.80	216.77
819.12	216.70
819.44	216.65
819.76	216.65
820.07	216.62
820.39	216.60
820.71	216.60
821.03	216.56
821.34	216.54
821.66	216.59
821.98	216.62
822.30	216.62
822.61	216.72
822.93	216.68
823.25	216.67
823.57	216.60
823.88	216.66
824.20	216.64
824.52	216.65
824.83	216.62
825.15	216.55
825.47	216.54
825.79	216.55
826.10	216.54
826.42	216.49
826.74	216.51
827.05	216.52
827.37	216.51
827.69	216.48
828.00	216.49
828.32	216.46
828.64	216.43
828.95	216.53
829.27	216.49
829.58	216.50
829.90	216.53
830.22	216.52
830.53	216.43
830.85	216.42
831.17	216.35
831.48	216.35
831.80	216.39
832.11	216.38
832.43	216.34
832.75	216.32
833.06	216.43
833.38	216.37
833.69	216.38
834.01	216.41
834.32	216.39
834.64	216.35
834.96	216.32
835.27	216.29
835.59	216.20
835.90	216.12
836.22	216.07
836.53	216.02
836.85	216.01
837.16	216.22
837.48	216.22
837.79	216.30
838.11	216.27
838.42	216.25
838.74	216.27
839.05	216.25
839.37	216.27
839.68	216.15
840.00	216.12
840.31	216.09
840.63	216.06
840.94	216.06
841.26	216.04
841.57	216.06
841.88	216.09
842.20	216.07
842.51	216.04
842.83	216.05
843.14	216.22
843.46	216.22
843.77	216.09
844.08	216.07
844.40	215.98
844.71	215.96
845.03	215.94
845.34	215.93
845.65	215.95
845.97	215.94
846.28	215.93
846.60	215.94
846.91	215.93
847.22	215.91
847.54	215.95
847.85	215.98
848.16	215.95
848.48	215.89
848.79	215.97
849.10	216.02
849.42	216.04
849.73	215.86
850.04	215.84
850.36	215.81
850.67	215.87
850.98	215.90
851.30	215.91
851.61	215.92
851.92	215.90
852.23	215.95
852.55	215.97
852.86	215.99
853.17	215.98
853.49	216.04
853.80	216.08
854.11	216.08
854.42	216.11
854.74	216.06
855.05	216.10
855.36	216.02
855.67	216.05
855.99	216.01
856.30	216.25
856.61	216.27
856.92	216.25
857.23	216.24
857.55	216.19
857.86	216.20
858.17	216.24
858.48	216.20
858.79	216.17
859.11	216.16
859.42	216.15
859.73	216.13
860.04	216.08
860.35	216.01
860.66	215.92
860.98	215.92
861.29	215.98
861.60	215.96
861.91	215.98
862.22	215.91
862.53	215.91
862.84	215.66
863.16	215.71
863.47	215.65
863.78	215.63
864.09	215.65
864.40	215.65
864.71	215.64
865.02	215.66
865.33	215.61
865.64	215.58
865.95	215.57
866.27	215.72
866.58	215.69
866.89	215.72
867.20	215.76
867.51	215.72
867.82	215.71
868.13	215.78
868.44	215.77
868.75	215.83
869.06	215.83
869.37	215.85
869.68	215.78
869.99	215.79
870.30	215.79
870.61	215.82
870.92	215.80
871.23	215.77
871.54	215.78
871.85	215.84
872.16	215.85
872.47	215.83
872.78	215.69
873.09	215.72
873.40	215.73
873.71	215.73
874.02	215.73
874.33	215.72
874.64	215.65
874.95	215.67
875.26	215.61
875.56	215.60
875.87	215.57
876.18	215.55
876.49	215.75
876.80	215.73
877.11	215.71
877.42	215.69
877.73	215.71
878.04	215.67
878.35	215.66
878.66	215.68
878.96	215.70
879.27	215.72
879.58	215.67
879.89	215.64
880.20	215.70
880.51	215.68
880.82	215.65
881.12	215.68
881.43	215.62
881.74	215.58
882.05	215.57
882.36	215.62
882.67	215.66
882.97	215.46
883.28	215.45
883.59	215.43
883.90	215.44
884.21	215.44
884.51	215.44
884.82	215.41
885.13	215.41
885.44	215.41
885.74	215.38
886.05	215.41
886.36	215.41
886.67	215.34
886.98	215.43
887.28	215.47
887.59	215.45
887.90	215.46
888.20	215.47
888.51	215.52
888.82	215.48
889.13	215.49
889.43	215.62
889.74	215.62
890.05	215.63
890.35	215.64
890.66	215.61
890.97	215.60
891.28	215.58
891.58	215.60
891.89	215.56
892.20	215.55
892.50	215.52
892.81	215.48
893.12	215.43
893.42	215.32
893.73	215.28
894.04	215.28
894.34	215.30
894.65	215.31
894.95	215.29
895.26	215.27
895.57	215.34
895.87	215.16
896.18	215.18
896.48	215.19
896.79	215.17
897.10	215.19
897.40	215.21
897.71	215.23
898.01	215.17
898.32	215.19
898.63	215.21
898.93	215.24
899.24	215.25
899.54	215.24
899.85	215.25
900.15	215.26
900.46	215.24
900.76	215.24
901.07	215.20
901.38	215.16
901.68	215.17
901.99	215.06
902.29	215.08
902.60	215.08
902.90	215.07
903.21	215.05
903.51	215.07
903.82	215.10
904.12	215.09
904.43	215.08
904.73	215.07
905.03	215.06
905.34	215.26
905.64	215.25
905.95	215.27
906.25	215.28
906.56	215.26
906.86	215.28
907.17	215.26
907.47	215.29
907.77	215.32
908.08	215.31
908.38	215.34
908.69	215.36
908.99	215.38
909.30	215.39
909.60	215.39
909.90	215.35
910.21	215.29
910.51	215.26
910.81	215.29
911.12	215.28
911.42	215.29
911.73	215.05
912.03	215.08
912.33	215.14
912.64	215.15
912.94	215.15
913.24	215.11
913.55	215.12
913.85	215.12
914.15	215.15
914.46	215.16
914.76	215.14
915.06	215.10
915.37	215.07
915.67	215.02
915.97	215.04
916.27	215.02
916.58	215.05
916.88	215.06
917.18	215.02
917.49	215.19
917.79	215.14
918.09	215.18
918.39	215.23
918.70	215.20
919.00	215.18
919.30	215.24
919.60	215.24
919.91	215.20
920.21	215.19
920.51	215.14
920.81	215.12
921.12	215.14
921.42	215.15
921.72	215.16
922.02	215.21
922.32	215.22
922.63	215.22
922.93	215.30
923.23	215.30
923.53	215.31
923.83	215.14
924.13	215.21
924.44	215.21
924.74	215.23
925.04	215.30
925.34	215.28
925.64	215.20
925.94	215.22
926.24	215.33
926.55	215.31
926.85	215.35
927.15	215.32
927.45	215.34
927.75	215.35
928.05	215.34
928.35	215.28
928.65	215.31
928.95	215.33
929.26	215.25
929.56	215.26
929.86	215.29
930.16	215.29
930.46	215.26
930.76	215.24
931.06	215.15
931.36	215.06
931.66	215.09
931.96	215.10
932.26	215.09
932.56	215.01
932.86	215.03
933.16	215.01
933.46	215.03
933.76	214.99
934.06	215.03
934.36	215.12
934.66	215.14
934.96	215.09
935.26	215.08
935.56	215.11
935.86	215.08
936.16	215.06
936.46	215.05
936.76	215.04
937.06	215.03
937.36	215.02
937.66	215.07
937.96	215.07
938.26	215.02
938.56	214.98
938.86	214.97
939.16	215.02
939.46	215.05
939.76	215.03
940.06	215.03
940.35	214.97
940.65	214.85
940.95	214.87
941.25	214.83
941.55	214.79
941.85	214.80
942.15	214.84
942.45	214.89
942.75	214.89
943.04	214.91
943.34	214.95
943.64	214.94
943.94	214.87
944.24	214.88
944.54	214.90
944.84	214.92
945.13	214.91
945.43	214.85
945.73	214.83
946.03	214.81
946.33	214.79
946.62	214.77
946.92	214.77
947.22	214.79
947.52	214.80
947.82	214.89
948.11	214.83
948.41	214.80
948.71	214.74
949.01	214.74
949.31	214.71
949.60	214.68
949.90	214.71
950.20	214.71
950.50	214.70
950.79	214.68
951.09	214.71
951.39	214.72
951.69	214.71
951.98	214.77
952.28	214.79
952.58	214.75
952.87	214.77
953.17	214.81
953.47	214.81
953.76	214.81
954.06	214.74
954.36	214.71
954.66	214.75
954.95	214.81
955.25	214.84
955.55	214.89
955.84	214.85
956.14	214.85
956.44	214.89
956.73	214.87
957.03	214.90
957.32	214.90
957.62	214.91
957.92	214.96
958.21	214.93
958.51	215.19
958.81	215.26
959.10	215.25
959.40	215.31
959.69	215.29
959.99	215.35
960.29	215.33
960.58	215.32
960.88	215.37
961.17	215.32
961.47	215.32
961.76	215.28
962.06	215.34
962.36	215.32
962.65	215.33
962.95	215.29
963.24	215.29
963.54	215.26
963.83	215.26
964.13	215.24
964.42	215.18
964.72	214.97
965.01	214.94
965.31	214.93
965.60	214.84
965.90	214.98
966.19	214.95
966.49	214.99
966.78	215.01
967.08	214.98
967.37	215.01
967.67	214.97
967.96	215.01
968.26	215.00
968.55	215.02
968.85	215.02
969.14	215.01
969.43	215.00
969.73	214.99
970.02	214.97
970.32	214.94
970.61	214.94
970.91	214.89
971.20	214.84
971.49	214.85
971.79	214.88
972.08	214.74
972.38	214.73
972.67	214.72
972.96	214.74
973.26	214.71
973.55	214.77
973.85	214.76
974.14	214.76
974.43	214.80
974.73	214.75
975.02	214.72
975.31	214.73
975.61	214.72
975.90	214.70
976.19	214.71
976.49	214.74
976.78	214.76
977.07	214.79
977.37	214.83
977.66	214.84
977.95	214.83
978.24	214.82
978.54	214.88
978.83	214.86
979.12	214.86
979.42	214.89
979.71	214.81
980.00	214.82
980.29	214.79
980.59	214.75
980.88	214.82
981.17	214.82
981.46	214.83
981.76	214.83
982.05	214.91
982.34	214.91
982.63	214.91
982.93	214.92
983.22	214.97
983.51	214.97
983.80	215.00
984.09	215.00
984.39	214.98
984.68	214.91
984.97	214.94
985.26	214.86
985.55	214.84
985.85	214.79
986.14	214.83
986.43	214.86
986.72	214.84
987.01	214.77
987.30	214.78
987.59	214.76
987.89	214.78
988.18	214.71
988.47	214.70
988.76	214.70
989.05	214.68
989.34	214.62
989.63	214.68
989.92	214.66
990.22	214.63
990.51	214.63
990.80	214.64
991.09	214.64
991.38	214.72
991.67	214.67
991.96	214.69
992.25	214.68
992.54	214.66
992.83	214.65
993.12	214.67
993.41	214.73
993.70	214.82
993.99	214.84
994.28	214.88
994.58	214.91
994.87	214.90
995.16	214.90
995.45	214.85
995.74	214.77
996.03	214.74
996.32	214.81
996.61	214.85
996.90	214.86
997.19	214.85
997.48	214.87
997.77	214.88
998.06	214.88
998.34	214.88
998.63	214.86
998.92	214.88
999.21	214.91
999.50	214.89
999.79	214.85
1000.08	214.86
1000.37	214.84
1000.66	214.81
1000.95	214.84
1001.24	214.85
1001.53	214.93
1001.82	214.94
1002.11	214.93
1002.40	214.94
1002.68	215.02
1002.97	215.17
1003.26	215.14
1003.55	215.10
1003.84	215.11
1004.13	215.20
1004.42	215.19
1004.71	215.22
1004.99	215.24
1005.28	215.23
1005.57	215.23
1005.86	215.20
1006.15	215.17
1006.44	215.12
1006.72	215.19
1007.01	215.14
1007.30	215.13
1007.59	215.11
1007.88	215.10
1008.17	215.12
1008.45	215.06
1008.74	214.95
1009.03	214.86
1009.32	214.86
1009.60	214.87
1009.89	214.84
1010.18	214.77
1010.47	214.75
1010.76	214.75
1011.04	214.72
1011.33	214.74
1011.62	214.76
1011.91	214.79
1012.19	214.81
1012.48	214.85
1012.77	214.81
1013.05	214.94
1013.34	214.97
1013.63	214.94
1013.92	214.94
1014.20	214.95
1014.49	214.99
1014.78	215.02
1015.06	214.93
1015.35	214.95
1015.64	214.96
1015.92	215.00
1016.21	214.99
1016.50	214.98
1016.78	215.01
1017.07	215.02
1017.36	214.97
1017.64	214.94
1017.93	214.95
1018.22	214.89
1018.50	214.89
1018.79	214.88
1019.08	214.80
1019.36	214.81
1019.65	214.78
1019.93	214.85
1020.22	214.85
1020.51	214.94
1020.79	214.89
1021.08	213.79
1021.36	214.72
1021.65	214.70
1021.94	215.07
1022.22	215.26
1022.51	214.21
1022.79	215.65
1023.08	214.78
1023.36	217.56
1023.65	214.25
>>>>>End Processed Spectral Data<<<<<
