SpectraSuite Data File
++++++++++++++++++++++++++++++++++++
Date: Tue Jan 29 16:10:43 EST 2013
User: group
Dark Spectrum Present: No
Reference Spectrum Present: No
Number of Sampled Component Spectra: 1
Spectrometers: USB2E7196
Integration Time (usec): 65000 (USB2E7196)
Spectra Averaged: 100 (USB2E7196)
Boxcar Smoothing: 10 (USB2E7196)
Correct for Electrical Dark: No (USB2E7196)
Strobe/Lamp Enabled: No (USB2E7196)
Correct for Detector Non-linearity: No (USB2E7196)
Correct for Stray Light: No (USB2E7196)
Number of Pixels in Processed Spectrum: 2048
>>>>>Begin Processed Spectral Data<<<<<
339.09	0.00
339.48	202.69
339.86	203.92
340.24	205.90
340.63	206.28
341.01	211.72
341.39	209.48
341.78	211.57
342.16	211.86
342.54	212.79
342.93	201.73
343.31	211.93
343.69	212.47
344.07	212.94
344.46	213.36
344.84	213.78
345.22	213.92
345.60	214.18
345.99	214.35
346.37	214.54
346.75	214.65
347.13	214.68
347.52	214.78
347.90	214.92
348.28	214.96
348.66	215.03
349.05	215.01
349.43	215.09
349.81	215.14
350.19	215.20
350.57	215.27
350.96	215.39
351.34	215.48
351.72	215.57
352.10	215.66
352.48	215.75
352.87	215.79
353.25	215.86
353.63	215.91
354.01	216.00
354.39	216.06
354.77	216.11
355.15	216.26
355.54	216.27
355.92	216.26
356.30	216.32
356.68	216.51
357.06	216.61
357.44	216.64
357.82	216.69
358.20	216.77
358.58	216.84
358.97	216.89
359.35	217.00
359.73	217.12
360.11	217.18
360.49	217.22
360.87	217.28
361.25	217.34
361.63	217.47
362.01	217.50
362.39	217.51
362.77	217.57
363.15	217.61
363.53	217.65
363.91	217.69
364.29	217.72
364.67	217.54
365.05	217.53
365.43	217.55
365.81	217.59
366.19	217.64
366.57	217.74
366.95	217.74
367.33	217.69
367.71	217.66
368.09	217.71
368.47	217.73
368.85	217.71
369.23	217.75
369.61	217.68
369.99	217.73
370.37	217.71
370.75	217.80
371.13	217.72
371.51	217.68
371.89	217.69
372.27	217.67
372.65	217.69
373.03	217.69
373.41	217.65
373.78	217.64
374.16	217.54
374.54	217.43
374.92	217.38
375.30	217.35
375.68	217.29
376.06	217.23
376.44	217.16
376.82	217.13
377.19	217.11
377.57	217.05
377.95	216.94
378.33	216.90
378.71	216.74
379.09	216.75
379.47	216.72
379.84	216.66
380.22	216.59
380.60	216.54
380.98	216.48
381.36	216.48
381.73	216.38
382.11	216.37
382.49	216.36
382.87	216.33
383.25	216.27
383.62	216.49
384.00	216.41
384.38	216.38
384.76	216.43
385.13	216.45
385.51	216.42
385.89	216.37
386.27	216.36
386.64	216.34
387.02	216.31
387.40	216.26
387.78	216.26
388.15	216.26
388.53	216.20
388.91	216.17
389.29	216.10
389.66	216.11
390.04	216.08
390.42	216.07
390.79	216.05
391.17	216.04
391.55	215.79
391.92	215.80
392.30	215.81
392.68	215.74
393.05	215.72
393.43	215.73
393.81	215.77
394.18	215.75
394.56	215.76
394.94	215.78
395.31	215.78
395.69	215.84
396.06	215.86
396.44	215.89
396.82	215.93
397.19	216.06
397.57	216.03
397.95	216.09
398.32	216.05
398.70	216.10
399.07	216.15
399.45	216.17
399.82	216.21
400.20	216.23
400.58	216.27
400.95	216.24
401.33	216.33
401.70	216.54
402.08	216.65
402.45	216.75
402.83	216.88
403.20	217.01
403.58	217.08
403.95	217.25
404.33	217.39
404.71	217.52
405.08	217.76
405.46	217.96
405.83	218.13
406.21	218.37
406.58	218.57
406.96	218.80
407.33	219.08
407.70	219.35
408.08	219.82
408.45	220.17
408.83	220.56
409.20	220.90
409.58	221.13
409.95	221.58
410.33	222.05
410.70	222.50
411.08	223.05
411.45	223.61
411.82	224.17
412.20	224.86
412.57	225.68
412.95	226.21
413.32	227.01
413.69	227.84
414.07	228.70
414.44	229.69
414.82	230.65
415.19	231.80
415.56	233.00
415.94	234.12
416.31	235.49
416.68	236.79
417.06	238.35
417.43	239.84
417.81	241.48
418.18	243.19
418.55	245.01
418.93	246.91
419.30	248.96
419.67	251.08
420.04	253.29
420.42	255.59
420.79	258.35
421.16	261.06
421.54	263.89
421.91	266.79
422.28	269.79
422.66	273.01
423.03	276.15
423.40	279.40
423.77	282.90
424.15	286.44
424.52	290.18
424.89	294.21
425.26	298.17
425.64	301.96
426.01	306.06
426.38	310.38
426.75	314.81
427.13	319.34
427.50	324.13
427.87	329.15
428.24	334.13
428.61	338.93
428.99	344.30
429.36	350.08
429.73	355.78
430.10	361.46
430.47	367.32
430.85	373.41
431.22	379.87
431.59	386.74
431.96	393.32
432.33	400.55
432.70	407.54
433.08	415.79
433.45	423.51
433.82	431.29
434.19	439.86
434.56	448.21
434.93	456.28
435.30	464.35
435.68	473.11
436.05	481.84
436.42	490.49
436.79	498.24
437.16	506.73
437.53	515.67
437.90	524.48
438.27	533.06
438.64	541.88
439.01	550.08
439.38	557.41
439.75	564.48
440.13	572.62
440.50	580.27
440.87	586.43
441.24	592.86
441.61	599.86
441.98	605.00
442.35	611.09
442.72	617.21
443.09	622.99
443.46	626.53
443.83	628.85
444.20	630.92
444.57	633.96
444.94	635.26
445.31	636.62
445.68	637.97
446.05	638.58
446.42	637.86
446.79	636.92
447.16	635.78
447.53	635.04
447.90	631.81
448.27	628.65
448.64	624.18
449.01	620.99
449.37	615.35
449.74	609.92
450.11	603.37
450.48	596.23
450.85	589.04
451.22	582.83
451.59	576.94
451.96	571.26
452.33	563.72
452.70	556.91
453.07	548.78
453.43	540.48
453.80	532.45
454.17	524.80
454.54	517.55
454.91	509.72
455.28	502.05
455.65	494.90
456.02	487.66
456.38	481.63
456.75	474.05
457.12	467.72
457.49	461.49
457.86	455.47
458.23	450.29
458.59	444.57
458.96	438.82
459.33	433.75
459.70	428.62
460.07	424.55
460.43	419.80
460.80	415.36
461.17	411.48
461.54	407.47
461.91	403.58
462.27	399.60
462.64	396.28
463.01	392.59
463.38	389.02
463.74	385.47
464.11	382.26
464.48	379.54
464.85	376.53
465.21	374.16
465.58	371.62
465.95	368.58
466.32	366.06
466.68	363.58
467.05	361.08
467.42	358.63
467.78	356.02
468.15	353.61
468.52	351.82
468.88	349.44
469.25	347.36
469.62	345.61
469.98	343.78
470.35	342.04
470.72	340.44
471.08	338.76
471.45	337.34
471.82	335.89
472.18	334.30
472.55	333.21
472.92	331.90
473.28	330.77
473.65	329.67
474.02	328.62
474.38	327.76
474.75	327.08
475.11	326.32
475.48	325.78
475.85	325.33
476.21	324.83
476.58	324.52
476.94	324.31
477.31	324.04
477.67	323.81
478.04	323.71
478.41	323.71
478.77	323.88
479.14	323.82
479.50	323.96
479.87	324.22
480.23	324.53
480.60	324.82
480.96	325.13
481.33	325.76
481.69	326.35
482.06	326.91
482.42	327.35
482.79	327.93
483.15	328.75
483.52	329.72
483.88	330.67
484.25	331.58
484.61	332.63
484.98	333.71
485.34	335.02
485.71	336.40
486.07	337.82
486.44	339.16
486.80	340.79
487.17	342.49
487.53	344.38
487.90	346.32
488.26	348.31
488.62	350.49
488.99	352.53
489.35	354.69
489.72	357.06
490.08	359.61
490.44	362.17
490.81	364.90
491.17	367.62
491.54	370.51
491.90	373.53
492.26	376.74
492.63	380.15
492.99	383.63
493.36	387.26
493.72	391.09
494.08	395.07
494.45	399.30
494.81	403.63
495.17	408.05
495.54	412.68
495.90	417.50
496.26	422.39
496.63	427.58
496.99	432.94
497.35	438.47
497.72	444.31
498.08	450.21
498.44	456.22
498.80	462.63
499.17	469.14
499.53	475.82
499.89	482.70
500.26	489.59
500.62	496.66
500.98	504.02
501.34	511.51
501.71	519.22
502.07	526.97
502.43	534.90
502.79	542.95
503.16	551.28
503.52	559.80
503.88	568.40
504.24	577.27
504.60	586.27
504.97	595.44
505.33	604.66
505.69	614.47
506.05	624.34
506.41	634.07
506.78	644.10
507.14	654.36
507.50	664.69
507.86	675.32
508.22	685.98
508.59	696.61
508.95	707.62
509.31	718.80
509.67	730.14
510.03	741.49
510.39	753.20
510.75	765.00
511.12	776.79
511.48	788.87
511.84	801.07
512.20	813.41
512.56	825.98
512.92	838.67
513.28	851.22
513.64	863.84
514.00	876.52
514.37	889.29
514.73	902.25
515.09	915.07
515.45	927.87
515.81	940.73
516.17	953.94
516.53	966.93
516.89	979.84
517.25	992.85
517.61	1006.19
517.97	1019.32
518.33	1032.22
518.69	1045.67
519.05	1059.22
519.41	1072.72
519.77	1086.39
520.13	1099.53
520.49	1112.50
520.85	1125.68
521.21	1138.76
521.57	1152.34
521.93	1165.29
522.29	1178.76
522.65	1192.17
523.01	1205.53
523.37	1218.47
523.73	1231.53
524.09	1244.42
524.45	1257.59
524.81	1270.86
525.17	1284.02
525.53	1296.96
525.89	1310.05
526.25	1322.82
526.61	1335.26
526.97	1348.00
527.33	1360.41
527.68	1373.57
528.04	1386.70
528.40	1399.46
528.76	1412.45
529.12	1425.02
529.48	1437.93
529.84	1449.95
530.20	1462.52
530.56	1474.79
530.91	1487.79
531.27	1500.36
531.63	1512.91
531.99	1525.48
532.35	1537.28
532.71	1549.35
533.07	1561.89
533.42	1573.80
533.78	1585.68
534.14	1597.58
534.50	1608.47
534.86	1619.80
535.21	1630.36
535.57	1641.57
535.93	1652.69
536.29	1663.60
536.65	1674.66
537.00	1685.44
537.36	1696.49
537.72	1707.09
538.08	1718.20
538.44	1728.77
538.79	1739.49
539.15	1749.97
539.51	1760.32
539.87	1771.38
540.22	1781.86
540.58	1792.46
540.94	1803.01
541.29	1812.91
541.65	1822.36
542.01	1832.65
542.37	1842.57
542.72	1852.36
543.08	1861.84
543.44	1871.98
543.79	1881.00
544.15	1890.22
544.51	1899.95
544.87	1909.49
545.22	1918.37
545.58	1926.96
545.94	1935.59
546.29	1943.87
546.65	1951.98
547.01	1959.96
547.36	1967.50
547.72	1974.92
548.07	1982.34
548.43	1989.90
548.79	1997.51
549.14	2005.32
549.50	2013.52
549.86	2021.05
550.21	2028.25
550.57	2035.62
550.92	2042.07
551.28	2049.30
551.64	2056.43
551.99	2063.69
552.35	2070.77
552.70	2077.44
553.06	2083.90
553.41	2089.94
553.77	2096.27
554.13	2102.49
554.48	2109.36
554.84	2116.19
555.19	2122.51
555.55	2128.82
555.90	2134.99
556.26	2141.62
556.61	2147.50
556.97	2152.12
557.32	2157.90
557.68	2164.09
558.03	2169.77
558.39	2174.83
558.74	2180.65
559.10	2186.15
559.45	2191.57
559.81	2196.86
560.16	2202.40
560.52	2208.27
560.87	2214.62
561.23	2220.51
561.58	2227.14
561.94	2232.31
562.29	2236.98
562.64	2243.24
563.00	2248.71
563.35	2254.14
563.71	2260.01
564.06	2265.60
564.42	2271.62
564.77	2276.68
565.12	2281.99
565.48	2287.17
565.83	2293.00
566.19	2298.64
566.54	2303.96
566.89	2308.58
567.25	2313.32
567.60	2319.09
567.96	2324.50
568.31	2329.18
568.66	2333.42
569.02	2337.43
569.37	2341.26
569.72	2345.73
570.08	2349.24
570.43	2352.46
570.78	2355.68
571.14	2358.27
571.49	2361.60
571.84	2365.24
572.20	2368.28
572.55	2371.31
572.90	2373.65
573.26	2376.51
573.61	2378.96
573.96	2381.34
574.31	2383.47
574.67	2385.42
575.02	2386.36
575.37	2387.62
575.72	2388.60
576.08	2390.32
576.43	2390.74
576.78	2391.53
577.13	2393.49
577.49	2394.77
577.84	2396.19
578.19	2397.78
578.54	2398.56
578.90	2399.62
579.25	2399.67
579.60	2399.79
579.95	2399.40
580.30	2399.94
580.66	2399.23
581.01	2397.71
581.36	2395.48
581.71	2394.18
582.06	2393.22
582.42	2392.45
582.77	2390.51
583.12	2388.99
583.47	2387.97
583.82	2387.47
584.17	2386.38
584.53	2384.30
584.88	2382.51
585.23	2380.70
585.58	2378.58
585.93	2376.63
586.28	2374.56
586.63	2372.28
586.98	2370.22
587.34	2368.44
587.69	2366.14
588.04	2364.47
588.39	2363.23
588.74	2360.91
589.09	2358.58
589.44	2355.67
589.79	2353.45
590.14	2351.62
590.49	2348.83
590.84	2345.05
591.19	2342.14
591.54	2338.97
591.89	2335.14
592.25	2332.05
592.60	2328.10
592.95	2324.08
593.30	2320.18
593.65	2315.83
594.00	2311.66
594.35	2308.75
594.70	2304.26
595.05	2299.78
595.40	2294.54
595.75	2288.99
596.10	2285.40
596.45	2280.55
596.80	2276.14
597.15	2270.90
597.50	2265.24
597.85	2260.53
598.19	2255.48
598.54	2249.88
598.89	2244.93
599.24	2240.47
599.59	2234.37
599.94	2228.71
600.29	2222.93
600.64	2217.11
600.99	2210.67
601.34	2205.25
601.69	2198.32
602.04	2192.02
602.39	2185.58
602.74	2179.60
603.08	2174.22
603.43	2168.01
603.78	2161.29
604.13	2154.33
604.48	2147.31
604.83	2141.20
605.18	2134.96
605.53	2127.99
605.87	2121.00
606.22	2114.27
606.57	2106.44
606.92	2098.77
607.27	2091.85
607.62	2085.32
607.96	2078.28
608.31	2071.64
608.66	2063.96
609.01	2056.57
609.36	2049.47
609.70	2041.74
610.05	2033.98
610.40	2025.72
610.75	2017.36
611.10	2009.83
611.44	2001.11
611.79	1992.55
612.14	1982.73
612.49	1972.30
612.83	1963.17
613.18	1954.05
613.53	1944.54
613.88	1935.16
614.22	1926.48
614.57	1916.70
614.92	1906.20
615.27	1896.13
615.61	1886.27
615.96	1876.62
616.31	1867.08
616.65	1857.86
617.00	1848.00
617.35	1838.47
617.70	1828.73
618.04	1818.76
618.39	1808.47
618.74	1798.71
619.08	1789.01
619.43	1780.16
619.78	1771.89
620.12	1763.15
620.47	1753.48
620.82	1743.35
621.16	1733.45
621.51	1723.48
621.85	1713.64
622.20	1703.17
622.55	1692.67
622.89	1682.86
623.24	1673.14
623.59	1663.26
623.93	1653.04
624.28	1643.45
624.62	1633.27
624.97	1623.08
625.32	1613.44
625.66	1604.82
626.01	1596.00
626.35	1586.64
626.70	1576.68
627.04	1566.56
627.39	1556.61
627.73	1547.29
628.08	1538.23
628.43	1528.66
628.77	1519.51
629.12	1510.64
629.46	1502.90
629.81	1494.44
630.15	1484.84
630.50	1475.00
630.84	1464.75
631.19	1454.82
631.53	1445.41
631.88	1435.32
632.22	1425.30
632.57	1415.84
632.91	1405.50
633.26	1395.75
633.60	1386.22
633.95	1377.02
634.29	1367.66
634.64	1358.19
634.98	1348.29
635.32	1339.05
635.67	1330.58
636.01	1321.26
636.36	1311.40
636.70	1301.84
637.05	1292.46
637.39	1283.58
637.73	1274.99
638.08	1267.26
638.42	1259.04
638.77	1250.29
639.11	1242.02
639.45	1234.11
639.80	1225.45
640.14	1216.82
640.49	1207.91
640.83	1198.99
641.17	1190.88
641.52	1182.64
641.86	1174.16
642.20	1166.33
642.55	1157.76
642.89	1148.90
643.23	1140.30
643.58	1132.24
643.92	1123.19
644.26	1114.63
644.61	1106.17
644.95	1097.47
645.29	1088.29
645.64	1079.18
645.98	1070.85
646.32	1062.97
646.66	1054.56
647.01	1046.31
647.35	1038.18
647.69	1029.82
648.04	1021.66
648.38	1012.69
648.72	1004.02
649.06	995.59
649.41	987.35
649.75	979.36
650.09	971.57
650.43	963.54
650.78	955.31
651.12	947.70
651.46	940.39
651.80	933.12
652.14	925.84
652.49	918.39
652.83	911.15
653.17	903.45
653.51	895.83
653.85	888.62
654.20	881.41
654.54	873.91
654.88	866.79
655.22	859.60
655.56	852.65
655.90	845.96
656.25	839.31
656.59	832.44
656.93	825.55
657.27	818.46
657.61	811.65
657.95	805.61
658.29	799.79
658.64	793.70
658.98	787.35
659.32	780.91
659.66	774.71
660.00	768.43
660.34	762.44
660.68	756.45
661.02	750.19
661.36	744.42
661.70	738.69
662.05	733.16
662.39	727.79
662.73	722.57
663.07	717.20
663.41	711.73
663.75	706.17
664.09	700.56
664.43	695.22
664.77	689.91
665.11	684.09
665.45	678.21
665.79	672.47
666.13	666.85
666.47	661.41
666.81	656.06
667.15	650.72
667.49	645.63
667.83	640.38
668.17	635.28
668.51	630.13
668.85	625.33
669.19	620.47
669.53	615.48
669.87	610.40
670.21	605.70
670.55	601.03
670.89	596.64
671.23	592.47
671.57	588.17
671.91	583.92
672.25	579.97
672.58	575.87
672.92	571.86
673.26	567.98
673.60	564.12
673.94	560.34
674.28	556.84
674.62	553.10
674.96	549.50
675.30	545.99
675.64	542.45
675.97	538.87
676.31	535.38
676.65	531.82
676.99	528.39
677.33	524.66
677.67	521.11
678.01	517.36
678.34	513.73
678.68	510.21
679.02	506.67
679.36	502.98
679.70	499.44
680.04	495.97
680.37	492.58
680.71	489.35
681.05	486.27
681.39	483.06
681.73	479.96
682.06	476.90
682.40	473.90
682.74	470.71
683.08	467.56
683.42	464.41
683.75	461.55
684.09	458.63
684.43	455.84
684.77	452.90
685.10	450.11
685.44	447.21
685.78	444.37
686.12	441.69
686.45	438.99
686.79	436.34
687.13	433.85
687.46	431.29
687.80	428.63
688.14	425.80
688.48	423.27
688.81	420.63
689.15	418.18
689.49	415.56
689.82	413.12
690.16	410.64
690.50	408.18
690.83	405.66
691.17	403.16
691.51	400.76
691.84	398.56
692.18	396.37
692.52	394.23
692.85	392.13
693.19	389.99
693.52	387.92
693.86	385.74
694.20	383.61
694.53	381.54
694.87	379.44
695.21	377.37
695.54	375.25
695.88	373.11
696.21	370.93
696.55	368.92
696.88	366.90
697.22	364.99
697.56	363.19
697.89	361.40
698.23	359.72
698.56	358.03
698.90	356.30
699.23	354.40
699.57	352.59
699.90	350.79
700.24	349.10
700.58	347.36
700.91	345.75
701.25	344.24
701.58	342.66
701.92	341.10
702.25	339.55
702.59	337.98
702.92	336.50
703.26	334.96
703.59	333.53
703.93	332.29
704.26	330.89
704.60	329.45
704.93	327.98
705.26	326.49
705.60	324.96
705.93	323.50
706.27	322.25
706.60	321.04
706.94	319.85
707.27	318.43
707.61	317.16
707.94	315.90
708.27	314.40
708.61	312.96
708.94	311.60
709.28	310.37
709.61	309.17
709.94	308.00
710.28	306.82
710.61	305.62
710.95	304.23
711.28	303.19
711.61	301.98
711.95	300.89
712.28	299.70
712.61	298.60
712.95	297.58
713.28	296.57
713.61	295.40
713.95	294.22
714.28	293.27
714.61	292.21
714.95	291.21
715.28	290.21
715.61	289.24
715.95	288.32
716.28	287.35
716.61	286.39
716.95	285.42
717.28	284.52
717.61	283.59
717.94	282.69
718.28	281.69
718.61	280.86
718.94	279.97
719.27	279.20
719.61	278.42
719.94	277.52
720.27	276.55
720.60	275.79
720.94	275.04
721.27	274.33
721.60	273.69
721.93	272.97
722.27	272.40
722.60	271.77
722.93	271.09
723.26	270.46
723.59	269.76
723.93	269.18
724.26	268.60
724.59	267.98
724.92	267.41
725.25	266.85
725.59	266.33
725.92	265.82
726.25	265.22
726.58	264.64
726.91	264.10
727.24	263.60
727.57	263.04
727.91	262.45
728.24	261.85
728.57	261.25
728.90	260.72
729.23	260.09
729.56	259.66
729.89	259.14
730.22	258.60
730.55	258.07
730.89	257.51
731.22	256.95
731.55	256.45
731.88	255.95
732.21	255.40
732.54	254.86
732.87	254.34
733.20	253.90
733.53	253.42
733.86	252.96
734.19	252.48
734.52	252.04
734.85	251.77
735.18	251.34
735.51	250.97
735.84	250.53
736.17	250.16
736.50	249.64
736.83	249.51
737.16	249.15
737.49	248.77
737.82	248.38
738.15	248.05
738.48	247.66
738.81	247.26
739.14	246.87
739.47	246.53
739.80	246.17
740.13	245.83
740.46	245.46
740.79	245.07
741.12	244.73
741.45	244.37
741.78	243.93
742.11	243.64
742.44	243.27
742.77	243.01
743.10	242.67
743.43	242.33
743.75	241.76
744.08	241.66
744.41	241.34
744.74	241.03
745.07	240.66
745.40	240.43
745.73	240.23
746.06	239.96
746.39	239.66
746.71	239.31
747.04	239.00
747.37	238.70
747.70	238.47
748.03	238.19
748.36	237.96
748.68	237.68
749.01	237.32
749.34	237.07
749.67	236.77
750.00	236.54
750.33	236.40
750.65	236.15
750.98	235.64
751.31	235.42
751.64	235.17
751.97	235.11
752.29	234.84
752.62	234.51
752.95	234.26
753.28	234.01
753.60	233.84
753.93	233.67
754.26	233.49
754.59	233.21
754.91	232.95
755.24	232.69
755.57	232.45
755.90	232.28
756.22	232.04
756.55	231.80
756.88	231.53
757.20	231.23
757.53	230.96
757.86	230.78
758.19	230.57
758.51	230.40
758.84	230.06
759.17	229.84
759.49	229.65
759.82	229.57
760.15	229.42
760.47	229.19
760.80	228.94
761.13	228.77
761.45	228.56
761.78	228.40
762.11	228.26
762.43	228.08
762.76	227.90
763.08	227.74
763.41	227.60
763.74	227.46
764.06	227.28
764.39	227.14
764.71	226.98
765.04	226.83
765.37	226.63
765.69	226.48
766.02	226.35
766.34	226.22
766.67	225.98
767.00	225.86
767.32	225.86
767.65	225.88
767.97	225.74
768.30	225.65
768.62	225.53
768.95	225.38
769.27	225.27
769.60	225.16
769.92	225.05
770.25	224.88
770.57	224.71
770.90	224.60
771.22	224.49
771.55	224.39
771.87	224.30
772.20	224.22
772.52	224.30
772.85	224.48
773.17	224.38
773.50	224.27
773.82	224.14
774.15	223.94
774.47	223.72
774.80	223.61
775.12	223.51
775.45	223.44
775.77	223.37
776.09	223.27
776.42	223.21
776.74	223.15
777.07	223.09
777.39	223.04
777.72	222.94
778.04	222.89
778.36	222.80
778.69	222.74
779.01	222.66
779.33	222.39
779.66	222.05
779.98	221.94
780.31	221.90
780.63	221.90
780.95	221.86
781.28	221.76
781.60	221.65
781.92	221.61
782.25	221.54
782.57	221.46
782.89	221.40
783.22	221.30
783.54	221.20
783.86	221.13
784.19	221.04
784.51	221.03
784.83	220.92
785.16	220.85
785.48	220.80
785.80	220.73
786.12	220.66
786.45	220.64
786.77	220.62
787.09	220.55
787.42	220.43
787.74	220.38
788.06	220.33
788.38	220.31
788.71	220.24
789.03	220.18
789.35	220.17
789.67	220.11
789.99	220.07
790.32	219.99
790.64	219.97
790.96	220.08
791.28	219.99
791.61	219.94
791.93	219.91
792.25	219.82
792.57	219.94
792.89	219.87
793.21	219.81
793.54	219.72
793.86	219.65
794.18	219.61
794.50	219.54
794.82	219.51
795.14	219.46
795.47	219.45
795.79	219.40
796.11	219.29
796.43	219.24
796.75	219.21
797.07	219.20
797.39	219.17
797.71	219.01
798.04	218.97
798.36	218.97
798.68	218.89
799.00	218.85
799.32	218.71
799.64	218.72
799.96	218.70
800.28	218.70
800.60	218.65
800.92	218.61
801.24	218.55
801.56	218.48
801.89	218.42
802.21	218.41
802.53	218.36
802.85	218.37
803.17	218.45
803.49	218.34
803.81	218.30
804.13	218.23
804.45	218.12
804.77	218.13
805.09	218.06
805.41	218.02
805.73	217.99
806.05	217.90
806.37	217.88
806.69	217.80
807.01	217.73
807.33	217.72
807.65	217.66
807.97	217.71
808.28	217.70
808.60	217.69
808.92	217.59
809.24	217.72
809.56	217.68
809.88	217.57
810.20	217.55
810.52	217.54
810.84	217.52
811.16	217.55
811.48	217.48
811.80	217.55
812.12	217.54
812.43	217.55
812.75	217.54
813.07	217.49
813.39	217.50
813.71	217.46
814.03	217.40
814.35	217.41
814.67	217.34
814.98	217.27
815.30	217.21
815.62	217.18
815.94	216.99
816.26	216.97
816.58	216.95
816.89	216.97
817.21	216.92
817.53	216.90
817.85	216.89
818.17	216.84
818.48	216.74
818.80	216.73
819.12	216.68
819.44	216.63
819.76	216.62
820.07	216.57
820.39	216.57
820.71	216.58
821.03	216.54
821.34	216.48
821.66	216.51
821.98	216.51
822.30	216.49
822.61	216.58
822.93	216.51
823.25	216.46
823.57	216.42
823.88	216.44
824.20	216.44
824.52	216.45
824.83	216.46
825.15	216.40
825.47	216.40
825.79	216.39
826.10	216.37
826.42	216.32
826.74	216.37
827.05	216.36
827.37	216.36
827.69	216.37
828.00	216.38
828.32	216.35
828.64	216.32
828.95	216.40
829.27	216.35
829.58	216.37
829.90	216.40
830.22	216.40
830.53	216.34
830.85	216.29
831.17	216.21
831.48	216.19
831.80	216.23
832.11	216.23
832.43	216.20
832.75	216.21
833.06	216.34
833.38	216.25
833.69	216.21
834.01	216.24
834.32	216.22
834.64	216.20
834.96	216.24
835.27	216.25
835.59	216.19
835.90	216.15
836.22	216.16
836.53	216.12
836.85	216.11
837.16	216.30
837.48	216.32
837.79	216.41
838.11	216.42
838.42	216.36
838.74	216.39
839.05	216.35
839.37	216.32
839.68	216.15
840.00	216.14
840.31	216.16
840.63	216.12
840.94	216.11
841.26	216.08
841.57	216.05
841.88	216.07
842.20	216.01
842.51	216.00
842.83	215.95
843.14	216.11
843.46	216.08
843.77	215.97
844.08	215.92
844.40	215.84
844.71	215.80
845.03	215.81
845.34	215.77
845.65	215.79
845.97	215.79
846.28	215.83
846.60	215.83
846.91	215.82
847.22	215.78
847.54	215.78
847.85	215.76
848.16	215.74
848.48	215.64
848.79	215.76
849.10	215.78
849.42	215.82
849.73	215.65
850.04	215.68
850.36	215.58
850.67	215.63
850.98	215.62
851.30	215.66
851.61	215.63
851.92	215.59
852.23	215.62
852.55	215.63
852.86	215.61
853.17	215.64
853.49	215.69
853.80	215.73
854.11	215.74
854.42	215.80
854.74	215.77
855.05	215.83
855.36	215.69
855.67	215.67
855.99	215.66
856.30	215.89
856.61	215.83
856.92	215.85
857.23	215.83
857.55	215.80
857.86	215.76
858.17	215.83
858.48	215.81
858.79	215.78
859.11	215.79
859.42	215.79
859.73	215.73
860.04	215.70
860.35	215.64
860.66	215.58
860.98	215.56
861.29	215.61
861.60	215.59
861.91	215.65
862.22	215.63
862.53	215.59
862.84	215.35
863.16	215.44
863.47	215.38
863.78	215.36
864.09	215.35
864.40	215.38
864.71	215.36
865.02	215.40
865.33	215.36
865.64	215.35
865.95	215.35
866.27	215.50
866.58	215.48
866.89	215.51
867.20	215.53
867.51	215.48
867.82	215.46
868.13	215.51
868.44	215.45
868.75	215.51
869.06	215.55
869.37	215.57
869.68	215.49
869.99	215.57
870.30	215.59
870.61	215.63
870.92	215.59
871.23	215.59
871.54	215.58
871.85	215.64
872.16	215.62
872.47	215.60
872.78	215.45
873.09	215.49
873.40	215.46
873.71	215.49
874.02	215.46
874.33	215.41
874.64	215.37
874.95	215.41
875.26	215.35
875.56	215.36
875.87	215.33
876.18	215.30
876.49	215.45
876.80	215.45
877.11	215.42
877.42	215.40
877.73	215.39
878.04	215.38
878.35	215.39
878.66	215.39
878.96	215.38
879.27	215.34
879.58	215.30
879.89	215.29
880.20	215.31
880.51	215.35
880.82	215.39
881.12	215.38
881.43	215.34
881.74	215.31
882.05	215.26
882.36	215.28
882.67	215.32
882.97	215.08
883.28	215.04
883.59	215.03
883.90	215.05
884.21	215.05
884.51	215.02
884.82	214.95
885.13	214.98
885.44	214.98
885.74	215.04
886.05	215.02
886.36	215.00
886.67	214.94
886.98	215.02
887.28	215.01
887.59	215.00
887.90	214.99
888.20	214.98
888.51	215.05
888.82	215.00
889.13	215.00
889.43	215.18
889.74	215.18
890.05	215.18
890.35	215.16
890.66	215.13
890.97	215.14
891.28	215.10
891.58	215.10
891.89	215.11
892.20	215.11
892.50	215.11
892.81	215.10
893.12	215.10
893.42	215.04
893.73	215.03
894.04	215.04
894.34	215.09
894.65	215.04
894.95	214.98
895.26	214.96
895.57	215.05
895.87	214.86
896.18	214.88
896.48	214.88
896.79	214.87
897.10	214.90
897.40	214.89
897.71	214.94
898.01	214.92
898.32	214.89
898.63	214.84
898.93	214.86
899.24	214.87
899.54	214.86
899.85	214.85
900.15	214.84
900.46	214.83
900.76	214.81
901.07	214.86
901.38	214.86
901.68	214.91
901.99	214.83
902.29	214.82
902.60	214.80
902.90	214.82
903.21	214.83
903.51	214.79
903.82	214.86
904.12	214.86
904.43	214.88
904.73	214.92
905.03	214.94
905.34	215.11
905.64	215.12
905.95	215.11
906.25	215.12
906.56	215.13
906.86	215.15
907.17	215.19
907.47	215.17
907.77	215.13
908.08	215.09
908.38	215.11
908.69	215.14
908.99	215.21
909.30	215.22
909.60	215.20
909.90	215.22
910.21	215.17
910.51	215.14
910.81	215.12
911.12	215.15
911.42	215.16
911.73	214.99
912.03	215.03
912.33	215.04
912.64	215.00
912.94	214.99
913.24	214.96
913.55	214.93
913.85	214.94
914.15	215.01
914.46	215.07
914.76	215.02
915.06	215.03
915.37	214.95
915.67	214.94
915.97	214.96
916.27	214.92
916.58	214.91
916.88	214.92
917.18	214.92
917.49	215.02
917.79	215.00
918.09	215.02
918.39	215.04
918.70	215.03
919.00	215.06
919.30	215.14
919.60	215.13
919.91	215.10
920.21	215.09
920.51	215.02
920.81	214.99
921.12	215.04
921.42	215.00
921.72	215.03
922.02	215.00
922.32	215.03
922.63	215.05
922.93	215.14
923.23	215.14
923.53	215.09
923.83	214.97
924.13	214.98
924.44	214.98
924.74	215.02
925.04	215.09
925.34	215.05
925.64	214.99
925.94	214.99
926.24	215.09
926.55	215.07
926.85	215.13
927.15	215.13
927.45	215.11
927.75	215.13
928.05	215.12
928.35	215.13
928.65	215.17
928.95	215.17
929.26	215.10
929.56	215.14
929.86	215.17
930.16	215.15
930.46	215.13
930.76	215.13
931.06	215.04
931.36	214.97
931.66	215.03
931.96	215.05
932.26	215.07
932.56	214.97
932.86	214.98
933.16	214.96
933.46	214.95
933.76	214.91
934.06	214.95
934.36	215.01
934.66	214.99
934.96	214.94
935.26	214.94
935.56	214.96
935.86	214.87
936.16	214.85
936.46	214.83
936.76	214.83
937.06	214.79
937.36	214.77
937.66	214.77
937.96	214.73
938.26	214.69
938.56	214.68
938.86	214.72
939.16	214.78
939.46	214.79
939.76	214.80
940.06	214.85
940.35	214.79
940.65	214.71
940.95	214.74
941.25	214.68
941.55	214.67
941.85	214.64
942.15	214.74
942.45	214.82
942.75	214.82
943.04	214.84
943.34	214.87
943.64	214.85
943.94	214.84
944.24	214.84
944.54	214.84
944.84	214.80
945.13	214.80
945.43	214.75
945.73	214.74
946.03	214.73
946.33	214.70
946.62	214.66
946.92	214.66
947.22	214.70
947.52	214.73
947.82	214.77
948.11	214.76
948.41	214.67
948.71	214.62
949.01	214.66
949.31	214.61
949.60	214.59
949.90	214.61
950.20	214.59
950.50	214.58
950.79	214.57
951.09	214.62
951.39	214.56
951.69	214.52
951.98	214.57
952.28	214.59
952.58	214.58
952.87	214.60
953.17	214.65
953.47	214.63
953.76	214.63
954.06	214.60
954.36	214.59
954.66	214.64
954.95	214.71
955.25	214.70
955.55	214.71
955.84	214.70
956.14	214.75
956.44	214.78
956.73	214.80
957.03	214.79
957.32	214.77
957.62	214.79
957.92	214.86
958.21	214.80
958.51	215.05
958.81	215.07
959.10	215.12
959.40	215.14
959.69	215.12
959.99	215.15
960.29	215.18
960.58	215.13
960.88	215.20
961.17	215.18
961.47	215.19
961.76	215.19
962.06	215.25
962.36	215.21
962.65	215.24
962.95	215.25
963.24	215.25
963.54	215.27
963.83	215.28
964.13	215.25
964.42	215.24
964.72	215.05
965.01	215.05
965.31	215.02
965.60	214.98
965.90	215.15
966.19	215.07
966.49	215.09
966.78	215.07
967.08	215.03
967.37	215.02
967.67	214.99
967.96	215.03
968.26	214.98
968.55	215.02
968.85	214.96
969.14	214.96
969.43	214.94
969.73	214.92
970.02	214.92
970.32	214.90
970.61	214.88
970.91	214.81
971.20	214.78
971.49	214.76
971.79	214.77
972.08	214.58
972.38	214.60
972.67	214.58
972.96	214.65
973.26	214.63
973.55	214.67
973.85	214.65
974.14	214.63
974.43	214.67
974.73	214.61
975.02	214.62
975.31	214.64
975.61	214.65
975.90	214.63
976.19	214.62
976.49	214.63
976.78	214.67
977.07	214.64
977.37	214.67
977.66	214.67
977.95	214.65
978.24	214.69
978.54	214.75
978.83	214.71
979.12	214.66
979.42	214.65
979.71	214.61
980.00	214.57
980.29	214.57
980.59	214.51
980.88	214.55
981.17	214.53
981.46	214.50
981.76	214.49
982.05	214.56
982.34	214.58
982.63	214.58
982.93	214.55
983.22	214.63
983.51	214.64
983.80	214.70
984.09	214.75
984.39	214.76
984.68	214.71
984.97	214.71
985.26	214.70
985.55	214.73
985.85	214.68
986.14	214.74
986.43	214.79
986.72	214.79
987.01	214.72
987.30	214.72
987.59	214.71
987.89	214.71
988.18	214.64
988.47	214.61
988.76	214.61
989.05	214.59
989.34	214.55
989.63	214.59
989.92	214.51
990.22	214.46
990.51	214.43
990.80	214.45
991.09	214.50
991.38	214.52
991.67	214.48
991.96	214.47
992.25	214.46
992.54	214.40
992.83	214.38
993.12	214.39
993.41	214.42
993.70	214.51
993.99	214.59
994.28	214.61
994.58	214.65
994.87	214.60
995.16	214.59
995.45	214.56
995.74	214.48
996.03	214.54
996.32	214.55
996.61	214.60
996.90	214.58
997.19	214.55
997.48	214.56
997.77	214.55
998.06	214.57
998.34	214.56
998.63	214.56
998.92	214.58
999.21	214.64
999.50	214.67
999.79	214.57
1000.08	214.55
1000.37	214.56
1000.66	214.52
1000.95	214.61
1001.24	214.66
1001.53	214.71
1001.82	214.73
1002.11	214.69
1002.40	214.73
1002.68	214.75
1002.97	214.91
1003.26	214.88
1003.55	214.87
1003.84	214.89
1004.13	214.94
1004.42	214.91
1004.71	214.92
1004.99	214.90
1005.28	214.93
1005.57	214.89
1005.86	214.91
1006.15	214.91
1006.44	214.89
1006.72	214.95
1007.01	214.89
1007.30	214.90
1007.59	214.89
1007.88	214.86
1008.17	214.87
1008.45	214.83
1008.74	214.76
1009.03	214.66
1009.32	214.66
1009.60	214.65
1009.89	214.63
1010.18	214.55
1010.47	214.54
1010.76	214.53
1011.04	214.55
1011.33	214.55
1011.62	214.55
1011.91	214.55
1012.19	214.55
1012.48	214.56
1012.77	214.54
1013.05	214.66
1013.34	214.65
1013.63	214.63
1013.92	214.63
1014.20	214.63
1014.49	214.62
1014.78	214.64
1015.06	214.56
1015.35	214.61
1015.64	214.64
1015.92	214.68
1016.21	214.72
1016.50	214.74
1016.78	214.76
1017.07	214.78
1017.36	214.71
1017.64	214.71
1017.93	214.75
1018.22	214.69
1018.50	214.69
1018.79	214.69
1019.08	214.57
1019.36	214.57
1019.65	214.55
1019.93	214.60
1020.22	214.61
1020.51	214.74
1020.79	214.72
1021.08	213.89
1021.36	214.80
1021.65	214.70
1021.94	214.52
1022.22	214.69
1022.51	214.15
1022.79	215.25
1023.08	214.62
1023.36	217.21
1023.65	214.14
>>>>>End Processed Spectral Data<<<<<
