SpectraSuite Data File
++++++++++++++++++++++++++++++++++++
Date: Tue Jan 29 16:44:37 EST 2013
User: group
Dark Spectrum Present: No
Reference Spectrum Present: No
Number of Sampled Component Spectra: 1
Spectrometers: USB2E7196
Integration Time (usec): 65000 (USB2E7196)
Spectra Averaged: 100 (USB2E7196)
Boxcar Smoothing: 10 (USB2E7196)
Correct for Electrical Dark: No (USB2E7196)
Strobe/Lamp Enabled: No (USB2E7196)
Correct for Detector Non-linearity: No (USB2E7196)
Correct for Stray Light: No (USB2E7196)
Number of Pixels in Processed Spectrum: 2048
>>>>>Begin Processed Spectral Data<<<<<
339.09	0.00
339.48	201.27
339.86	203.13
340.24	204.30
340.63	205.91
341.01	210.43
341.39	208.83
341.78	209.88
342.16	212.10
342.54	212.22
342.93	200.96
343.31	211.12
343.69	211.69
344.07	212.13
344.46	212.58
344.84	212.96
345.22	213.15
345.60	213.45
345.99	213.68
346.37	213.80
346.75	213.87
347.13	213.94
347.52	214.03
347.90	214.19
348.28	214.23
348.66	214.32
349.05	214.30
349.43	214.35
349.81	214.38
350.19	214.42
350.57	214.55
350.96	214.61
351.34	214.71
351.72	214.82
352.10	214.95
352.48	215.04
352.87	215.10
353.25	215.16
353.63	215.22
354.01	215.28
354.39	215.34
354.77	215.44
355.15	215.59
355.54	215.63
355.92	215.63
356.30	215.69
356.68	215.90
357.06	216.00
357.44	216.05
357.82	216.15
358.20	216.24
358.58	216.27
358.97	216.36
359.35	216.45
359.73	216.53
360.11	216.62
360.49	216.68
360.87	216.75
361.25	216.82
361.63	216.92
362.01	216.94
362.39	216.96
362.77	217.04
363.15	217.07
363.53	217.11
363.91	217.15
364.29	217.17
364.67	216.98
365.05	216.99
365.43	217.06
365.81	217.10
366.19	217.20
366.57	217.29
366.95	217.25
367.33	217.20
367.71	217.21
368.09	217.22
368.47	217.23
368.85	217.22
369.23	217.26
369.61	217.15
369.99	217.22
370.37	217.22
370.75	217.29
371.13	217.22
371.51	217.15
371.89	217.12
372.27	217.11
372.65	217.09
373.03	217.05
373.41	216.99
373.78	216.92
374.16	216.76
374.54	216.64
374.92	216.61
375.30	216.57
375.68	216.48
376.06	216.46
376.44	216.36
376.82	216.31
377.19	216.25
377.57	216.22
377.95	216.11
378.33	216.07
378.71	215.90
379.09	215.88
379.47	215.88
379.84	215.81
380.22	215.73
380.60	215.66
380.98	215.62
381.36	215.55
381.73	215.47
382.11	215.47
382.49	215.44
382.87	215.36
383.25	215.32
383.62	215.53
384.00	215.44
384.38	215.42
384.76	215.46
385.13	215.47
385.51	215.42
385.89	215.36
386.27	215.32
386.64	215.30
387.02	215.26
387.40	215.21
387.78	215.20
388.15	215.21
388.53	215.20
388.91	215.18
389.29	215.15
389.66	215.20
390.04	215.14
390.42	215.16
390.79	215.16
391.17	215.16
391.55	214.91
391.92	214.91
392.30	214.93
392.68	214.85
393.05	214.83
393.43	214.85
393.81	214.85
394.18	214.80
394.56	214.80
394.94	214.83
395.31	214.81
395.69	214.88
396.06	214.90
396.44	214.93
396.82	214.91
397.19	215.03
397.57	215.02
397.95	215.09
398.32	215.05
398.70	215.14
399.07	215.23
399.45	215.26
399.82	215.32
400.20	215.35
400.58	215.38
400.95	215.38
401.33	215.49
401.70	215.71
402.08	215.84
402.45	215.94
402.83	216.09
403.20	216.22
403.58	216.28
403.95	216.45
404.33	216.63
404.71	216.79
405.08	217.06
405.46	217.26
405.83	217.48
406.21	217.72
406.58	217.91
406.96	218.12
407.33	218.42
407.70	218.70
408.08	219.13
408.45	219.52
408.83	219.92
409.20	220.28
409.58	220.55
409.95	221.02
410.33	221.46
410.70	221.88
411.08	222.43
411.45	223.04
411.82	223.60
412.20	224.24
412.57	225.08
412.95	225.64
413.32	226.46
413.69	227.30
414.07	228.19
414.44	229.22
414.82	230.27
415.19	231.43
415.56	232.63
415.94	233.85
416.31	235.28
416.68	236.69
417.06	238.30
417.43	239.89
417.81	241.65
418.18	243.45
418.55	245.41
418.93	247.44
419.30	249.55
419.67	251.78
420.04	254.07
420.42	256.45
420.79	259.27
421.16	262.07
421.54	264.96
421.91	267.99
422.28	271.06
422.66	274.39
423.03	277.65
423.40	281.08
423.77	284.70
424.15	288.37
424.52	292.22
424.89	296.41
425.26	300.45
425.64	304.37
426.01	308.70
426.38	313.17
426.75	317.73
427.13	322.47
427.50	327.48
427.87	332.67
428.24	337.88
428.61	342.91
428.99	348.41
429.36	354.52
429.73	360.40
430.10	366.35
430.47	372.39
430.85	378.71
431.22	385.39
431.59	392.56
431.96	399.39
432.33	406.96
432.70	414.27
433.08	422.85
433.45	430.93
433.82	438.95
434.19	447.89
434.56	456.68
434.93	465.02
435.30	473.37
435.68	482.57
436.05	491.67
436.42	500.59
436.79	508.78
437.16	517.50
437.53	526.82
437.90	535.93
438.27	544.93
438.64	554.16
439.01	562.71
439.38	570.24
439.75	577.62
440.13	586.03
440.50	593.97
440.87	600.45
441.24	607.17
441.61	614.59
441.98	619.98
442.35	626.34
442.72	632.77
443.09	638.79
443.46	642.56
443.83	645.07
444.20	647.28
444.57	650.50
444.94	651.94
445.31	653.46
445.68	654.89
446.05	655.54
446.42	654.80
446.79	653.85
447.16	652.87
447.53	652.03
447.90	648.70
448.27	645.43
448.64	640.70
449.01	637.37
449.37	631.46
449.74	625.78
450.11	618.80
450.48	611.38
450.85	603.93
451.22	597.45
451.59	591.30
451.96	585.46
452.33	577.54
452.70	570.45
453.07	561.88
453.43	553.28
453.80	544.96
454.17	536.94
454.54	529.35
454.91	521.08
455.28	513.07
455.65	505.60
456.02	498.02
456.38	491.72
456.75	483.76
457.12	477.17
457.49	470.62
457.86	464.38
458.23	458.96
458.59	452.96
458.96	446.89
459.33	441.56
459.70	436.17
460.07	431.89
460.43	426.98
460.80	422.39
461.17	418.30
461.54	414.10
461.91	410.07
462.27	405.95
462.64	402.51
463.01	398.77
463.38	395.08
463.74	391.41
464.11	388.15
464.48	385.33
464.85	382.20
465.21	379.76
465.58	377.14
465.95	373.91
466.32	371.31
466.68	368.71
467.05	366.09
467.42	363.51
467.78	360.82
468.15	358.22
468.52	356.33
468.88	353.86
469.25	351.58
469.62	349.75
469.98	347.79
470.35	345.98
470.72	344.23
471.08	342.39
471.45	340.87
471.82	339.29
472.18	337.58
472.55	336.35
472.92	334.93
473.28	333.72
473.65	332.65
474.02	331.52
474.38	330.60
474.75	329.83
475.11	328.99
475.48	328.40
475.85	327.96
476.21	327.44
476.58	327.05
476.94	326.80
477.31	326.48
477.67	326.24
478.04	326.07
478.41	326.07
478.77	326.24
479.14	326.16
479.50	326.28
479.87	326.56
480.23	326.86
480.60	327.11
480.96	327.39
481.33	327.92
481.69	328.45
482.06	329.01
482.42	329.51
482.79	330.15
483.15	330.92
483.52	331.89
483.88	332.76
484.25	333.74
484.61	334.75
484.98	335.79
485.34	337.09
485.71	338.43
486.07	339.86
486.44	341.14
486.80	342.76
487.17	344.46
487.53	346.28
487.90	348.13
488.26	350.15
488.62	352.24
488.99	354.29
489.35	356.50
489.72	358.86
490.08	361.34
490.44	363.88
490.81	366.63
491.17	369.26
491.54	372.23
491.90	375.24
492.26	378.53
492.63	381.99
492.99	385.46
493.36	389.15
493.72	392.97
494.08	397.00
494.45	401.24
494.81	405.60
495.17	410.04
495.54	414.80
495.90	419.63
496.26	424.56
496.63	429.81
496.99	435.20
497.35	440.78
497.72	446.67
498.08	452.63
498.44	458.74
498.80	465.19
499.17	471.72
499.53	478.44
499.89	485.32
500.26	492.26
500.62	499.36
500.98	506.75
501.34	514.23
501.71	522.03
502.07	529.77
502.43	537.74
502.79	545.87
503.16	554.22
503.52	562.84
503.88	571.62
504.24	580.56
504.60	589.65
504.97	598.93
505.33	608.18
505.69	617.97
506.05	627.79
506.41	637.66
506.78	647.73
507.14	657.95
507.50	668.36
507.86	679.08
508.22	689.83
508.59	700.48
508.95	711.62
509.31	722.88
509.67	734.40
510.03	745.81
510.39	757.55
510.75	769.30
511.12	781.18
511.48	793.23
511.84	805.46
512.20	817.74
512.56	830.36
512.92	843.20
513.28	855.84
513.64	868.67
514.00	881.45
514.37	894.41
514.73	907.50
515.09	920.53
515.45	933.53
515.81	946.53
516.17	960.04
516.53	973.22
516.89	986.33
517.25	999.54
517.61	1013.13
517.97	1026.57
518.33	1039.91
518.69	1053.53
519.05	1067.46
519.41	1081.22
519.77	1095.16
520.13	1108.53
520.49	1121.74
520.85	1135.26
521.21	1148.63
521.57	1162.38
521.93	1175.41
522.29	1189.26
522.65	1202.88
523.01	1216.50
523.37	1229.82
523.73	1243.13
524.09	1256.33
524.45	1269.88
524.81	1283.46
525.17	1296.92
525.53	1310.23
525.89	1323.52
526.25	1336.74
526.61	1349.55
526.97	1362.73
527.33	1375.76
527.68	1389.32
528.04	1402.84
528.40	1416.05
528.76	1429.50
529.12	1442.46
529.48	1456.07
529.84	1468.41
530.20	1481.28
530.56	1493.95
530.91	1507.24
531.27	1520.16
531.63	1533.09
531.99	1545.92
532.35	1558.24
532.71	1570.69
533.07	1583.58
533.42	1596.05
533.78	1608.13
534.14	1620.28
534.50	1631.50
534.86	1643.15
535.21	1654.04
535.57	1665.68
535.93	1676.96
536.29	1688.11
536.65	1699.70
537.00	1710.68
537.36	1722.17
537.72	1733.38
538.08	1744.96
538.44	1756.09
538.79	1767.28
539.15	1778.36
539.51	1789.21
539.87	1800.62
540.22	1811.49
540.58	1822.59
540.94	1833.50
541.29	1843.95
541.65	1853.82
542.01	1864.38
542.37	1874.51
542.72	1884.67
543.08	1894.42
543.44	1905.03
543.79	1914.39
544.15	1924.05
544.51	1934.02
544.87	1943.86
545.22	1953.16
545.58	1962.04
545.94	1971.05
546.29	1979.63
546.65	1988.00
547.01	1996.33
547.36	2004.02
547.72	2011.89
548.07	2019.38
548.43	2027.21
548.79	2035.21
549.14	2043.42
549.50	2052.09
549.86	2060.23
550.21	2067.85
550.57	2075.72
550.92	2082.57
551.28	2090.13
551.64	2097.26
551.99	2104.89
552.35	2112.29
552.70	2119.12
553.06	2125.67
553.41	2131.98
553.77	2138.57
554.13	2145.02
554.48	2151.98
554.84	2159.23
555.19	2165.76
555.55	2172.30
555.90	2178.64
556.26	2185.51
556.61	2191.54
556.97	2196.29
557.32	2201.82
557.68	2208.22
558.03	2213.98
558.39	2219.34
558.74	2225.33
559.10	2230.95
559.45	2236.44
559.81	2241.87
560.16	2247.42
560.52	2253.50
560.87	2259.89
561.23	2265.77
561.58	2272.45
561.94	2277.66
562.29	2282.20
562.64	2288.34
563.00	2294.03
563.35	2299.52
563.71	2305.06
564.06	2310.73
564.42	2316.68
564.77	2321.89
565.12	2327.05
565.48	2332.02
565.83	2337.48
566.19	2342.83
566.54	2348.03
566.89	2352.66
567.25	2357.17
567.60	2362.73
567.96	2367.66
568.31	2372.14
568.66	2376.29
569.02	2380.10
569.37	2383.79
569.72	2388.25
570.08	2391.55
570.43	2394.64
570.78	2397.54
571.14	2400.01
571.49	2403.05
571.84	2406.47
572.20	2409.26
572.55	2412.10
572.90	2414.26
573.26	2416.92
573.61	2419.26
573.96	2421.50
574.31	2423.39
574.67	2425.23
575.02	2425.97
575.37	2427.43
575.72	2427.86
576.08	2429.16
576.43	2429.08
576.78	2429.49
577.13	2430.79
577.49	2431.92
577.84	2432.84
578.19	2434.08
578.54	2434.51
578.90	2435.04
579.25	2434.74
579.60	2434.52
579.95	2433.56
580.30	2433.57
580.66	2432.67
581.01	2430.88
581.36	2428.22
581.71	2426.68
582.06	2425.42
582.42	2424.27
582.77	2421.81
583.12	2420.13
583.47	2418.57
583.82	2417.82
584.17	2416.29
584.53	2414.05
584.88	2411.75
585.23	2409.51
585.58	2407.07
585.93	2404.93
586.28	2402.60
586.63	2399.92
586.98	2397.56
587.34	2395.59
587.69	2393.08
588.04	2390.87
588.39	2389.29
588.74	2386.86
589.09	2383.98
589.44	2380.63
589.79	2378.09
590.14	2376.03
590.49	2373.04
590.84	2369.16
591.19	2365.90
591.54	2362.60
591.89	2358.48
592.25	2355.11
592.60	2350.91
592.95	2346.56
593.30	2342.28
593.65	2337.77
594.00	2333.26
594.35	2330.08
594.70	2325.34
595.05	2320.73
595.40	2315.23
595.75	2309.34
596.10	2305.62
596.45	2300.68
596.80	2295.98
597.15	2290.79
597.50	2284.86
597.85	2279.91
598.19	2274.52
598.54	2268.71
598.89	2263.36
599.24	2258.66
599.59	2252.41
599.94	2246.50
600.29	2240.74
600.64	2234.83
600.99	2227.85
601.34	2222.35
601.69	2215.41
602.04	2208.96
602.39	2202.14
602.74	2195.94
603.08	2190.38
603.43	2183.80
603.78	2176.93
604.13	2169.93
604.48	2162.56
604.83	2156.35
605.18	2150.10
605.53	2143.32
605.87	2136.25
606.22	2129.54
606.57	2121.68
606.92	2113.72
607.27	2106.79
607.62	2099.87
607.96	2092.75
608.31	2086.63
608.66	2079.01
609.01	2071.39
609.36	2064.15
609.70	2056.49
610.05	2048.86
610.40	2040.55
610.75	2032.17
611.10	2024.40
611.44	2015.39
611.79	2006.71
612.14	1996.78
612.49	1986.11
612.83	1976.65
613.18	1967.44
613.53	1958.11
613.88	1948.55
614.22	1939.90
614.57	1930.03
614.92	1919.58
615.27	1909.42
615.61	1899.08
615.96	1889.35
616.31	1879.71
616.65	1870.43
617.00	1860.79
617.35	1851.07
617.70	1841.40
618.04	1831.38
618.39	1821.18
618.74	1811.66
619.08	1801.97
619.43	1793.13
619.78	1784.91
620.12	1776.41
620.47	1766.82
620.82	1756.56
621.16	1746.71
621.51	1736.90
621.85	1727.07
622.20	1716.69
622.55	1706.12
622.89	1696.25
623.24	1686.57
623.59	1676.80
623.93	1666.60
624.28	1656.77
624.62	1646.89
624.97	1636.71
625.32	1627.00
625.66	1618.16
626.01	1609.51
626.35	1600.23
626.70	1590.32
627.04	1580.24
627.39	1570.10
627.73	1560.95
628.08	1552.01
628.43	1542.58
628.77	1533.52
629.12	1524.78
629.46	1517.12
629.81	1508.99
630.15	1499.71
630.50	1489.92
630.84	1479.54
631.19	1469.83
631.53	1460.68
631.88	1450.37
632.22	1440.39
632.57	1431.07
632.91	1421.16
633.26	1411.15
633.60	1401.70
633.95	1392.56
634.29	1383.10
634.64	1373.83
634.98	1363.82
635.32	1354.62
635.67	1346.17
636.01	1336.91
636.36	1327.23
636.70	1317.76
637.05	1308.49
637.39	1299.54
637.73	1291.10
638.08	1283.60
638.42	1275.46
638.77	1266.63
639.11	1258.58
639.45	1250.82
639.80	1242.37
640.14	1233.63
640.49	1224.91
640.83	1215.94
641.17	1207.76
641.52	1199.65
641.86	1191.21
642.20	1183.45
642.55	1174.86
642.89	1166.08
643.23	1157.45
643.58	1149.29
643.92	1140.32
644.26	1131.59
644.61	1123.17
644.95	1114.41
645.29	1105.21
645.64	1096.11
645.98	1087.66
646.32	1079.73
646.66	1071.23
647.01	1062.86
647.35	1054.81
647.69	1046.63
648.04	1038.54
648.38	1029.72
648.72	1021.07
649.06	1012.63
649.41	1004.49
649.75	996.62
650.09	988.69
650.43	980.68
650.78	972.40
651.12	964.74
651.46	957.28
651.80	950.07
652.14	942.77
652.49	935.23
652.83	927.95
653.17	920.36
653.51	912.71
653.85	905.53
654.20	898.36
654.54	890.91
654.88	883.60
655.22	876.43
655.56	869.40
655.90	862.55
656.25	855.85
656.59	848.98
656.93	841.97
657.27	834.89
657.61	827.92
657.95	821.81
658.29	815.81
658.64	809.77
658.98	803.18
659.32	796.64
659.66	790.44
660.00	784.01
660.34	777.94
660.68	771.79
661.02	765.41
661.36	759.43
661.70	753.62
662.05	747.99
662.39	742.48
662.73	737.12
663.07	731.80
663.41	726.22
663.75	720.51
664.09	714.74
664.43	709.31
664.77	703.98
665.11	698.15
665.45	692.25
665.79	686.39
666.13	680.80
666.47	675.26
666.81	669.76
667.15	664.38
667.49	659.10
667.83	653.95
668.17	648.65
668.51	643.52
668.85	638.59
669.19	633.61
669.53	628.55
669.87	623.38
670.21	618.56
670.55	613.84
670.89	609.30
671.23	604.97
671.57	600.55
671.91	596.24
672.25	592.14
672.58	588.04
672.92	583.96
673.26	579.96
673.60	576.10
673.94	572.28
674.28	568.73
674.62	565.07
674.96	561.27
675.30	557.78
675.64	554.09
675.97	550.46
676.31	546.93
676.65	543.31
676.99	539.90
677.33	536.03
677.67	532.36
678.01	528.54
678.34	524.96
678.68	521.39
679.02	517.70
679.36	513.98
679.70	510.29
680.04	506.69
680.37	503.26
680.71	499.90
681.05	496.66
681.39	493.33
681.73	490.06
682.06	486.96
682.40	483.86
682.74	480.64
683.08	477.41
683.42	474.12
683.75	471.04
684.09	467.93
684.43	465.13
684.77	462.17
685.10	459.28
685.44	456.33
685.78	453.43
686.12	450.67
686.45	447.91
686.79	445.23
687.13	442.65
687.46	440.00
687.80	437.29
688.14	434.43
688.48	431.73
688.81	429.01
689.15	426.39
689.49	423.71
689.82	421.15
690.16	418.48
690.50	416.03
690.83	413.51
691.17	410.96
691.51	408.44
691.84	406.16
692.18	403.91
692.52	401.62
692.85	399.46
693.19	397.31
693.52	395.05
693.86	392.77
694.20	390.54
694.53	388.32
694.87	386.10
695.21	383.95
695.54	381.77
695.88	379.60
696.21	377.37
696.55	375.22
696.88	373.10
697.22	371.13
697.56	369.19
697.89	367.29
698.23	365.53
698.56	363.74
698.90	361.96
699.23	360.00
699.57	358.12
699.90	356.18
700.24	354.33
700.58	352.61
700.91	350.95
701.25	349.42
701.58	347.85
701.92	346.22
702.25	344.59
702.59	342.96
702.92	341.35
703.26	339.75
703.59	338.28
703.93	337.03
704.26	335.57
704.60	334.05
704.93	332.54
705.26	330.99
705.60	329.47
705.93	327.90
706.27	326.61
706.60	325.32
706.94	324.09
707.27	322.67
707.61	321.32
707.94	319.97
708.27	318.39
708.61	316.86
708.94	315.46
709.28	314.17
709.61	312.92
709.94	311.72
710.28	310.51
710.61	309.30
710.95	307.86
711.28	306.75
711.61	305.53
711.95	304.38
712.28	303.16
712.61	301.95
712.95	300.85
713.28	299.78
713.61	298.58
713.95	297.39
714.28	296.39
714.61	295.30
714.95	294.23
715.28	293.23
715.61	292.24
715.95	291.24
716.28	290.28
716.61	289.30
716.95	288.28
717.28	287.30
717.61	286.32
717.94	285.39
718.28	284.37
718.61	283.50
718.94	282.61
719.27	281.76
719.61	280.95
719.94	280.08
720.27	279.11
720.60	278.27
720.94	277.48
721.27	276.69
721.60	275.99
721.93	275.26
722.27	274.64
722.60	273.91
722.93	273.23
723.26	272.53
723.59	271.79
723.93	271.14
724.26	270.52
724.59	269.86
724.92	269.28
725.25	268.72
725.59	268.12
725.92	267.58
726.25	267.00
726.58	266.41
726.91	265.79
727.24	265.20
727.57	264.63
727.91	264.02
728.24	263.41
728.57	262.77
728.90	262.22
729.23	261.54
729.56	261.13
729.89	260.57
730.22	260.01
730.55	259.47
730.89	258.96
731.22	258.40
731.55	257.86
731.88	257.33
732.21	256.76
732.54	256.21
732.87	255.66
733.20	255.14
733.53	254.66
733.86	254.18
734.19	253.70
734.52	253.28
734.85	252.97
735.18	252.52
735.51	252.16
735.84	251.75
736.17	251.38
736.50	250.83
736.83	250.66
737.16	250.27
737.49	249.89
737.82	249.48
738.15	249.11
738.48	248.75
738.81	248.34
739.14	247.96
739.47	247.58
739.80	247.16
740.13	246.85
740.46	246.44
740.79	246.07
741.12	245.71
741.45	245.35
741.78	244.90
742.11	244.61
742.44	244.20
742.77	243.86
743.10	243.50
743.43	243.12
743.75	242.56
744.08	242.43
744.41	242.05
744.74	241.68
745.07	241.25
745.40	240.91
745.73	240.66
746.06	240.33
746.39	240.05
746.71	239.72
747.04	239.36
747.37	239.06
747.70	238.75
748.03	238.47
748.36	238.17
748.68	237.86
749.01	237.51
749.34	237.23
749.67	236.92
750.00	236.65
750.33	236.54
750.65	236.28
750.98	235.80
751.31	235.56
751.64	235.35
751.97	235.27
752.29	235.04
752.62	234.68
752.95	234.39
753.28	234.09
753.60	233.83
753.93	233.64
754.26	233.42
754.59	233.17
754.91	232.95
755.24	232.68
755.57	232.42
755.90	232.18
756.22	231.93
756.55	231.70
756.88	231.45
757.20	231.10
757.53	230.87
757.86	230.65
758.19	230.42
758.51	230.20
758.84	229.88
759.17	229.65
759.49	229.44
759.82	229.39
760.15	229.24
760.47	229.06
760.80	228.79
761.13	228.62
761.45	228.42
761.78	228.20
762.11	228.03
762.43	227.87
762.76	227.70
763.08	227.56
763.41	227.37
763.74	227.21
764.06	227.03
764.39	226.83
764.71	226.69
765.04	226.57
765.37	226.39
765.69	226.23
766.02	226.06
766.34	225.95
766.67	225.69
767.00	225.58
767.32	225.55
767.65	225.58
767.97	225.44
768.30	225.32
768.62	225.17
768.95	225.01
769.27	224.90
769.60	224.83
769.92	224.67
770.25	224.55
770.57	224.40
770.90	224.27
771.22	224.14
771.55	224.01
771.87	223.88
772.20	223.74
772.52	223.81
772.85	223.97
773.17	223.84
773.50	223.71
773.82	223.58
774.15	223.37
774.47	223.16
774.80	223.05
775.12	222.96
775.45	222.84
775.77	222.75
776.09	222.64
776.42	222.52
776.74	222.50
777.07	222.42
777.39	222.32
777.72	222.21
778.04	222.14
778.36	222.07
778.69	221.98
779.01	221.92
779.33	221.66
779.66	221.32
779.98	221.25
780.31	221.21
780.63	221.23
780.95	221.19
781.28	221.10
781.60	221.00
781.92	220.93
782.25	220.90
782.57	220.85
782.89	220.80
783.22	220.68
783.54	220.58
783.86	220.49
784.19	220.43
784.51	220.45
784.83	220.35
785.16	220.29
785.48	220.23
785.80	220.18
786.12	220.17
786.45	220.14
786.77	220.08
787.09	219.98
787.42	219.87
787.74	219.81
788.06	219.77
788.38	219.72
788.71	219.64
789.03	219.61
789.35	219.59
789.67	219.49
789.99	219.51
790.32	219.40
790.64	219.39
790.96	219.53
791.28	219.39
791.61	219.35
791.93	219.28
792.25	219.23
792.57	219.32
792.89	219.24
793.21	219.20
793.54	219.15
793.86	219.10
794.18	219.03
794.50	218.95
794.82	218.89
795.14	218.89
795.47	218.87
795.79	218.82
796.11	218.72
796.43	218.69
796.75	218.60
797.07	218.59
797.39	218.54
797.71	218.34
798.04	218.33
798.36	218.32
798.68	218.31
799.00	218.31
799.32	218.15
799.64	218.14
799.96	218.10
800.28	218.09
800.60	218.06
800.92	218.06
801.24	217.99
801.56	217.97
801.89	217.91
802.21	217.91
802.53	217.85
802.85	217.84
803.17	217.89
803.49	217.83
803.81	217.76
804.13	217.71
804.45	217.65
804.77	217.62
805.09	217.57
805.41	217.52
805.73	217.40
806.05	217.35
806.37	217.31
806.69	217.23
807.01	217.17
807.33	217.12
807.65	216.97
807.97	217.06
808.28	217.01
808.60	216.94
808.92	216.87
809.24	216.95
809.56	216.88
809.88	216.80
810.20	216.76
810.52	216.76
810.84	216.70
811.16	216.65
811.48	216.60
811.80	216.63
812.12	216.59
812.43	216.65
812.75	216.63
813.07	216.57
813.39	216.54
813.71	216.49
814.03	216.46
814.35	216.44
814.67	216.33
814.98	216.26
815.30	216.28
815.62	216.24
815.94	216.09
816.26	216.09
816.58	216.03
816.89	216.03
817.21	215.97
817.53	215.98
817.85	215.97
818.17	215.92
818.48	215.84
818.80	215.84
819.12	215.76
819.44	215.69
819.76	215.63
820.07	215.66
820.39	215.63
820.71	215.64
821.03	215.62
821.34	215.59
821.66	215.63
821.98	215.62
822.30	215.56
822.61	215.65
822.93	215.60
823.25	215.55
823.57	215.55
823.88	215.62
824.20	215.60
824.52	215.61
824.83	215.63
825.15	215.56
825.47	215.56
825.79	215.55
826.10	215.54
826.42	215.55
826.74	215.52
827.05	215.52
827.37	215.51
827.69	215.53
828.00	215.54
828.32	215.54
828.64	215.45
828.95	215.56
829.27	215.51
829.58	215.51
829.90	215.53
830.22	215.53
830.53	215.45
830.85	215.42
831.17	215.35
831.48	215.31
831.80	215.35
832.11	215.33
832.43	215.32
832.75	215.31
833.06	215.43
833.38	215.39
833.69	215.37
834.01	215.39
834.32	215.37
834.64	215.35
834.96	215.32
835.27	215.32
835.59	215.24
835.90	215.23
836.22	215.22
836.53	215.15
836.85	215.13
837.16	215.33
837.48	215.32
837.79	215.39
838.11	215.42
838.42	215.41
838.74	215.43
839.05	215.40
839.37	215.40
839.68	215.26
840.00	215.21
840.31	215.23
840.63	215.17
840.94	215.12
841.26	215.09
841.57	215.10
841.88	215.13
842.20	215.09
842.51	215.01
842.83	214.99
843.14	215.20
843.46	215.18
843.77	215.03
844.08	215.05
844.40	214.99
844.71	214.93
845.03	214.91
845.34	214.88
845.65	214.88
845.97	214.87
846.28	214.89
846.60	214.94
846.91	214.90
847.22	214.93
847.54	214.99
847.85	214.98
848.16	214.94
848.48	214.90
848.79	215.00
849.10	215.05
849.42	215.07
849.73	214.87
850.04	214.86
850.36	214.80
850.67	214.84
850.98	214.84
851.30	214.88
851.61	214.88
851.92	214.89
852.23	214.92
852.55	214.91
852.86	214.92
853.17	214.93
853.49	214.95
853.80	214.99
854.11	215.02
854.42	215.07
854.74	215.06
855.05	215.06
855.36	214.94
855.67	214.91
855.99	214.90
856.30	215.15
856.61	215.13
856.92	215.13
857.23	215.10
857.55	215.07
857.86	215.04
858.17	215.07
858.48	215.00
858.79	214.97
859.11	215.01
859.42	214.99
859.73	214.95
860.04	214.94
860.35	214.84
860.66	214.75
860.98	214.73
861.29	214.76
861.60	214.73
861.91	214.77
862.22	214.77
862.53	214.73
862.84	214.51
863.16	214.57
863.47	214.51
863.78	214.51
864.09	214.53
864.40	214.55
864.71	214.54
865.02	214.59
865.33	214.57
865.64	214.50
865.95	214.47
866.27	214.59
866.58	214.55
866.89	214.57
867.20	214.57
867.51	214.51
867.82	214.48
868.13	214.57
868.44	214.53
868.75	214.57
869.06	214.60
869.37	214.61
869.68	214.59
869.99	214.65
870.30	214.67
870.61	214.71
870.92	214.65
871.23	214.65
871.54	214.65
871.85	214.71
872.16	214.72
872.47	214.72
872.78	214.64
873.09	214.68
873.40	214.67
873.71	214.69
874.02	214.71
874.33	214.68
874.64	214.59
874.95	214.61
875.26	214.54
875.56	214.51
875.87	214.48
876.18	214.43
876.49	214.63
876.80	214.56
877.11	214.51
877.42	214.53
877.73	214.51
878.04	214.48
878.35	214.46
878.66	214.48
878.96	214.48
879.27	214.44
879.58	214.43
879.89	214.44
880.20	214.51
880.51	214.50
880.82	214.51
881.12	214.53
881.43	214.51
881.74	214.50
882.05	214.50
882.36	214.52
882.67	214.55
882.97	214.32
883.28	214.34
883.59	214.37
883.90	214.42
884.21	214.46
884.51	214.43
884.82	214.39
885.13	214.37
885.44	214.38
885.74	214.39
886.05	214.38
886.36	214.34
886.67	214.26
886.98	214.38
887.28	214.43
887.59	214.44
887.90	214.46
888.20	214.46
888.51	214.52
888.82	214.45
889.13	214.42
889.43	214.58
889.74	214.56
890.05	214.51
890.35	214.45
890.66	214.42
890.97	214.42
891.28	214.41
891.58	214.42
891.89	214.39
892.20	214.35
892.50	214.31
892.81	214.34
893.12	214.34
893.42	214.21
893.73	214.18
894.04	214.16
894.34	214.14
894.65	214.10
894.95	214.03
895.26	214.06
895.57	214.16
895.87	213.98
896.18	213.97
896.48	214.00
896.79	213.99
897.10	214.00
897.40	214.00
897.71	213.99
898.01	213.97
898.32	214.01
898.63	214.01
898.93	214.06
899.24	214.05
899.54	214.05
899.85	214.06
900.15	214.07
900.46	214.08
900.76	214.12
901.07	214.13
901.38	214.17
901.68	214.20
901.99	214.07
902.29	214.10
902.60	214.13
902.90	214.12
903.21	214.10
903.51	214.10
903.82	214.15
904.12	214.18
904.43	214.22
904.73	214.21
905.03	214.22
905.34	214.37
905.64	214.34
905.95	214.31
906.25	214.28
906.56	214.26
906.86	214.26
907.17	214.22
907.47	214.27
907.77	214.25
908.08	214.20
908.38	214.25
908.69	214.25
908.99	214.27
909.30	214.29
909.60	214.31
909.90	214.31
910.21	214.27
910.51	214.21
910.81	214.19
911.12	214.21
911.42	214.22
911.73	214.05
912.03	214.09
912.33	214.14
912.64	214.16
912.94	214.14
913.24	214.12
913.55	214.11
913.85	214.06
914.15	214.11
914.46	214.13
914.76	214.09
915.06	214.06
915.37	214.02
915.67	213.99
915.97	213.99
916.27	213.95
916.58	213.95
916.88	213.99
917.18	213.97
917.49	214.10
917.79	214.10
918.09	214.13
918.39	214.16
918.70	214.15
919.00	214.14
919.30	214.29
919.60	214.23
919.91	214.23
920.21	214.25
920.51	214.17
920.81	214.19
921.12	214.24
921.42	214.25
921.72	214.25
922.02	214.27
922.32	214.25
922.63	214.26
922.93	214.38
923.23	214.37
923.53	214.35
923.83	214.22
924.13	214.19
924.44	214.18
924.74	214.21
925.04	214.28
925.34	214.29
925.64	214.15
925.94	214.19
926.24	214.29
926.55	214.28
926.85	214.33
927.15	214.29
927.45	214.27
927.75	214.26
928.05	214.30
928.35	214.30
928.65	214.37
928.95	214.38
929.26	214.29
929.56	214.33
929.86	214.36
930.16	214.33
930.46	214.31
930.76	214.31
931.06	214.21
931.36	214.11
931.66	214.12
931.96	214.17
932.26	214.17
932.56	214.09
932.86	214.13
933.16	214.14
933.46	214.12
933.76	214.10
934.06	214.15
934.36	214.21
934.66	214.19
934.96	214.15
935.26	214.20
935.56	214.22
935.86	214.17
936.16	214.13
936.46	214.10
936.76	214.12
937.06	214.12
937.36	214.14
937.66	214.19
937.96	214.18
938.26	214.11
938.56	214.09
938.86	214.12
939.16	214.14
939.46	214.14
939.76	214.16
940.06	214.16
940.35	214.13
940.65	213.98
940.95	214.04
941.25	214.01
941.55	213.96
941.85	213.94
942.15	213.96
942.45	214.03
942.75	214.07
943.04	214.09
943.34	214.16
943.64	214.17
943.94	214.11
944.24	214.13
944.54	214.18
944.84	214.18
945.13	214.13
945.43	214.12
945.73	214.11
946.03	214.08
946.33	214.06
946.62	214.03
946.92	214.04
947.22	214.05
947.52	214.04
947.82	214.06
948.11	214.04
948.41	213.99
948.71	213.95
949.01	213.93
949.31	213.89
949.60	213.85
949.90	213.86
950.20	213.85
950.50	213.82
950.79	213.84
951.09	213.85
951.39	213.85
951.69	213.83
951.98	213.87
952.28	213.86
952.58	213.88
952.87	213.92
953.17	213.96
953.47	213.90
953.76	213.92
954.06	213.88
954.36	213.87
954.66	213.86
954.95	213.93
955.25	213.97
955.55	213.99
955.84	213.95
956.14	213.96
956.44	213.99
956.73	213.95
957.03	213.93
957.32	213.92
957.62	213.93
957.92	213.95
958.21	213.92
958.51	214.19
958.81	214.18
959.10	214.15
959.40	214.23
959.69	214.25
959.99	214.28
960.29	214.29
960.58	214.25
960.88	214.34
961.17	214.29
961.47	214.28
961.76	214.25
962.06	214.30
962.36	214.27
962.65	214.27
962.95	214.29
963.24	214.27
963.54	214.28
963.83	214.27
964.13	214.26
964.42	214.24
964.72	214.06
965.01	214.06
965.31	214.05
965.60	213.97
965.90	214.12
966.19	214.07
966.49	214.09
966.78	214.11
967.08	214.08
967.37	214.09
967.67	214.05
967.96	214.11
968.26	214.09
968.55	214.14
968.85	214.10
969.14	214.10
969.43	214.10
969.73	214.08
970.02	214.06
970.32	214.03
970.61	214.03
970.91	213.97
971.20	213.96
971.49	214.00
971.79	214.04
972.08	213.86
972.38	213.85
972.67	213.81
972.96	213.85
973.26	213.83
973.55	213.90
973.85	213.90
974.14	213.88
974.43	213.90
974.73	213.83
975.02	213.86
975.31	213.87
975.61	213.86
975.90	213.87
976.19	213.88
976.49	213.93
976.78	213.90
977.07	213.87
977.37	213.88
977.66	213.84
977.95	213.82
978.24	213.86
978.54	213.91
978.83	213.90
979.12	213.87
979.42	213.87
979.71	213.82
980.00	213.83
980.29	213.81
980.59	213.77
980.88	213.83
981.17	213.80
981.46	213.82
981.76	213.82
982.05	213.86
982.34	213.86
982.63	213.84
982.93	213.90
983.22	213.96
983.51	213.94
983.80	214.02
984.09	214.00
984.39	213.96
984.68	213.92
984.97	213.95
985.26	213.95
985.55	213.97
985.85	213.91
986.14	213.94
986.43	213.98
986.72	213.97
987.01	213.92
987.30	213.92
987.59	213.89
987.89	213.93
988.18	213.87
988.47	213.86
988.76	213.86
989.05	213.81
989.34	213.77
989.63	213.85
989.92	213.79
990.22	213.78
990.51	213.79
990.80	213.78
991.09	213.80
991.38	213.81
991.67	213.77
991.96	213.76
992.25	213.78
992.54	213.74
992.83	213.73
993.12	213.71
993.41	213.75
993.70	213.83
993.99	213.85
994.28	213.90
994.58	213.94
994.87	213.88
995.16	213.87
995.45	213.89
995.74	213.82
996.03	213.83
996.32	213.85
996.61	213.89
996.90	213.91
997.19	213.87
997.48	213.91
997.77	213.91
998.06	213.91
998.34	213.86
998.63	213.84
998.92	213.84
999.21	213.88
999.50	213.86
999.79	213.81
1000.08	213.78
1000.37	213.75
1000.66	213.73
1000.95	213.81
1001.24	213.84
1001.53	213.87
1001.82	213.85
1002.11	213.84
1002.40	213.85
1002.68	213.91
1002.97	214.05
1003.26	214.04
1003.55	213.96
1003.84	213.99
1004.13	214.07
1004.42	214.08
1004.71	214.11
1004.99	214.07
1005.28	214.14
1005.57	214.13
1005.86	214.08
1006.15	214.05
1006.44	214.01
1006.72	214.01
1007.01	213.96
1007.30	213.96
1007.59	213.90
1007.88	213.91
1008.17	213.94
1008.45	213.91
1008.74	213.83
1009.03	213.71
1009.32	213.76
1009.60	213.77
1009.89	213.72
1010.18	213.62
1010.47	213.60
1010.76	213.58
1011.04	213.60
1011.33	213.58
1011.62	213.57
1011.91	213.61
1012.19	213.61
1012.48	213.64
1012.77	213.63
1013.05	213.74
1013.34	213.73
1013.63	213.72
1013.92	213.71
1014.20	213.67
1014.49	213.69
1014.78	213.70
1015.06	213.67
1015.35	213.64
1015.64	213.69
1015.92	213.77
1016.21	213.79
1016.50	213.81
1016.78	213.84
1017.07	213.87
1017.36	213.82
1017.64	213.84
1017.93	213.86
1018.22	213.89
1018.50	213.89
1018.79	213.90
1019.08	213.81
1019.36	213.82
1019.65	213.82
1019.93	213.92
1020.22	213.93
1020.51	214.01
1020.79	214.00
1021.08	213.64
1021.36	213.70
1021.65	213.51
1021.94	214.14
1022.22	214.00
1022.51	213.33
1022.79	215.10
1023.08	213.89
1023.36	215.85
1023.65	213.61
>>>>>End Processed Spectral Data<<<<<
