SpectraSuite Data File
++++++++++++++++++++++++++++++++++++
Date: Tue Jan 29 15:58:58 EST 2013
User: group
Dark Spectrum Present: No
Reference Spectrum Present: No
Number of Sampled Component Spectra: 1
Spectrometers: USB2E7196
Integration Time (usec): 65000 (USB2E7196)
Spectra Averaged: 100 (USB2E7196)
Boxcar Smoothing: 10 (USB2E7196)
Correct for Electrical Dark: No (USB2E7196)
Strobe/Lamp Enabled: No (USB2E7196)
Correct for Detector Non-linearity: No (USB2E7196)
Correct for Stray Light: No (USB2E7196)
Number of Pixels in Processed Spectrum: 2048
>>>>>Begin Processed Spectral Data<<<<<
339.09	0.00
339.48	202.60
339.86	204.60
340.24	205.94
340.63	207.53
341.01	211.54
341.39	209.63
341.78	211.65
342.16	212.95
342.54	213.28
342.93	202.24
343.31	212.45
343.69	213.00
344.07	213.49
344.46	213.94
344.84	214.34
345.22	214.54
345.60	214.85
345.99	215.05
346.37	215.18
346.75	215.26
347.13	215.33
347.52	215.38
347.90	215.49
348.28	215.54
348.66	215.65
349.05	215.59
349.43	215.68
349.81	215.73
350.19	215.81
350.57	215.86
350.96	215.91
351.34	216.00
351.72	216.10
352.10	216.14
352.48	216.20
352.87	216.22
353.25	216.25
353.63	216.28
354.01	216.32
354.39	216.39
354.77	216.46
355.15	216.59
355.54	216.62
355.92	216.61
356.30	216.68
356.68	216.83
357.06	216.91
357.44	216.91
357.82	216.98
358.20	217.03
358.58	217.06
358.97	217.10
359.35	217.19
359.73	217.30
360.11	217.38
360.49	217.42
360.87	217.47
361.25	217.54
361.63	217.66
362.01	217.74
362.39	217.75
362.77	217.81
363.15	217.81
363.53	217.85
363.91	217.89
364.29	217.90
364.67	217.76
365.05	217.78
365.43	217.83
365.81	217.84
366.19	217.94
366.57	218.05
366.95	218.04
367.33	217.98
367.71	217.95
368.09	217.99
368.47	218.01
368.85	217.99
369.23	218.05
369.61	217.95
369.99	217.97
370.37	217.99
370.75	218.06
371.13	218.03
371.51	218.01
371.89	218.01
372.27	218.01
372.65	217.96
373.03	217.94
373.41	217.90
373.78	217.88
374.16	217.75
374.54	217.65
374.92	217.61
375.30	217.59
375.68	217.50
376.06	217.48
376.44	217.38
376.82	217.36
377.19	217.28
377.57	217.21
377.95	217.08
378.33	217.02
378.71	216.84
379.09	216.80
379.47	216.75
379.84	216.66
380.22	216.58
380.60	216.51
380.98	216.46
381.36	216.42
381.73	216.35
382.11	216.31
382.49	216.28
382.87	216.22
383.25	216.18
383.62	216.39
384.00	216.29
384.38	216.26
384.76	216.28
385.13	216.33
385.51	216.34
385.89	216.33
386.27	216.29
386.64	216.31
387.02	216.27
387.40	216.25
387.78	216.25
388.15	216.23
388.53	216.20
388.91	216.19
389.29	216.15
389.66	216.13
390.04	216.12
390.42	216.14
390.79	216.12
391.17	216.11
391.55	215.85
391.92	215.86
392.30	215.88
392.68	215.80
393.05	215.78
393.43	215.76
393.81	215.76
394.18	215.74
394.56	215.73
394.94	215.75
395.31	215.72
395.69	215.78
396.06	215.82
396.44	215.87
396.82	215.89
397.19	216.04
397.57	216.05
397.95	216.09
398.32	216.08
398.70	216.16
399.07	216.27
399.45	216.34
399.82	216.37
400.20	216.43
400.58	216.47
400.95	216.43
401.33	216.54
401.70	216.74
402.08	216.85
402.45	216.96
402.83	217.11
403.20	217.22
403.58	217.30
403.95	217.44
404.33	217.57
404.71	217.70
405.08	217.96
405.46	218.12
405.83	218.32
406.21	218.48
406.58	218.71
406.96	218.91
407.33	219.17
407.70	219.46
408.08	219.92
408.45	220.27
408.83	220.66
409.20	221.01
409.58	221.26
409.95	221.71
410.33	222.17
410.70	222.58
411.08	223.13
411.45	223.71
411.82	224.26
412.20	224.93
412.57	225.73
412.95	226.25
413.32	227.06
413.69	227.85
414.07	228.72
414.44	229.63
414.82	230.60
415.19	231.71
415.56	232.88
415.94	234.00
416.31	235.38
416.68	236.71
417.06	238.23
417.43	239.72
417.81	241.39
418.18	243.12
418.55	244.97
418.93	246.91
419.30	248.93
419.67	251.08
420.04	253.25
420.42	255.52
420.79	258.22
421.16	260.91
421.54	263.72
421.91	266.61
422.28	269.62
422.66	272.80
423.03	275.92
423.40	279.14
423.77	282.54
424.15	286.02
424.52	289.72
424.89	293.77
425.26	297.72
425.64	301.48
426.01	305.63
426.38	309.95
426.75	314.36
427.13	318.89
427.50	323.68
427.87	328.72
428.24	333.75
428.61	338.59
428.99	343.91
429.36	349.69
429.73	355.36
430.10	361.03
430.47	366.85
430.85	372.92
431.22	379.39
431.59	386.32
431.96	392.90
432.33	400.13
432.70	407.06
433.08	415.27
433.45	423.00
433.82	430.68
434.19	439.23
434.56	447.59
434.93	455.66
435.30	463.65
435.68	472.37
436.05	480.95
436.42	489.47
436.79	497.28
437.16	505.66
437.53	514.60
437.90	523.38
438.27	531.97
438.64	540.83
439.01	549.04
439.38	556.31
439.75	563.39
440.13	571.49
440.50	579.18
440.87	585.34
441.24	591.68
441.61	598.69
441.98	603.84
442.35	609.90
442.72	615.87
443.09	621.63
443.46	625.22
443.83	627.69
444.20	629.81
444.57	632.88
444.94	634.26
445.31	635.63
445.68	636.94
446.05	637.49
446.42	636.74
446.79	635.78
447.16	634.76
447.53	633.98
447.90	630.77
448.27	627.52
448.64	622.98
449.01	619.75
449.37	614.13
449.74	608.70
450.11	602.10
450.48	594.99
450.85	587.78
451.22	581.60
451.59	575.67
451.96	570.06
452.33	562.48
452.70	555.68
453.07	547.51
453.43	539.25
453.80	531.35
454.17	523.72
454.54	516.48
454.91	508.58
455.28	500.96
455.65	493.89
456.02	486.79
456.38	480.82
456.75	473.35
457.12	467.06
457.49	460.83
457.86	454.85
458.23	449.75
458.59	444.16
458.96	438.43
459.33	433.37
459.70	428.27
460.07	424.18
460.43	419.52
460.80	415.16
461.17	411.36
461.54	407.36
461.91	403.49
462.27	399.58
462.64	396.30
463.01	392.65
463.38	389.06
463.74	385.44
464.11	382.29
464.48	379.58
464.85	376.56
465.21	374.21
465.58	371.72
465.95	368.73
466.32	366.22
466.68	363.64
467.05	361.18
467.42	358.73
467.78	356.17
468.15	353.76
468.52	351.94
468.88	349.53
469.25	347.41
469.62	345.69
469.98	343.83
470.35	342.12
470.72	340.50
471.08	338.78
471.45	337.37
471.82	335.94
472.18	334.34
472.55	333.27
472.92	331.94
473.28	330.82
473.65	329.70
474.02	328.67
474.38	327.94
474.75	327.22
475.11	326.46
475.48	325.90
475.85	325.44
476.21	325.03
476.58	324.76
476.94	324.54
477.31	324.25
477.67	324.02
478.04	323.88
478.41	323.89
478.77	324.09
479.14	324.08
479.50	324.21
479.87	324.54
480.23	324.86
480.60	325.15
480.96	325.42
481.33	326.05
481.69	326.61
482.06	327.16
482.42	327.63
482.79	328.24
483.15	329.08
483.52	330.08
483.88	330.97
484.25	331.88
484.61	332.89
484.98	333.96
485.34	335.28
485.71	336.64
486.07	338.03
486.44	339.38
486.80	340.98
487.17	342.64
487.53	344.45
487.90	346.31
488.26	348.31
488.62	350.45
488.99	352.50
489.35	354.67
489.72	356.98
490.08	359.52
490.44	362.05
490.81	364.72
491.17	367.42
491.54	370.38
491.90	373.44
492.26	376.70
492.63	380.16
492.99	383.62
493.36	387.32
493.72	391.21
494.08	395.19
494.45	399.38
494.81	403.74
495.17	408.21
495.54	412.92
495.90	417.72
496.26	422.65
496.63	427.80
496.99	433.18
497.35	438.75
497.72	444.54
498.08	450.45
498.44	456.52
498.80	462.85
499.17	469.25
499.53	475.89
499.89	482.81
500.26	489.69
500.62	496.82
500.98	504.15
501.34	511.61
501.71	519.35
502.07	527.14
502.43	535.07
502.79	543.16
503.16	551.51
503.52	560.13
503.88	568.78
504.24	577.71
504.60	586.73
504.97	595.87
505.33	605.18
505.69	615.05
506.05	624.90
506.41	634.77
506.78	644.81
507.14	655.04
507.50	665.43
507.86	676.10
508.22	686.80
508.59	697.54
508.95	708.58
509.31	719.76
509.67	731.20
510.03	742.66
510.39	754.46
510.75	766.23
511.12	778.10
511.48	790.25
511.84	802.39
512.20	814.65
512.56	827.25
512.92	839.95
513.28	852.37
513.64	865.06
514.00	877.81
514.37	890.76
514.73	903.69
515.09	916.48
515.45	929.21
515.81	942.11
516.17	955.29
516.53	968.25
516.89	981.22
517.25	994.28
517.61	1007.63
517.97	1020.76
518.33	1033.80
518.69	1047.14
519.05	1060.57
519.41	1074.06
519.77	1087.76
520.13	1100.91
520.49	1113.89
520.85	1127.25
521.21	1140.35
521.57	1153.78
521.93	1166.59
522.29	1180.21
522.65	1193.72
523.01	1207.15
523.37	1220.09
523.73	1233.14
524.09	1246.12
524.45	1259.31
524.81	1272.46
525.17	1285.55
525.53	1298.58
525.89	1311.43
526.25	1324.25
526.61	1336.89
526.97	1349.66
527.33	1362.32
527.68	1375.42
528.04	1388.57
528.40	1401.30
528.76	1414.47
529.12	1427.07
529.48	1440.10
529.84	1452.05
530.20	1464.36
530.56	1476.67
530.91	1489.65
531.27	1502.19
531.63	1514.69
531.99	1527.23
532.35	1539.11
532.71	1551.21
533.07	1563.49
533.42	1575.47
533.78	1587.18
534.14	1598.96
534.50	1609.94
534.86	1621.19
535.21	1631.90
535.57	1643.05
535.93	1654.10
536.29	1664.80
536.65	1675.85
537.00	1686.60
537.36	1697.57
537.72	1708.32
538.08	1719.33
538.44	1729.89
538.79	1740.62
539.15	1751.17
539.51	1761.46
539.87	1772.54
540.22	1782.98
540.58	1793.58
540.94	1804.10
541.29	1814.30
541.65	1823.69
542.01	1833.96
542.37	1843.69
542.72	1853.48
543.08	1862.96
543.44	1873.00
543.79	1881.97
544.15	1891.17
544.51	1900.72
544.87	1910.31
545.22	1919.23
545.58	1927.83
545.94	1936.41
546.29	1944.72
546.65	1952.68
547.01	1960.62
547.36	1967.98
547.72	1975.32
548.07	1982.78
548.43	1990.33
548.79	1997.71
549.14	2005.60
549.50	2013.66
549.86	2021.12
550.21	2028.33
550.57	2035.68
550.92	2042.27
551.28	2049.58
551.64	2056.72
551.99	2063.97
552.35	2070.90
552.70	2077.52
553.06	2083.95
553.41	2090.12
553.77	2096.42
554.13	2102.64
554.48	2109.60
554.84	2116.56
555.19	2122.93
555.55	2129.26
555.90	2135.42
556.26	2141.96
556.61	2147.68
556.97	2152.49
557.32	2158.39
557.68	2164.51
558.03	2170.26
558.39	2175.40
558.74	2181.31
559.10	2186.74
559.45	2192.07
559.81	2197.55
560.16	2203.14
560.52	2208.96
560.87	2215.28
561.23	2221.19
561.58	2227.84
561.94	2232.83
562.29	2237.63
562.64	2243.98
563.00	2249.52
563.35	2255.20
563.71	2261.30
564.06	2267.06
564.42	2273.07
564.77	2278.09
565.12	2283.42
565.48	2288.66
565.83	2294.33
566.19	2299.85
566.54	2305.33
566.89	2310.31
567.25	2314.87
567.60	2320.59
567.96	2325.93
568.31	2330.50
568.66	2334.69
569.02	2338.64
569.37	2342.53
569.72	2346.92
570.08	2350.43
570.43	2353.62
570.78	2356.69
571.14	2359.20
571.49	2362.41
571.84	2366.06
572.20	2369.11
572.55	2372.41
572.90	2374.70
573.26	2377.96
573.61	2380.39
573.96	2382.67
574.31	2384.62
574.67	2386.84
575.02	2387.86
575.37	2389.21
575.72	2390.30
576.08	2392.06
576.43	2392.50
576.78	2393.49
577.13	2395.37
577.49	2396.63
577.84	2398.13
578.19	2399.93
578.54	2400.86
578.90	2402.10
579.25	2402.18
579.60	2402.51
579.95	2401.87
580.30	2402.45
580.66	2401.66
581.01	2400.41
581.36	2398.52
581.71	2397.47
582.06	2396.64
582.42	2396.06
582.77	2394.35
583.12	2392.89
583.47	2391.97
583.82	2391.61
584.17	2390.53
584.53	2388.62
584.88	2386.95
585.23	2385.29
585.58	2383.07
585.93	2381.09
586.28	2379.16
586.63	2377.10
586.98	2375.08
587.34	2373.51
587.69	2371.29
588.04	2369.59
588.39	2368.25
588.74	2365.84
589.09	2363.49
589.44	2360.75
589.79	2358.52
590.14	2356.69
590.49	2354.03
590.84	2350.35
591.19	2347.64
591.54	2344.60
591.89	2340.71
592.25	2337.57
592.60	2333.37
592.95	2329.48
593.30	2325.47
593.65	2321.04
594.00	2316.79
594.35	2313.76
594.70	2309.28
595.05	2304.71
595.40	2299.40
595.75	2294.07
596.10	2290.59
596.45	2285.83
596.80	2281.25
597.15	2276.03
597.50	2270.39
597.85	2265.74
598.19	2260.61
598.54	2254.92
598.89	2249.90
599.24	2245.61
599.59	2239.68
599.94	2234.21
600.29	2228.41
600.64	2222.73
600.99	2216.29
601.34	2210.87
601.69	2203.90
602.04	2197.47
602.39	2191.06
602.74	2185.26
603.08	2179.71
603.43	2173.37
603.78	2166.61
604.13	2159.55
604.48	2152.52
604.83	2146.42
605.18	2140.10
605.53	2133.26
605.87	2126.19
606.22	2119.50
606.57	2111.60
606.92	2103.75
607.27	2096.87
607.62	2090.27
607.96	2083.30
608.31	2076.88
608.66	2069.20
609.01	2061.89
609.36	2054.85
609.70	2047.24
610.05	2039.41
610.40	2031.17
610.75	2022.91
611.10	2015.30
611.44	2006.57
611.79	1997.84
612.14	1987.93
612.49	1977.60
612.83	1968.34
613.18	1959.37
613.53	1950.05
613.88	1940.60
614.22	1932.05
614.57	1922.23
614.92	1911.88
615.27	1901.91
615.61	1891.85
615.96	1882.23
616.31	1872.69
616.65	1863.43
617.00	1853.70
617.35	1844.09
617.70	1834.35
618.04	1824.29
618.39	1814.01
618.74	1804.40
619.08	1794.88
619.43	1786.24
619.78	1777.91
620.12	1769.25
620.47	1759.29
620.82	1748.96
621.16	1739.08
621.51	1729.11
621.85	1719.06
622.20	1708.51
622.55	1697.73
622.89	1687.96
623.24	1678.20
623.59	1668.41
623.93	1658.26
624.28	1648.43
624.62	1638.22
624.97	1627.81
625.32	1618.08
625.66	1609.37
626.01	1600.49
626.35	1591.03
626.70	1580.78
627.04	1570.53
627.39	1560.49
627.73	1551.35
628.08	1542.19
628.43	1532.61
628.77	1523.22
629.12	1514.37
629.46	1506.46
629.81	1498.07
630.15	1488.34
630.50	1478.48
630.84	1467.96
631.19	1457.93
631.53	1448.37
631.88	1438.20
632.22	1428.22
632.57	1418.84
632.91	1408.51
633.26	1398.57
633.60	1388.90
633.95	1379.61
634.29	1370.21
634.64	1360.80
634.98	1350.83
635.32	1341.56
635.67	1332.95
636.01	1323.75
636.36	1313.90
636.70	1304.34
637.05	1294.93
637.39	1285.94
637.73	1277.30
638.08	1269.64
638.42	1261.31
638.77	1252.58
639.11	1244.27
639.45	1236.49
639.80	1227.75
640.14	1219.07
640.49	1210.24
640.83	1201.47
641.17	1193.43
641.52	1185.13
641.86	1176.39
642.20	1168.52
642.55	1160.00
642.89	1151.12
643.23	1142.43
643.58	1134.33
643.92	1125.30
644.26	1116.73
644.61	1108.28
644.95	1099.49
645.29	1090.23
645.64	1081.14
645.98	1072.85
646.32	1064.96
646.66	1056.41
647.01	1047.92
647.35	1039.74
647.69	1031.36
648.04	1023.06
648.38	1014.00
648.72	1005.32
649.06	996.93
649.41	988.73
649.75	980.63
650.09	972.74
650.43	964.59
650.78	956.45
651.12	948.75
651.46	941.36
651.80	934.09
652.14	926.79
652.49	919.35
652.83	912.08
653.17	904.36
653.51	896.67
653.85	889.46
654.20	882.30
654.54	874.75
654.88	867.63
655.22	860.41
655.56	853.57
655.90	846.83
656.25	840.16
656.59	833.17
656.93	826.18
657.27	819.12
657.61	812.40
657.95	806.25
658.29	800.42
658.64	794.21
658.98	787.83
659.32	781.26
659.66	774.99
660.00	768.62
660.34	762.57
660.68	756.56
661.02	750.24
661.36	744.42
661.70	738.72
662.05	733.04
662.39	727.56
662.73	722.19
663.07	716.82
663.41	711.39
663.75	705.83
664.09	700.28
664.43	694.88
664.77	689.56
665.11	683.81
665.45	677.84
665.79	672.12
666.13	666.44
666.47	661.01
666.81	655.71
667.15	650.45
667.49	645.34
667.83	640.12
668.17	634.98
668.51	629.89
668.85	625.03
669.19	620.21
669.53	615.33
669.87	610.28
670.21	605.59
670.55	600.87
670.89	596.52
671.23	592.36
671.57	588.05
671.91	583.74
672.25	579.69
672.58	575.63
672.92	571.56
673.26	567.69
673.60	563.91
673.94	560.12
674.28	556.54
674.62	552.73
674.96	549.08
675.30	545.64
675.64	542.07
675.97	538.54
676.31	535.02
676.65	531.45
676.99	528.02
677.33	524.26
677.67	520.64
678.01	516.81
678.34	513.12
678.68	509.66
679.02	506.11
679.36	502.40
679.70	498.86
680.04	495.46
680.37	492.10
680.71	488.79
681.05	485.66
681.39	482.46
681.73	479.40
682.06	476.37
682.40	473.24
682.74	470.10
683.08	466.94
683.42	463.78
683.75	460.85
684.09	457.86
684.43	455.05
684.77	452.17
685.10	449.36
685.44	446.50
685.78	443.67
686.12	440.98
686.45	438.35
686.79	435.77
687.13	433.28
687.46	430.65
687.80	428.03
688.14	425.20
688.48	422.65
688.81	420.05
689.15	417.55
689.49	415.06
689.82	412.61
690.16	410.12
690.50	407.72
690.83	405.26
691.17	402.83
691.51	400.42
691.84	398.25
692.18	396.09
692.52	393.91
692.85	391.80
693.19	389.71
693.52	387.60
693.86	385.44
694.20	383.36
694.53	381.34
694.87	379.20
695.21	377.22
695.54	375.08
695.88	372.99
696.21	370.85
696.55	368.76
696.88	366.75
697.22	364.85
697.56	363.00
697.89	361.17
698.23	359.46
698.56	357.76
698.90	356.01
699.23	354.15
699.57	352.35
699.90	350.52
700.24	348.74
700.58	347.02
700.91	345.34
701.25	343.75
701.58	342.17
701.92	340.59
702.25	339.07
702.59	337.51
702.92	336.01
703.26	334.47
703.59	333.08
703.93	331.80
704.26	330.38
704.60	328.91
704.93	327.48
705.26	326.02
705.60	324.55
705.93	323.08
706.27	321.85
706.60	320.60
706.94	319.44
707.27	318.13
707.61	316.88
707.94	315.61
708.27	314.13
708.61	312.70
708.94	311.41
709.28	310.12
709.61	308.91
709.94	307.73
710.28	306.55
710.61	305.36
710.95	303.99
711.28	302.97
711.61	301.81
711.95	300.74
712.28	299.57
712.61	298.45
712.95	297.45
713.28	296.39
713.61	295.28
713.95	294.15
714.28	293.13
714.61	292.07
714.95	291.09
715.28	290.12
715.61	289.16
715.95	288.23
716.28	287.29
716.61	286.36
716.95	285.38
717.28	284.49
717.61	283.58
717.94	282.74
718.28	281.72
718.61	280.88
718.94	279.98
719.27	279.14
719.61	278.37
719.94	277.49
720.27	276.56
720.60	275.77
720.94	274.97
721.27	274.22
721.60	273.56
721.93	272.88
722.27	272.24
722.60	271.58
722.93	270.91
723.26	270.26
723.59	269.60
723.93	269.01
724.26	268.40
724.59	267.76
724.92	267.16
725.25	266.62
725.59	266.07
725.92	265.49
726.25	264.93
726.58	264.36
726.91	263.82
727.24	263.32
727.57	262.80
727.91	262.25
728.24	261.73
728.57	261.15
728.90	260.61
729.23	260.05
729.56	259.65
729.89	259.12
730.22	258.57
730.55	258.04
730.89	257.52
731.22	257.01
731.55	256.53
731.88	256.02
732.21	255.51
732.54	254.96
732.87	254.49
733.20	254.07
733.53	253.57
733.86	253.13
734.19	252.66
734.52	252.22
734.85	251.92
735.18	251.45
735.51	251.10
735.84	250.65
736.17	250.29
736.50	249.76
736.83	249.59
737.16	249.21
737.49	248.86
737.82	248.48
738.15	248.11
738.48	247.73
738.81	247.36
739.14	246.97
739.47	246.62
739.80	246.30
740.13	245.95
740.46	245.61
740.79	245.21
741.12	244.83
741.45	244.49
741.78	244.08
742.11	243.80
742.44	243.41
742.77	243.11
743.10	242.77
743.43	242.42
743.75	241.89
744.08	241.84
744.41	241.50
744.74	241.16
745.07	240.80
745.40	240.54
745.73	240.31
746.06	239.98
746.39	239.68
746.71	239.36
747.04	239.00
747.37	238.66
747.70	238.44
748.03	238.14
748.36	237.89
748.68	237.60
749.01	237.28
749.34	237.02
749.67	236.74
750.00	236.47
750.33	236.35
750.65	236.11
750.98	235.59
751.31	235.37
751.64	235.14
751.97	235.06
752.29	234.78
752.62	234.42
752.95	234.19
753.28	233.95
753.60	233.68
753.93	233.52
754.26	233.36
754.59	233.10
754.91	232.90
755.24	232.65
755.57	232.44
755.90	232.23
756.22	232.02
756.55	231.76
756.88	231.53
757.20	231.22
757.53	230.97
757.86	230.78
758.19	230.53
758.51	230.36
758.84	230.06
759.17	229.83
759.49	229.68
759.82	229.60
760.15	229.44
760.47	229.27
760.80	229.02
761.13	228.83
761.45	228.63
761.78	228.47
762.11	228.31
762.43	228.13
762.76	227.93
763.08	227.77
763.41	227.66
763.74	227.53
764.06	227.36
764.39	227.20
764.71	227.07
765.04	226.94
765.37	226.74
765.69	226.58
766.02	226.48
766.34	226.34
766.67	226.16
767.00	226.09
767.32	226.09
767.65	226.08
767.97	225.95
768.30	225.82
768.62	225.68
768.95	225.53
769.27	225.38
769.60	225.31
769.92	225.19
770.25	225.01
770.57	224.86
770.90	224.73
771.22	224.64
771.55	224.52
771.87	224.40
772.20	224.33
772.52	224.39
772.85	224.49
773.17	224.40
773.50	224.26
773.82	224.11
774.15	223.90
774.47	223.68
774.80	223.58
775.12	223.51
775.45	223.44
775.77	223.35
776.09	223.29
776.42	223.21
776.74	223.16
777.07	223.08
777.39	223.01
777.72	222.91
778.04	222.84
778.36	222.77
778.69	222.72
779.01	222.64
779.33	222.40
779.66	222.12
779.98	222.03
780.31	221.98
780.63	222.00
780.95	221.96
781.28	221.89
781.60	221.75
781.92	221.68
782.25	221.57
782.57	221.53
782.89	221.45
783.22	221.35
783.54	221.26
783.86	221.25
784.19	221.14
784.51	221.13
784.83	221.03
785.16	220.94
785.48	220.88
785.80	220.80
786.12	220.74
786.45	220.65
786.77	220.59
787.09	220.51
787.42	220.34
787.74	220.28
788.06	220.26
788.38	220.26
788.71	220.18
789.03	220.16
789.35	220.14
789.67	220.05
789.99	220.04
790.32	219.98
790.64	219.91
790.96	220.05
791.28	219.97
791.61	219.92
791.93	219.89
792.25	219.82
792.57	219.94
792.89	219.87
793.21	219.85
793.54	219.81
793.86	219.74
794.18	219.76
794.50	219.68
794.82	219.63
795.14	219.59
795.47	219.62
795.79	219.56
796.11	219.45
796.43	219.41
796.75	219.35
797.07	219.29
797.39	219.29
797.71	219.11
798.04	219.09
798.36	219.05
798.68	219.01
799.00	218.99
799.32	218.83
799.64	218.88
799.96	218.83
800.28	218.82
800.60	218.78
800.92	218.73
801.24	218.71
801.56	218.72
801.89	218.67
802.21	218.64
802.53	218.57
802.85	218.63
803.17	218.74
803.49	218.68
803.81	218.64
804.13	218.55
804.45	218.52
804.77	218.51
805.09	218.48
805.41	218.44
805.73	218.40
806.05	218.32
806.37	218.23
806.69	218.21
807.01	218.22
807.33	218.22
807.65	218.13
807.97	218.19
808.28	218.11
808.60	218.11
808.92	218.06
809.24	218.17
809.56	218.05
809.88	217.95
810.20	217.93
810.52	217.96
810.84	217.94
811.16	217.88
811.48	217.84
811.80	217.90
812.12	217.84
812.43	217.86
812.75	217.85
813.07	217.81
813.39	217.80
813.71	217.72
814.03	217.67
814.35	217.65
814.67	217.54
814.98	217.54
815.30	217.52
815.62	217.47
815.94	217.32
816.26	217.32
816.58	217.26
816.89	217.26
817.21	217.22
817.53	217.20
817.85	217.22
818.17	217.21
818.48	217.11
818.80	217.17
819.12	217.10
819.44	217.05
819.76	217.03
820.07	217.02
820.39	217.01
820.71	217.01
821.03	217.02
821.34	216.99
821.66	216.98
821.98	216.94
822.30	216.89
822.61	217.04
822.93	216.98
823.25	216.96
823.57	216.94
823.88	216.96
824.20	216.93
824.52	216.95
824.83	216.90
825.15	216.85
825.47	216.83
825.79	216.86
826.10	216.84
826.42	216.83
826.74	216.84
827.05	216.81
827.37	216.80
827.69	216.74
828.00	216.72
828.32	216.73
828.64	216.68
828.95	216.81
829.27	216.70
829.58	216.73
829.90	216.75
830.22	216.73
830.53	216.65
830.85	216.64
831.17	216.59
831.48	216.60
831.80	216.58
832.11	216.55
832.43	216.51
832.75	216.49
833.06	216.58
833.38	216.49
833.69	216.47
834.01	216.46
834.32	216.44
834.64	216.44
834.96	216.39
835.27	216.37
835.59	216.28
835.90	216.24
836.22	216.22
836.53	216.19
836.85	216.14
837.16	216.37
837.48	216.34
837.79	216.40
838.11	216.41
838.42	216.40
838.74	216.44
839.05	216.42
839.37	216.41
839.68	216.29
840.00	216.26
840.31	216.31
840.63	216.28
840.94	216.28
841.26	216.23
841.57	216.22
841.88	216.28
842.20	216.26
842.51	216.23
842.83	216.21
843.14	216.35
843.46	216.33
843.77	216.18
844.08	216.18
844.40	216.05
844.71	216.02
845.03	215.99
845.34	215.96
845.65	215.93
845.97	215.91
846.28	215.93
846.60	215.95
846.91	215.91
847.22	215.90
847.54	215.93
847.85	215.92
848.16	215.88
848.48	215.84
848.79	215.92
849.10	215.92
849.42	215.94
849.73	215.75
850.04	215.80
850.36	215.70
850.67	215.73
850.98	215.76
851.30	215.78
851.61	215.79
851.92	215.78
852.23	215.86
852.55	215.88
852.86	215.86
853.17	215.88
853.49	215.91
853.80	215.95
854.11	215.95
854.42	215.98
854.74	215.97
855.05	215.99
855.36	215.88
855.67	215.89
855.99	215.85
856.30	216.08
856.61	216.03
856.92	216.04
857.23	216.03
857.55	216.03
857.86	216.00
858.17	216.03
858.48	215.96
858.79	215.94
859.11	215.95
859.42	215.94
859.73	215.89
860.04	215.88
860.35	215.79
860.66	215.74
860.98	215.73
861.29	215.77
861.60	215.70
861.91	215.75
862.22	215.73
862.53	215.73
862.84	215.51
863.16	215.56
863.47	215.52
863.78	215.51
864.09	215.51
864.40	215.51
864.71	215.52
865.02	215.55
865.33	215.49
865.64	215.49
865.95	215.49
866.27	215.63
866.58	215.59
866.89	215.65
867.20	215.67
867.51	215.65
867.82	215.62
868.13	215.71
868.44	215.68
868.75	215.72
869.06	215.75
869.37	215.76
869.68	215.71
869.99	215.75
870.30	215.75
870.61	215.77
870.92	215.76
871.23	215.72
871.54	215.73
871.85	215.79
872.16	215.78
872.47	215.77
872.78	215.64
873.09	215.68
873.40	215.64
873.71	215.65
874.02	215.66
874.33	215.64
874.64	215.60
874.95	215.60
875.26	215.57
875.56	215.54
875.87	215.55
876.18	215.54
876.49	215.74
876.80	215.75
877.11	215.71
877.42	215.72
877.73	215.76
878.04	215.72
878.35	215.72
878.66	215.69
878.96	215.68
879.27	215.66
879.58	215.64
879.89	215.63
880.20	215.68
880.51	215.69
880.82	215.71
881.12	215.68
881.43	215.65
881.74	215.60
882.05	215.57
882.36	215.60
882.67	215.63
882.97	215.42
883.28	215.36
883.59	215.34
883.90	215.36
884.21	215.38
884.51	215.36
884.82	215.31
885.13	215.34
885.44	215.32
885.74	215.35
886.05	215.31
886.36	215.35
886.67	215.28
886.98	215.37
887.28	215.36
887.59	215.39
887.90	215.40
888.20	215.42
888.51	215.45
888.82	215.40
889.13	215.41
889.43	215.55
889.74	215.57
890.05	215.53
890.35	215.47
890.66	215.43
890.97	215.42
891.28	215.44
891.58	215.46
891.89	215.48
892.20	215.44
892.50	215.44
892.81	215.42
893.12	215.43
893.42	215.33
893.73	215.34
894.04	215.33
894.34	215.34
894.65	215.31
894.95	215.32
895.26	215.32
895.57	215.39
895.87	215.20
896.18	215.25
896.48	215.28
896.79	215.30
897.10	215.29
897.40	215.32
897.71	215.33
898.01	215.29
898.32	215.31
898.63	215.31
898.93	215.33
899.24	215.33
899.54	215.32
899.85	215.29
900.15	215.28
900.46	215.31
900.76	215.35
901.07	215.33
901.38	215.30
901.68	215.31
901.99	215.22
902.29	215.26
902.60	215.23
902.90	215.22
903.21	215.21
903.51	215.23
903.82	215.26
904.12	215.28
904.43	215.26
904.73	215.24
905.03	215.27
905.34	215.47
905.64	215.46
905.95	215.44
906.25	215.47
906.56	215.46
906.86	215.42
907.17	215.37
907.47	215.44
907.77	215.43
908.08	215.41
908.38	215.44
908.69	215.43
908.99	215.45
909.30	215.46
909.60	215.42
909.90	215.39
910.21	215.35
910.51	215.31
910.81	215.33
911.12	215.35
911.42	215.34
911.73	215.10
912.03	215.14
912.33	215.19
912.64	215.17
912.94	215.15
913.24	215.15
913.55	215.14
913.85	215.09
914.15	215.14
914.46	215.16
914.76	215.12
915.06	215.11
915.37	215.08
915.67	215.07
915.97	215.14
916.27	215.15
916.58	215.13
916.88	215.12
917.18	215.12
917.49	215.26
917.79	215.27
918.09	215.34
918.39	215.38
918.70	215.34
919.00	215.33
919.30	215.44
919.60	215.42
919.91	215.41
920.21	215.45
920.51	215.38
920.81	215.38
921.12	215.43
921.42	215.43
921.72	215.44
922.02	215.46
922.32	215.45
922.63	215.44
922.93	215.54
923.23	215.56
923.53	215.54
923.83	215.41
924.13	215.38
924.44	215.33
924.74	215.36
925.04	215.43
925.34	215.41
925.64	215.33
925.94	215.30
926.24	215.43
926.55	215.38
926.85	215.44
927.15	215.43
927.45	215.43
927.75	215.42
928.05	215.40
928.35	215.43
928.65	215.45
928.95	215.48
929.26	215.40
929.56	215.43
929.86	215.44
930.16	215.41
930.46	215.39
930.76	215.42
931.06	215.30
931.36	215.24
931.66	215.28
931.96	215.31
932.26	215.33
932.56	215.22
932.86	215.26
933.16	215.24
933.46	215.21
933.76	215.16
934.06	215.21
934.36	215.31
934.66	215.27
934.96	215.25
935.26	215.27
935.56	215.28
935.86	215.23
936.16	215.21
936.46	215.19
936.76	215.19
937.06	215.13
937.36	215.15
937.66	215.14
937.96	215.13
938.26	215.08
938.56	215.07
938.86	215.14
939.16	215.16
939.46	215.17
939.76	215.20
940.06	215.19
940.35	215.11
940.65	214.98
940.95	215.00
941.25	214.93
941.55	214.90
941.85	214.87
942.15	214.92
942.45	214.97
942.75	214.97
943.04	214.98
943.34	215.04
943.64	215.02
943.94	215.03
944.24	215.03
944.54	215.07
944.84	215.04
945.13	214.99
945.43	214.95
945.73	214.96
946.03	214.90
946.33	214.90
946.62	214.91
946.92	214.92
947.22	214.94
947.52	214.96
947.82	214.97
948.11	214.98
948.41	214.93
948.71	214.86
949.01	214.87
949.31	214.88
949.60	214.86
949.90	214.91
950.20	214.90
950.50	214.90
950.79	214.89
951.09	214.94
951.39	214.90
951.69	214.91
951.98	214.93
952.28	214.96
952.58	214.96
952.87	214.94
953.17	214.98
953.47	214.99
953.76	215.00
954.06	214.97
954.36	214.94
954.66	214.96
954.95	215.02
955.25	215.07
955.55	215.08
955.84	215.05
956.14	215.04
956.44	215.06
956.73	215.02
957.03	215.02
957.32	215.03
957.62	215.08
957.92	215.13
958.21	215.10
958.51	215.33
958.81	215.36
959.10	215.42
959.40	215.48
959.69	215.47
959.99	215.52
960.29	215.53
960.58	215.56
960.88	215.64
961.17	215.63
961.47	215.63
961.76	215.63
962.06	215.66
962.36	215.68
962.65	215.67
962.95	215.68
963.24	215.68
963.54	215.67
963.83	215.64
964.13	215.61
964.42	215.58
964.72	215.41
965.01	215.44
965.31	215.42
965.60	215.35
965.90	215.48
966.19	215.41
966.49	215.42
966.78	215.38
967.08	215.39
967.37	215.41
967.67	215.38
967.96	215.41
968.26	215.39
968.55	215.39
968.85	215.40
969.14	215.43
969.43	215.42
969.73	215.40
970.02	215.40
970.32	215.35
970.61	215.34
970.91	215.27
971.20	215.26
971.49	215.24
971.79	215.27
972.08	215.10
972.38	215.13
972.67	215.10
972.96	215.16
973.26	215.10
973.55	215.12
973.85	215.10
974.14	215.06
974.43	215.08
974.73	215.06
975.02	215.04
975.31	215.02
975.61	215.02
975.90	214.99
976.19	214.96
976.49	214.99
976.78	215.04
977.07	215.03
977.37	215.02
977.66	215.00
977.95	214.96
978.24	214.99
978.54	215.02
978.83	214.99
979.12	214.99
979.42	214.96
979.71	214.92
980.00	214.90
980.29	214.89
980.59	214.86
980.88	214.89
981.17	214.88
981.46	214.89
981.76	214.84
982.05	214.91
982.34	214.96
982.63	214.95
982.93	214.92
983.22	214.98
983.51	214.94
983.80	214.98
984.09	214.98
984.39	214.95
984.68	214.92
984.97	214.95
985.26	214.87
985.55	214.86
985.85	214.82
986.14	214.88
986.43	214.92
986.72	214.88
987.01	214.81
987.30	214.77
987.59	214.73
987.89	214.75
988.18	214.67
988.47	214.62
988.76	214.63
989.05	214.58
989.34	214.55
989.63	214.63
989.92	214.59
990.22	214.56
990.51	214.54
990.80	214.55
991.09	214.55
991.38	214.62
991.67	214.62
991.96	214.63
992.25	214.63
992.54	214.56
992.83	214.59
993.12	214.58
993.41	214.64
993.70	214.73
993.99	214.77
994.28	214.84
994.58	214.88
994.87	214.85
995.16	214.87
995.45	214.88
995.74	214.79
996.03	214.81
996.32	214.86
996.61	214.95
996.90	214.92
997.19	214.89
997.48	214.91
997.77	214.88
998.06	214.88
998.34	214.85
998.63	214.87
998.92	214.88
999.21	214.93
999.50	214.93
999.79	214.89
1000.08	214.87
1000.37	214.84
1000.66	214.79
1000.95	214.86
1001.24	214.87
1001.53	214.87
1001.82	214.89
1002.11	214.86
1002.40	214.88
1002.68	214.91
1002.97	215.07
1003.26	215.08
1003.55	215.06
1003.84	215.10
1004.13	215.17
1004.42	215.18
1004.71	215.19
1004.99	215.17
1005.28	215.21
1005.57	215.19
1005.86	215.17
1006.15	215.15
1006.44	215.12
1006.72	215.17
1007.01	215.13
1007.30	215.11
1007.59	215.10
1007.88	215.10
1008.17	215.13
1008.45	215.09
1008.74	215.01
1009.03	214.91
1009.32	214.93
1009.60	214.91
1009.89	214.89
1010.18	214.79
1010.47	214.78
1010.76	214.78
1011.04	214.76
1011.33	214.76
1011.62	214.79
1011.91	214.80
1012.19	214.82
1012.48	214.85
1012.77	214.83
1013.05	214.93
1013.34	214.94
1013.63	214.91
1013.92	214.96
1014.20	214.93
1014.49	214.93
1014.78	214.95
1015.06	214.88
1015.35	214.83
1015.64	214.87
1015.92	214.90
1016.21	214.89
1016.50	214.90
1016.78	214.91
1017.07	214.95
1017.36	214.92
1017.64	214.90
1017.93	214.94
1018.22	214.91
1018.50	214.91
1018.79	214.89
1019.08	214.80
1019.36	214.81
1019.65	214.81
1019.93	214.86
1020.22	214.89
1020.51	215.01
1020.79	215.00
1021.08	214.40
1021.36	214.73
1021.65	214.75
1021.94	214.96
1022.22	214.67
1022.51	214.49
1022.79	216.08
1023.08	215.20
1023.36	217.38
1023.65	214.93
>>>>>End Processed Spectral Data<<<<<
