SpectraSuite Data File
++++++++++++++++++++++++++++++++++++
Date: Tue Jan 29 16:44:24 EST 2013
User: group
Dark Spectrum Present: No
Reference Spectrum Present: No
Number of Sampled Component Spectra: 1
Spectrometers: USB2E7196
Integration Time (usec): 65000 (USB2E7196)
Spectra Averaged: 100 (USB2E7196)
Boxcar Smoothing: 10 (USB2E7196)
Correct for Electrical Dark: No (USB2E7196)
Strobe/Lamp Enabled: No (USB2E7196)
Correct for Detector Non-linearity: No (USB2E7196)
Correct for Stray Light: No (USB2E7196)
Number of Pixels in Processed Spectrum: 2048
>>>>>Begin Processed Spectral Data<<<<<
339.09	0.00
339.48	201.95
339.86	203.55
340.24	204.13
340.63	206.58
341.01	210.51
341.39	208.88
341.78	210.27
342.16	212.05
342.54	211.84
342.93	201.14
343.31	211.30
343.69	211.86
344.07	212.30
344.46	212.79
344.84	213.18
345.22	213.35
345.60	213.63
345.99	213.84
346.37	213.98
346.75	214.08
347.13	214.15
347.52	214.22
347.90	214.35
348.28	214.33
348.66	214.39
349.05	214.35
349.43	214.42
349.81	214.47
350.19	214.55
350.57	214.58
350.96	214.66
351.34	214.76
351.72	214.81
352.10	214.92
352.48	214.96
352.87	214.97
353.25	215.04
353.63	215.09
354.01	215.10
354.39	215.16
354.77	215.27
355.15	215.42
355.54	215.46
355.92	215.44
356.30	215.57
356.68	215.78
357.06	215.86
357.44	215.86
357.82	215.88
358.20	215.92
358.58	215.97
358.97	216.04
359.35	216.14
359.73	216.25
360.11	216.31
360.49	216.38
360.87	216.43
361.25	216.47
361.63	216.60
362.01	216.67
362.39	216.69
362.77	216.70
363.15	216.72
363.53	216.75
363.91	216.78
364.29	216.77
364.67	216.60
365.05	216.62
365.43	216.65
365.81	216.70
366.19	216.80
366.57	216.94
366.95	216.95
367.33	216.84
367.71	216.84
368.09	216.86
368.47	216.82
368.85	216.81
369.23	216.88
369.61	216.76
369.99	216.81
370.37	216.81
370.75	216.90
371.13	216.79
371.51	216.75
371.89	216.75
372.27	216.74
372.65	216.73
373.03	216.69
373.41	216.68
373.78	216.68
374.16	216.57
374.54	216.44
374.92	216.37
375.30	216.40
375.68	216.31
376.06	216.30
376.44	216.29
376.82	216.29
377.19	216.23
377.57	216.20
377.95	216.09
378.33	215.99
378.71	215.84
379.09	215.87
379.47	215.83
379.84	215.77
380.22	215.71
380.60	215.64
380.98	215.59
381.36	215.53
381.73	215.45
382.11	215.46
382.49	215.45
382.87	215.38
383.25	215.32
383.62	215.56
384.00	215.46
384.38	215.43
384.76	215.42
385.13	215.48
385.51	215.44
385.89	215.39
386.27	215.41
386.64	215.40
387.02	215.32
387.40	215.29
387.78	215.25
388.15	215.25
388.53	215.20
388.91	215.20
389.29	215.15
389.66	215.18
390.04	215.10
390.42	215.09
390.79	215.10
391.17	215.11
391.55	214.85
391.92	214.84
392.30	214.82
392.68	214.76
393.05	214.71
393.43	214.75
393.81	214.77
394.18	214.75
394.56	214.79
394.94	214.84
395.31	214.85
395.69	214.95
396.06	214.97
396.44	215.02
396.82	215.01
397.19	215.15
397.57	215.15
397.95	215.21
398.32	215.21
398.70	215.28
399.07	215.38
399.45	215.44
399.82	215.50
400.20	215.57
400.58	215.63
400.95	215.61
401.33	215.69
401.70	215.91
402.08	215.98
402.45	216.02
402.83	216.16
403.20	216.29
403.58	216.35
403.95	216.53
404.33	216.67
404.71	216.84
405.08	217.08
405.46	217.27
405.83	217.46
406.21	217.65
406.58	217.88
406.96	218.08
407.33	218.32
407.70	218.61
408.08	219.08
408.45	219.44
408.83	219.84
409.20	220.19
409.58	220.44
409.95	220.95
410.33	221.45
410.70	221.87
411.08	222.40
411.45	223.04
411.82	223.60
412.20	224.30
412.57	225.12
412.95	225.72
413.32	226.54
413.69	227.38
414.07	228.26
414.44	229.24
414.82	230.24
415.19	231.47
415.56	232.67
415.94	233.86
416.31	235.27
416.68	236.70
417.06	238.31
417.43	239.87
417.81	241.60
418.18	243.39
418.55	245.34
418.93	247.39
419.30	249.49
419.67	251.74
420.04	254.04
420.42	256.41
420.79	259.28
421.16	262.10
421.54	265.00
421.91	268.02
422.28	271.15
422.66	274.48
423.03	277.71
423.40	281.08
423.77	284.66
424.15	288.30
424.52	292.16
424.89	296.31
425.26	300.42
425.64	304.31
426.01	308.61
426.38	313.10
426.75	317.69
427.13	322.39
427.50	327.40
427.87	332.59
428.24	337.82
428.61	342.75
428.99	348.27
429.36	354.31
429.73	360.26
430.10	366.14
430.47	372.26
430.85	378.62
431.22	385.31
431.59	392.45
431.96	399.33
432.33	406.85
432.70	414.22
433.08	422.74
433.45	430.86
433.82	438.93
434.19	447.82
434.56	456.54
434.93	464.93
435.30	473.25
435.68	482.38
436.05	491.36
436.42	500.31
436.79	508.54
437.16	517.35
437.53	526.62
437.90	535.81
438.27	544.73
438.64	553.91
439.01	562.51
439.38	570.05
439.75	577.38
440.13	585.83
440.50	593.76
440.87	600.23
441.24	606.89
441.61	614.22
441.98	619.66
442.35	626.03
442.72	632.48
443.09	638.61
443.46	642.45
443.83	645.05
444.20	647.27
444.57	650.44
444.94	651.87
445.31	653.33
445.68	654.72
446.05	655.36
446.42	654.65
446.79	653.71
447.16	652.70
447.53	651.99
447.90	648.71
448.27	645.43
448.64	640.81
449.01	637.47
449.37	631.54
449.74	625.88
450.11	618.95
450.48	611.50
450.85	604.01
451.22	597.44
451.59	591.29
451.96	585.48
452.33	577.57
452.70	570.48
453.07	562.01
453.43	553.38
453.80	545.07
454.17	537.07
454.54	529.50
454.91	521.28
455.28	513.24
455.65	505.79
456.02	498.22
456.38	491.83
456.75	483.92
457.12	477.33
457.49	470.73
457.86	464.44
458.23	458.99
458.59	452.96
458.96	446.97
459.33	441.64
459.70	436.21
460.07	431.92
460.43	427.00
460.80	422.39
461.17	418.37
461.54	414.16
461.91	410.11
462.27	406.02
462.64	402.56
463.01	398.79
463.38	395.03
463.74	391.33
464.11	388.09
464.48	385.28
464.85	382.17
465.21	379.78
465.58	377.20
465.95	374.05
466.32	371.42
466.68	368.83
467.05	366.21
467.42	363.69
467.78	360.99
468.15	358.42
468.52	356.49
468.88	353.97
469.25	351.74
469.62	349.93
469.98	347.90
470.35	346.09
470.72	344.36
471.08	342.58
471.45	341.05
471.82	339.50
472.18	337.75
472.55	336.56
472.92	335.15
473.28	333.91
473.65	332.72
474.02	331.62
474.38	330.71
474.75	329.96
475.11	329.08
475.48	328.47
475.85	327.98
476.21	327.46
476.58	327.11
476.94	326.85
477.31	326.54
477.67	326.30
478.04	326.16
478.41	326.07
478.77	326.20
479.14	326.12
479.50	326.26
479.87	326.58
480.23	326.90
480.60	327.12
480.96	327.37
481.33	327.95
481.69	328.49
482.06	328.98
482.42	329.46
482.79	330.06
483.15	330.84
483.52	331.78
483.88	332.69
484.25	333.63
484.61	334.66
484.98	335.69
485.34	336.98
485.71	338.32
486.07	339.76
486.44	341.07
486.80	342.75
487.17	344.42
487.53	346.30
487.90	348.14
488.26	350.18
488.62	352.38
488.99	354.46
489.35	356.63
489.72	359.03
490.08	361.53
490.44	364.08
490.81	366.79
491.17	369.49
491.54	372.47
491.90	375.49
492.26	378.70
492.63	382.08
492.99	385.57
493.36	389.26
493.72	393.15
494.08	397.20
494.45	401.37
494.81	405.70
495.17	410.05
495.54	414.80
495.90	419.59
496.26	424.52
496.63	429.68
496.99	435.07
497.35	440.62
497.72	446.40
498.08	452.34
498.44	458.43
498.80	464.90
499.17	471.41
499.53	478.13
499.89	485.08
500.26	492.05
500.62	499.08
500.98	506.45
501.34	513.89
501.71	521.69
502.07	529.52
502.43	537.59
502.79	545.82
503.16	554.17
503.52	562.74
503.88	571.43
504.24	580.40
504.60	589.49
504.97	598.75
505.33	608.04
505.69	617.88
506.05	627.79
506.41	637.67
506.78	647.70
507.14	657.92
507.50	668.36
507.86	679.14
508.22	689.96
508.59	700.68
508.95	711.84
509.31	723.05
509.67	734.44
510.03	745.76
510.39	757.42
510.75	769.31
511.12	781.23
511.48	793.34
511.84	805.67
512.20	818.01
512.56	830.67
512.92	843.47
513.28	856.19
513.64	868.91
514.00	881.72
514.37	894.71
514.73	907.82
515.09	920.85
515.45	933.80
515.81	946.94
516.17	960.36
516.53	973.58
516.89	986.72
517.25	1000.01
517.61	1013.60
517.97	1026.96
518.33	1040.10
518.69	1053.67
519.05	1067.44
519.41	1081.19
519.77	1095.16
520.13	1108.45
520.49	1121.69
520.85	1135.08
521.21	1148.48
521.57	1162.27
521.93	1175.42
522.29	1189.19
522.65	1202.87
523.01	1216.50
523.37	1229.66
523.73	1242.93
524.09	1256.19
524.45	1269.68
524.81	1283.30
525.17	1296.78
525.53	1310.18
525.89	1323.59
526.25	1336.82
526.61	1349.77
526.97	1362.72
527.33	1375.68
527.68	1389.23
528.04	1402.82
528.40	1416.07
528.76	1429.50
529.12	1442.39
529.48	1455.76
529.84	1468.14
530.20	1480.90
530.56	1493.60
530.91	1506.99
531.27	1520.01
531.63	1532.91
531.99	1545.79
532.35	1558.06
532.71	1570.44
533.07	1583.40
533.42	1595.70
533.78	1607.95
534.14	1620.00
534.50	1631.44
534.86	1643.15
535.21	1654.08
535.57	1665.56
535.93	1676.86
536.29	1688.15
536.65	1699.75
537.00	1710.88
537.36	1722.42
537.72	1733.55
538.08	1745.13
538.44	1756.14
538.79	1767.35
539.15	1778.23
539.51	1789.15
539.87	1800.53
540.22	1811.49
540.58	1822.44
540.94	1833.53
541.29	1843.92
541.65	1853.90
542.01	1864.45
542.37	1874.57
542.72	1884.95
543.08	1894.90
543.44	1905.49
543.79	1914.81
544.15	1924.41
544.51	1934.46
544.87	1944.38
545.22	1953.60
545.58	1962.31
545.94	1971.30
546.29	1979.84
546.65	1988.17
547.01	1996.30
547.36	2004.04
547.72	2011.89
548.07	2019.56
548.43	2027.25
548.79	2035.27
549.14	2043.43
549.50	2051.90
549.86	2059.89
550.21	2067.29
550.57	2075.05
550.92	2081.91
551.28	2089.49
551.64	2096.75
551.99	2104.21
552.35	2111.53
552.70	2118.54
553.06	2125.41
553.41	2131.71
553.77	2138.30
554.13	2144.90
554.48	2152.13
554.84	2159.33
555.19	2165.86
555.55	2172.36
555.90	2178.70
556.26	2185.47
556.61	2191.64
556.97	2196.45
557.32	2202.06
557.68	2208.59
558.03	2214.33
558.39	2219.69
558.74	2225.51
559.10	2231.03
559.45	2236.65
559.81	2242.32
560.16	2247.76
560.52	2253.66
560.87	2260.13
561.23	2265.83
561.58	2272.41
561.94	2277.52
562.29	2282.11
562.64	2288.16
563.00	2293.89
563.35	2299.49
563.71	2305.06
564.06	2310.75
564.42	2316.75
564.77	2321.79
565.12	2326.82
565.48	2331.84
565.83	2337.19
566.19	2342.57
566.54	2347.85
566.89	2352.36
567.25	2356.67
567.60	2362.51
567.96	2367.53
568.31	2371.89
568.66	2376.27
569.02	2380.12
569.37	2383.76
569.72	2388.13
570.08	2391.59
570.43	2394.57
570.78	2397.66
571.14	2400.10
571.49	2402.97
571.84	2406.43
572.20	2409.44
572.55	2412.31
572.90	2414.56
573.26	2417.32
573.61	2419.76
573.96	2421.89
574.31	2423.85
574.67	2425.55
575.02	2426.12
575.37	2427.41
575.72	2428.06
576.08	2429.39
576.43	2429.47
576.78	2429.87
577.13	2431.30
577.49	2432.20
577.84	2432.93
578.19	2433.98
578.54	2434.43
578.90	2434.95
579.25	2434.61
579.60	2434.36
579.95	2433.53
580.30	2433.42
580.66	2432.64
581.01	2430.94
581.36	2428.33
581.71	2426.64
582.06	2425.43
582.42	2424.31
582.77	2421.88
583.12	2420.12
583.47	2418.57
583.82	2417.73
584.17	2416.34
584.53	2414.05
584.88	2411.93
585.23	2409.93
585.58	2407.59
585.93	2405.50
586.28	2403.32
586.63	2400.80
586.98	2398.52
587.34	2396.42
587.69	2393.92
588.04	2391.68
588.39	2390.01
588.74	2387.45
589.09	2384.67
589.44	2381.32
589.79	2378.79
590.14	2376.75
590.49	2373.71
590.84	2369.66
591.19	2366.39
591.54	2363.11
591.89	2358.97
592.25	2355.60
592.60	2351.38
592.95	2347.11
593.30	2342.79
593.65	2338.28
594.00	2333.78
594.35	2330.62
594.70	2325.83
595.05	2321.29
595.40	2315.76
595.75	2309.92
596.10	2306.15
596.45	2301.24
596.80	2296.58
597.15	2291.34
597.50	2285.41
597.85	2280.49
598.19	2275.22
598.54	2269.46
598.89	2264.04
599.24	2259.27
599.59	2253.00
599.94	2247.12
600.29	2241.13
600.64	2235.17
600.99	2228.29
601.34	2222.62
601.69	2215.61
602.04	2209.31
602.39	2202.43
602.74	2196.19
603.08	2190.72
603.43	2184.16
603.78	2177.20
604.13	2170.14
604.48	2162.74
604.83	2156.44
605.18	2150.14
605.53	2143.31
605.87	2136.24
606.22	2129.45
606.57	2121.60
606.92	2113.69
607.27	2106.81
607.62	2100.13
607.96	2093.13
608.31	2086.70
608.66	2078.92
609.01	2071.22
609.36	2063.87
609.70	2056.29
610.05	2048.68
610.40	2040.23
610.75	2031.83
611.10	2024.21
611.44	2015.25
611.79	2006.66
612.14	1996.85
612.49	1986.15
612.83	1976.72
613.18	1967.37
613.53	1958.07
613.88	1948.52
614.22	1939.85
614.57	1929.89
614.92	1919.27
615.27	1909.12
615.61	1899.07
615.96	1889.45
616.31	1879.81
616.65	1870.45
617.00	1860.74
617.35	1850.97
617.70	1841.24
618.04	1831.40
618.39	1821.21
618.74	1811.64
619.08	1801.93
619.43	1793.26
619.78	1785.06
620.12	1776.59
620.47	1767.04
620.82	1756.67
621.16	1746.94
621.51	1737.08
621.85	1727.27
622.20	1717.20
622.55	1706.62
622.89	1696.59
623.24	1687.03
623.59	1677.31
623.93	1667.34
624.28	1657.51
624.62	1647.44
624.97	1637.24
625.32	1627.43
625.66	1618.56
626.01	1609.83
626.35	1600.57
626.70	1590.52
627.04	1580.55
627.39	1570.44
627.73	1561.28
628.08	1552.50
628.43	1542.92
628.77	1533.74
629.12	1525.02
629.46	1517.02
629.81	1508.71
630.15	1499.33
630.50	1489.49
630.84	1479.19
631.19	1469.29
631.53	1460.10
631.88	1450.11
632.22	1440.23
632.57	1430.90
632.91	1420.90
633.26	1411.06
633.60	1401.60
633.95	1392.44
634.29	1383.01
634.64	1373.73
634.98	1363.79
635.32	1354.53
635.67	1346.17
636.01	1337.01
636.36	1327.30
636.70	1317.84
637.05	1308.63
637.39	1299.74
637.73	1291.28
638.08	1283.68
638.42	1275.65
638.77	1266.93
639.11	1258.68
639.45	1250.92
639.80	1242.50
640.14	1233.83
640.49	1225.10
640.83	1216.25
641.17	1208.05
641.52	1200.00
641.86	1191.48
642.20	1183.73
642.55	1175.18
642.89	1166.37
643.23	1157.74
643.58	1149.61
643.92	1140.62
644.26	1131.84
644.61	1123.39
644.95	1114.57
645.29	1105.47
645.64	1096.29
645.98	1087.79
646.32	1079.90
646.66	1071.45
647.01	1063.11
647.35	1055.10
647.69	1046.77
648.04	1038.48
648.38	1029.70
648.72	1020.88
649.06	1012.60
649.41	1004.42
649.75	996.45
650.09	988.59
650.43	980.54
650.78	972.21
651.12	964.47
651.46	957.08
651.80	949.89
652.14	942.65
652.49	935.11
652.83	927.80
653.17	920.13
653.51	912.60
653.85	905.36
654.20	898.09
654.54	890.52
654.88	883.26
655.22	876.16
655.56	869.16
655.90	862.40
656.25	855.64
656.59	848.73
656.93	841.72
657.27	834.73
657.61	827.77
657.95	821.70
658.29	815.82
658.64	809.77
658.98	803.38
659.32	796.76
659.66	790.50
660.00	784.11
660.34	778.13
660.68	771.88
661.02	765.51
661.36	759.59
661.70	753.81
662.05	748.25
662.39	742.67
662.73	737.17
663.07	731.84
663.41	726.19
663.75	720.45
664.09	714.77
664.43	709.20
664.77	703.85
665.11	698.04
665.45	692.10
665.79	686.21
666.13	680.44
666.47	674.94
666.81	669.63
667.15	664.28
667.49	658.97
667.83	653.81
668.17	648.50
668.51	643.34
668.85	638.45
669.19	633.45
669.53	628.37
669.87	623.26
670.21	618.41
670.55	613.64
670.89	609.22
671.23	604.88
671.57	600.51
671.91	596.22
672.25	592.06
672.58	587.93
672.92	583.92
673.26	580.02
673.60	576.14
673.94	572.16
674.28	568.54
674.62	564.80
674.96	560.98
675.30	557.49
675.64	553.83
675.97	550.16
676.31	546.56
676.65	542.98
676.99	539.60
677.33	535.77
677.67	532.13
678.01	528.23
678.34	524.55
678.68	521.02
679.02	517.37
679.36	513.67
679.70	510.05
680.04	506.46
680.37	502.91
680.71	499.60
681.05	496.41
681.39	493.04
681.73	489.80
682.06	486.82
682.40	483.70
682.74	480.47
683.08	477.27
683.42	474.12
683.75	471.08
684.09	467.95
684.43	465.16
684.77	462.19
685.10	459.31
685.44	456.33
685.78	453.37
686.12	450.64
686.45	447.89
686.79	445.19
687.13	442.61
687.46	440.01
687.80	437.30
688.14	434.43
688.48	431.82
688.81	429.19
689.15	426.58
689.49	423.95
689.82	421.43
690.16	418.76
690.50	416.24
690.83	413.71
691.17	411.14
691.51	408.55
691.84	406.27
692.18	404.00
692.52	401.80
692.85	399.63
693.19	397.41
693.52	395.19
693.86	392.94
694.20	390.74
694.53	388.53
694.87	386.31
695.21	384.13
695.54	381.94
695.88	379.73
696.21	377.47
696.55	375.29
696.88	373.20
697.22	371.20
697.56	369.22
697.89	367.34
698.23	365.58
698.56	363.74
698.90	361.95
699.23	360.06
699.57	358.15
699.90	356.25
700.24	354.43
700.58	352.65
700.91	350.96
701.25	349.37
701.58	347.78
701.92	346.17
702.25	344.54
702.59	342.89
702.92	341.33
703.26	339.76
703.59	338.29
703.93	337.02
704.26	335.59
704.60	334.09
704.93	332.55
705.26	331.02
705.60	329.58
705.93	328.02
706.27	326.67
706.60	325.39
706.94	324.10
707.27	322.67
707.61	321.33
707.94	319.95
708.27	318.43
708.61	316.93
708.94	315.52
709.28	314.22
709.61	312.93
709.94	311.74
710.28	310.47
710.61	309.25
710.95	307.77
711.28	306.68
711.61	305.52
711.95	304.38
712.28	303.15
712.61	301.95
712.95	300.90
713.28	299.82
713.61	298.68
713.95	297.55
714.28	296.52
714.61	295.45
714.95	294.41
715.28	293.35
715.61	292.36
715.95	291.33
716.28	290.33
716.61	289.39
716.95	288.37
717.28	287.45
717.61	286.47
717.94	285.61
718.28	284.54
718.61	283.61
718.94	282.70
719.27	281.83
719.61	281.02
719.94	280.12
720.27	279.15
720.60	278.23
720.94	277.39
721.27	276.64
721.60	275.91
721.93	275.16
722.27	274.50
722.60	273.81
722.93	273.11
723.26	272.43
723.59	271.70
723.93	271.05
724.26	270.40
724.59	269.75
724.92	269.11
725.25	268.57
725.59	268.01
725.92	267.47
726.25	266.89
726.58	266.31
726.91	265.73
727.24	265.20
727.57	264.65
727.91	264.06
728.24	263.50
728.57	262.88
728.90	262.36
729.23	261.70
729.56	261.26
729.89	260.72
730.22	260.13
730.55	259.58
730.89	259.01
731.22	258.45
731.55	257.90
731.88	257.38
732.21	256.82
732.54	256.25
732.87	255.75
733.20	255.27
733.53	254.76
733.86	254.29
734.19	253.79
734.52	253.36
734.85	253.09
735.18	252.60
735.51	252.21
735.84	251.73
736.17	251.37
736.50	250.82
736.83	250.64
737.16	250.28
737.49	249.91
737.82	249.49
738.15	249.11
738.48	248.77
738.81	248.33
739.14	247.91
739.47	247.51
739.80	247.13
740.13	246.72
740.46	246.29
740.79	245.86
741.12	245.49
741.45	245.09
741.78	244.60
742.11	244.27
742.44	243.90
742.77	243.59
743.10	243.26
743.43	242.87
743.75	242.30
744.08	242.22
744.41	241.84
744.74	241.49
745.07	241.12
745.40	240.76
745.73	240.53
746.06	240.20
746.39	239.91
746.71	239.54
747.04	239.23
747.37	238.92
747.70	238.65
748.03	238.34
748.36	238.08
748.68	237.77
749.01	237.41
749.34	237.12
749.67	236.83
750.00	236.56
750.33	236.45
750.65	236.22
750.98	235.66
751.31	235.43
751.64	235.19
751.97	235.06
752.29	234.82
752.62	234.45
752.95	234.17
753.28	233.90
753.60	233.64
753.93	233.49
754.26	233.29
754.59	232.99
754.91	232.75
755.24	232.52
755.57	232.27
755.90	232.10
756.22	231.88
756.55	231.62
756.88	231.33
757.20	231.00
757.53	230.76
757.86	230.57
758.19	230.35
758.51	230.14
758.84	229.84
759.17	229.61
759.49	229.48
759.82	229.41
760.15	229.23
760.47	229.03
760.80	228.79
761.13	228.63
761.45	228.42
761.78	228.23
762.11	228.02
762.43	227.82
762.76	227.62
763.08	227.40
763.41	227.26
763.74	227.13
764.06	226.94
764.39	226.75
764.71	226.56
765.04	226.45
765.37	226.26
765.69	226.11
766.02	225.97
766.34	225.82
766.67	225.59
767.00	225.50
767.32	225.50
767.65	225.46
767.97	225.31
768.30	225.22
768.62	225.10
768.95	224.94
769.27	224.83
769.60	224.73
769.92	224.61
770.25	224.47
770.57	224.32
770.90	224.20
771.22	224.08
771.55	224.00
771.87	223.86
772.20	223.75
772.52	223.80
772.85	223.89
773.17	223.78
773.50	223.65
773.82	223.53
774.15	223.32
774.47	223.09
774.80	222.97
775.12	222.88
775.45	222.78
775.77	222.72
776.09	222.63
776.42	222.54
776.74	222.52
777.07	222.38
777.39	222.29
777.72	222.15
778.04	222.08
778.36	221.99
778.69	221.91
779.01	221.88
779.33	221.60
779.66	221.33
779.98	221.22
780.31	221.16
780.63	221.16
780.95	221.13
781.28	221.07
781.60	220.98
781.92	220.91
782.25	220.82
782.57	220.73
782.89	220.65
783.22	220.55
783.54	220.40
783.86	220.41
784.19	220.35
784.51	220.36
784.83	220.29
785.16	220.21
785.48	220.13
785.80	220.06
786.12	220.05
786.45	219.98
786.77	219.94
787.09	219.87
787.42	219.73
787.74	219.63
788.06	219.60
788.38	219.50
788.71	219.43
789.03	219.41
789.35	219.37
789.67	219.30
789.99	219.28
790.32	219.21
790.64	219.16
790.96	219.29
791.28	219.17
791.61	219.10
791.93	219.07
792.25	219.01
792.57	219.12
792.89	219.04
793.21	218.97
793.54	218.91
793.86	218.85
794.18	218.83
794.50	218.76
794.82	218.72
795.14	218.71
795.47	218.69
795.79	218.62
796.11	218.57
796.43	218.56
796.75	218.50
797.07	218.46
797.39	218.38
797.71	218.15
798.04	218.14
798.36	218.10
798.68	218.03
799.00	218.03
799.32	217.87
799.64	217.87
799.96	217.86
800.28	217.84
800.60	217.80
800.92	217.75
801.24	217.69
801.56	217.68
801.89	217.64
802.21	217.66
802.53	217.61
802.85	217.60
803.17	217.66
803.49	217.60
803.81	217.57
804.13	217.55
804.45	217.51
804.77	217.53
805.09	217.53
805.41	217.49
805.73	217.38
806.05	217.31
806.37	217.26
806.69	217.23
807.01	217.19
807.33	217.18
807.65	217.09
807.97	217.15
808.28	217.07
808.60	217.04
808.92	216.95
809.24	217.08
809.56	217.03
809.88	216.91
810.20	216.89
810.52	216.91
810.84	216.85
811.16	216.78
811.48	216.70
811.80	216.69
812.12	216.69
812.43	216.71
812.75	216.71
813.07	216.69
813.39	216.65
813.71	216.57
814.03	216.52
814.35	216.51
814.67	216.41
814.98	216.39
815.30	216.36
815.62	216.30
815.94	216.12
816.26	216.09
816.58	216.03
816.89	216.03
817.21	215.96
817.53	215.97
817.85	215.97
818.17	215.99
818.48	215.90
818.80	215.94
819.12	215.87
819.44	215.83
819.76	215.79
820.07	215.77
820.39	215.77
820.71	215.77
821.03	215.75
821.34	215.72
821.66	215.74
821.98	215.74
822.30	215.73
822.61	215.85
822.93	215.82
823.25	215.80
823.57	215.78
823.88	215.80
824.20	215.80
824.52	215.83
824.83	215.77
825.15	215.74
825.47	215.68
825.79	215.69
826.10	215.67
826.42	215.64
826.74	215.66
827.05	215.66
827.37	215.63
827.69	215.60
828.00	215.60
828.32	215.57
828.64	215.56
828.95	215.62
829.27	215.54
829.58	215.53
829.90	215.60
830.22	215.60
830.53	215.52
830.85	215.47
831.17	215.39
831.48	215.39
831.80	215.38
832.11	215.36
832.43	215.35
832.75	215.32
833.06	215.43
833.38	215.33
833.69	215.32
834.01	215.35
834.32	215.33
834.64	215.29
834.96	215.29
835.27	215.25
835.59	215.18
835.90	215.13
836.22	215.11
836.53	215.03
836.85	215.00
837.16	215.26
837.48	215.25
837.79	215.32
838.11	215.36
838.42	215.35
838.74	215.37
839.05	215.34
839.37	215.33
839.68	215.20
840.00	215.22
840.31	215.22
840.63	215.16
840.94	215.15
841.26	215.13
841.57	215.12
841.88	215.16
842.20	215.12
842.51	215.13
842.83	215.13
843.14	215.33
843.46	215.33
843.77	215.12
844.08	215.12
844.40	215.04
844.71	215.00
845.03	214.99
845.34	214.94
845.65	214.95
845.97	214.98
846.28	214.98
846.60	215.00
846.91	214.96
847.22	214.95
847.54	215.01
847.85	215.02
848.16	215.01
848.48	214.96
848.79	215.02
849.10	215.04
849.42	215.05
849.73	214.84
850.04	214.83
850.36	214.81
850.67	214.89
850.98	214.89
851.30	214.91
851.61	214.90
851.92	214.90
852.23	214.94
852.55	214.91
852.86	214.89
853.17	214.90
853.49	214.94
853.80	214.98
854.11	214.98
854.42	215.00
854.74	214.95
855.05	214.95
855.36	214.87
855.67	214.85
855.99	214.82
856.30	215.05
856.61	215.04
856.92	215.02
857.23	214.99
857.55	214.96
857.86	214.94
858.17	214.99
858.48	214.94
858.79	214.90
859.11	214.95
859.42	214.91
859.73	214.89
860.04	214.89
860.35	214.84
860.66	214.80
860.98	214.81
861.29	214.87
861.60	214.84
861.91	214.88
862.22	214.84
862.53	214.82
862.84	214.58
863.16	214.61
863.47	214.56
863.78	214.51
864.09	214.52
864.40	214.49
864.71	214.48
865.02	214.51
865.33	214.48
865.64	214.42
865.95	214.45
866.27	214.56
866.58	214.54
866.89	214.57
867.20	214.52
867.51	214.48
867.82	214.46
868.13	214.54
868.44	214.51
868.75	214.55
869.06	214.56
869.37	214.57
869.68	214.50
869.99	214.55
870.30	214.57
870.61	214.59
870.92	214.59
871.23	214.55
871.54	214.60
871.85	214.67
872.16	214.68
872.47	214.67
872.78	214.56
873.09	214.58
873.40	214.55
873.71	214.58
874.02	214.58
874.33	214.54
874.64	214.49
874.95	214.52
875.26	214.47
875.56	214.45
875.87	214.45
876.18	214.45
876.49	214.66
876.80	214.62
877.11	214.62
877.42	214.64
877.73	214.65
878.04	214.56
878.35	214.57
878.66	214.57
878.96	214.57
879.27	214.55
879.58	214.54
879.89	214.51
880.20	214.56
880.51	214.55
880.82	214.55
881.12	214.58
881.43	214.51
881.74	214.50
882.05	214.49
882.36	214.50
882.67	214.51
882.97	214.27
883.28	214.26
883.59	214.24
883.90	214.27
884.21	214.27
884.51	214.28
884.82	214.21
885.13	214.22
885.44	214.22
885.74	214.21
886.05	214.19
886.36	214.19
886.67	214.12
886.98	214.24
887.28	214.27
887.59	214.25
887.90	214.27
888.20	214.29
888.51	214.33
888.82	214.31
889.13	214.30
889.43	214.49
889.74	214.46
890.05	214.45
890.35	214.38
890.66	214.39
890.97	214.38
891.28	214.36
891.58	214.36
891.89	214.37
892.20	214.38
892.50	214.39
892.81	214.38
893.12	214.39
893.42	214.30
893.73	214.30
894.04	214.29
894.34	214.28
894.65	214.27
894.95	214.26
895.26	214.23
895.57	214.32
895.87	214.13
896.18	214.21
896.48	214.21
896.79	214.22
897.10	214.22
897.40	214.23
897.71	214.27
898.01	214.25
898.32	214.29
898.63	214.26
898.93	214.26
899.24	214.28
899.54	214.26
899.85	214.22
900.15	214.17
900.46	214.18
900.76	214.23
901.07	214.23
901.38	214.17
901.68	214.21
901.99	214.13
902.29	214.15
902.60	214.11
902.90	214.09
903.21	214.08
903.51	214.04
903.82	214.08
904.12	214.10
904.43	214.09
904.73	214.07
905.03	214.11
905.34	214.29
905.64	214.27
905.95	214.30
906.25	214.28
906.56	214.27
906.86	214.26
907.17	214.23
907.47	214.24
907.77	214.22
908.08	214.18
908.38	214.19
908.69	214.22
908.99	214.26
909.30	214.27
909.60	214.25
909.90	214.29
910.21	214.24
910.51	214.20
910.81	214.20
911.12	214.20
911.42	214.15
911.73	213.95
912.03	213.94
912.33	213.97
912.64	213.96
912.94	213.97
913.24	213.91
913.55	213.91
913.85	213.92
914.15	213.99
914.46	214.00
914.76	213.97
915.06	213.94
915.37	213.91
915.67	213.89
915.97	213.91
916.27	213.88
916.58	213.88
916.88	213.84
917.18	213.81
917.49	213.92
917.79	213.94
918.09	213.92
918.39	214.01
918.70	214.01
919.00	214.05
919.30	214.15
919.60	214.15
919.91	214.12
920.21	214.11
920.51	214.09
920.81	214.10
921.12	214.12
921.42	214.13
921.72	214.12
922.02	214.16
922.32	214.21
922.63	214.21
922.93	214.30
923.23	214.34
923.53	214.32
923.83	214.20
924.13	214.22
924.44	214.25
924.74	214.26
925.04	214.30
925.34	214.29
925.64	214.21
925.94	214.24
926.24	214.36
926.55	214.35
926.85	214.36
927.15	214.32
927.45	214.33
927.75	214.35
928.05	214.33
928.35	214.32
928.65	214.34
928.95	214.35
929.26	214.27
929.56	214.31
929.86	214.34
930.16	214.36
930.46	214.33
930.76	214.37
931.06	214.29
931.36	214.23
931.66	214.26
931.96	214.29
932.26	214.29
932.56	214.22
932.86	214.21
933.16	214.21
933.46	214.22
933.76	214.19
934.06	214.24
934.36	214.35
934.66	214.37
934.96	214.33
935.26	214.35
935.56	214.39
935.86	214.35
936.16	214.37
936.46	214.33
936.76	214.30
937.06	214.26
937.36	214.28
937.66	214.29
937.96	214.26
938.26	214.23
938.56	214.19
938.86	214.18
939.16	214.24
939.46	214.27
939.76	214.27
940.06	214.26
940.35	214.19
940.65	214.07
940.95	214.07
941.25	214.02
941.55	213.96
941.85	213.93
942.15	213.96
942.45	213.97
942.75	213.94
943.04	213.96
943.34	214.00
943.64	213.95
943.94	213.89
944.24	213.87
944.54	213.87
944.84	213.91
945.13	213.89
945.43	213.84
945.73	213.81
946.03	213.80
946.33	213.76
946.62	213.75
946.92	213.74
947.22	213.73
947.52	213.74
947.82	213.78
948.11	213.77
948.41	213.70
948.71	213.63
949.01	213.69
949.31	213.68
949.60	213.63
949.90	213.68
950.20	213.69
950.50	213.71
950.79	213.70
951.09	213.68
951.39	213.67
951.69	213.68
951.98	213.74
952.28	213.76
952.58	213.81
952.87	213.84
953.17	213.85
953.47	213.84
953.76	213.86
954.06	213.86
954.36	213.83
954.66	213.84
954.95	213.91
955.25	213.91
955.55	213.93
955.84	213.90
956.14	213.92
956.44	213.94
956.73	213.88
957.03	213.89
957.32	213.89
957.62	213.90
957.92	213.93
958.21	213.90
958.51	214.13
958.81	214.15
959.10	214.15
959.40	214.18
959.69	214.21
959.99	214.24
960.29	214.24
960.58	214.25
960.88	214.35
961.17	214.31
961.47	214.33
961.76	214.30
962.06	214.33
962.36	214.30
962.65	214.32
962.95	214.37
963.24	214.38
963.54	214.40
963.83	214.37
964.13	214.37
964.42	214.31
964.72	214.13
965.01	214.12
965.31	214.10
965.60	214.08
965.90	214.18
966.19	214.12
966.49	214.10
966.78	214.09
967.08	214.02
967.37	214.03
967.67	213.99
967.96	214.05
968.26	214.05
968.55	214.06
968.85	214.04
969.14	214.03
969.43	214.01
969.73	214.01
970.02	214.04
970.32	213.98
970.61	213.97
970.91	213.93
971.20	213.90
971.49	213.88
971.79	213.89
972.08	213.76
972.38	213.81
972.67	213.78
972.96	213.79
973.26	213.79
973.55	213.87
973.85	213.85
974.14	213.81
974.43	213.84
974.73	213.80
975.02	213.75
975.31	213.74
975.61	213.75
975.90	213.71
976.19	213.66
976.49	213.70
976.78	213.73
977.07	213.70
977.37	213.68
977.66	213.72
977.95	213.67
978.24	213.68
978.54	213.68
978.83	213.68
979.12	213.65
979.42	213.64
979.71	213.56
980.00	213.54
980.29	213.54
980.59	213.47
980.88	213.55
981.17	213.58
981.46	213.57
981.76	213.57
982.05	213.64
982.34	213.66
982.63	213.66
982.93	213.66
983.22	213.74
983.51	213.80
983.80	213.85
984.09	213.87
984.39	213.84
984.68	213.84
984.97	213.87
985.26	213.88
985.55	213.92
985.85	213.91
986.14	213.97
986.43	214.02
986.72	214.01
987.01	213.93
987.30	213.93
987.59	213.90
987.89	213.89
988.18	213.84
988.47	213.83
988.76	213.82
989.05	213.79
989.34	213.74
989.63	213.79
989.92	213.73
990.22	213.73
990.51	213.75
990.80	213.72
991.09	213.75
991.38	213.79
991.67	213.75
991.96	213.73
992.25	213.74
992.54	213.70
992.83	213.71
993.12	213.73
993.41	213.74
993.70	213.84
993.99	213.89
994.28	213.89
994.58	213.92
994.87	213.88
995.16	213.88
995.45	213.90
995.74	213.82
996.03	213.83
996.32	213.85
996.61	213.90
996.90	213.91
997.19	213.86
997.48	213.84
997.77	213.81
998.06	213.81
998.34	213.79
998.63	213.80
998.92	213.82
999.21	213.88
999.50	213.88
999.79	213.81
1000.08	213.81
1000.37	213.82
1000.66	213.82
1000.95	213.91
1001.24	213.91
1001.53	213.87
1001.82	213.89
1002.11	213.85
1002.40	213.89
1002.68	213.91
1002.97	214.02
1003.26	214.00
1003.55	213.98
1003.84	214.00
1004.13	214.11
1004.42	214.10
1004.71	214.08
1004.99	214.10
1005.28	214.10
1005.57	214.11
1005.86	214.09
1006.15	214.06
1006.44	214.05
1006.72	214.06
1007.01	214.01
1007.30	214.03
1007.59	214.05
1007.88	214.03
1008.17	214.05
1008.45	213.97
1008.74	213.90
1009.03	213.83
1009.32	213.82
1009.60	213.86
1009.89	213.84
1010.18	213.76
1010.47	213.72
1010.76	213.73
1011.04	213.70
1011.33	213.83
1011.62	213.83
1011.91	213.87
1012.19	213.91
1012.48	213.91
1012.77	213.91
1013.05	214.02
1013.34	214.07
1013.63	214.04
1013.92	214.05
1014.20	214.04
1014.49	214.05
1014.78	214.08
1015.06	214.00
1015.35	214.03
1015.64	214.00
1015.92	214.02
1016.21	214.00
1016.50	214.03
1016.78	214.03
1017.07	214.04
1017.36	213.84
1017.64	213.81
1017.93	213.80
1018.22	213.74
1018.50	213.71
1018.79	213.72
1019.08	213.64
1019.36	213.59
1019.65	213.59
1019.93	213.65
1020.22	213.69
1020.51	213.75
1020.79	213.74
1021.08	213.01
1021.36	213.30
1021.65	214.15
1021.94	214.49
1022.22	213.66
1022.51	213.64
1022.79	214.74
1023.08	214.23
1023.36	215.31
1023.65	213.50
>>>>>End Processed Spectral Data<<<<<
