SpectraSuite Data File
++++++++++++++++++++++++++++++++++++
Date: Tue Jan 29 16:17:58 EST 2013
User: group
Dark Spectrum Present: No
Reference Spectrum Present: No
Number of Sampled Component Spectra: 1
Spectrometers: USB2E7196
Integration Time (usec): 65000 (USB2E7196)
Spectra Averaged: 100 (USB2E7196)
Boxcar Smoothing: 10 (USB2E7196)
Correct for Electrical Dark: No (USB2E7196)
Strobe/Lamp Enabled: No (USB2E7196)
Correct for Detector Non-linearity: No (USB2E7196)
Correct for Stray Light: No (USB2E7196)
Number of Pixels in Processed Spectrum: 2048
>>>>>Begin Processed Spectral Data<<<<<
339.09	0.00
339.48	202.77
339.86	203.88
340.24	206.05
340.63	206.53
341.01	212.25
341.39	209.78
341.78	211.36
342.16	212.33
342.54	212.62
342.93	201.86
343.31	212.05
343.69	212.57
344.07	213.05
344.46	213.45
344.84	213.87
345.22	214.01
345.60	214.24
345.99	214.44
346.37	214.58
346.75	214.70
347.13	214.77
347.52	214.83
347.90	214.94
348.28	214.93
348.66	215.02
349.05	214.97
349.43	214.99
349.81	215.05
350.19	215.08
350.57	215.16
350.96	215.22
351.34	215.31
351.72	215.41
352.10	215.51
352.48	215.59
352.87	215.63
353.25	215.66
353.63	215.72
354.01	215.76
354.39	215.83
354.77	215.88
355.15	216.02
355.54	216.09
355.92	216.10
356.30	216.22
356.68	216.41
357.06	216.47
357.44	216.52
357.82	216.56
358.20	216.64
358.58	216.67
358.97	216.75
359.35	216.85
359.73	216.92
360.11	216.95
360.49	216.98
360.87	217.04
361.25	217.14
361.63	217.27
362.01	217.30
362.39	217.34
362.77	217.39
363.15	217.38
363.53	217.44
363.91	217.47
364.29	217.46
364.67	217.28
365.05	217.30
365.43	217.33
365.81	217.37
366.19	217.49
366.57	217.62
366.95	217.61
367.33	217.55
367.71	217.56
368.09	217.61
368.47	217.62
368.85	217.61
369.23	217.61
369.61	217.52
369.99	217.59
370.37	217.60
370.75	217.68
371.13	217.62
371.51	217.56
371.89	217.57
372.27	217.58
372.65	217.57
373.03	217.57
373.41	217.54
373.78	217.50
374.16	217.34
374.54	217.21
374.92	217.14
375.30	217.12
375.68	217.07
376.06	217.04
376.44	217.02
376.82	217.00
377.19	216.96
377.57	216.91
377.95	216.82
378.33	216.77
378.71	216.64
379.09	216.62
379.47	216.63
379.84	216.54
380.22	216.47
380.60	216.41
380.98	216.36
381.36	216.33
381.73	216.26
382.11	216.26
382.49	216.27
382.87	216.23
383.25	216.20
383.62	216.38
384.00	216.29
384.38	216.26
384.76	216.26
385.13	216.29
385.51	216.28
385.89	216.20
386.27	216.16
386.64	216.14
387.02	216.11
387.40	216.05
387.78	216.06
388.15	216.05
388.53	216.04
388.91	216.00
389.29	215.97
389.66	216.01
390.04	215.99
390.42	215.96
390.79	215.97
391.17	215.94
391.55	215.71
391.92	215.72
392.30	215.76
392.68	215.71
393.05	215.69
393.43	215.71
393.81	215.73
394.18	215.70
394.56	215.69
394.94	215.75
395.31	215.71
395.69	215.78
396.06	215.83
396.44	215.85
396.82	215.83
397.19	215.99
397.57	215.98
397.95	216.06
398.32	216.04
398.70	216.08
399.07	216.18
399.45	216.21
399.82	216.24
400.20	216.22
400.58	216.29
400.95	216.25
401.33	216.33
401.70	216.53
402.08	216.61
402.45	216.73
402.83	216.84
403.20	216.96
403.58	217.03
403.95	217.17
404.33	217.32
404.71	217.52
405.08	217.75
405.46	217.92
405.83	218.07
406.21	218.27
406.58	218.51
406.96	218.70
407.33	218.96
407.70	219.25
408.08	219.73
408.45	220.07
408.83	220.47
409.20	220.81
409.58	221.10
409.95	221.54
410.33	222.00
410.70	222.42
411.08	222.99
411.45	223.57
411.82	224.12
412.20	224.81
412.57	225.61
412.95	226.11
413.32	226.92
413.69	227.73
414.07	228.63
414.44	229.55
414.82	230.55
415.19	231.72
415.56	232.86
415.94	234.00
416.31	235.33
416.68	236.69
417.06	238.25
417.43	239.73
417.81	241.46
418.18	243.16
418.55	245.03
418.93	246.97
419.30	249.00
419.67	251.14
420.04	253.34
420.42	255.60
420.79	258.35
421.16	261.03
421.54	263.82
421.91	266.69
422.28	269.70
422.66	272.90
423.03	276.05
423.40	279.29
423.77	282.74
424.15	286.25
424.52	289.95
424.89	293.97
425.26	297.89
425.64	301.60
426.01	305.74
426.38	310.04
426.75	314.43
427.13	319.01
427.50	323.81
427.87	328.78
428.24	333.81
428.61	338.62
428.99	343.97
429.36	349.76
429.73	355.53
430.10	361.13
430.47	366.97
430.85	373.05
431.22	379.50
431.59	386.34
431.96	392.97
432.33	400.20
432.70	407.18
433.08	415.36
433.45	423.13
433.82	430.91
434.19	439.51
434.56	447.93
434.93	455.98
435.30	463.97
435.68	472.80
436.05	481.45
436.42	490.08
436.79	497.91
437.16	506.43
437.53	515.36
437.90	524.23
438.27	532.87
438.64	541.80
439.01	550.04
439.38	557.40
439.75	564.43
440.13	572.63
440.50	580.42
440.87	586.67
441.24	593.10
441.61	600.13
441.98	605.33
442.35	611.42
442.72	617.52
443.09	623.39
443.46	627.05
443.83	629.51
444.20	631.59
444.57	634.66
444.94	635.94
445.31	637.29
445.68	638.67
446.05	639.27
446.42	638.50
446.79	637.62
447.16	636.58
447.53	635.89
447.90	632.61
448.27	629.31
448.64	624.86
449.01	621.70
449.37	616.00
449.74	610.49
450.11	603.87
450.48	596.72
450.85	589.53
451.22	583.21
451.59	577.29
451.96	571.69
452.33	564.05
452.70	557.27
453.07	549.07
453.43	540.76
453.80	532.74
454.17	524.99
454.54	517.70
454.91	509.81
455.28	502.15
455.65	495.01
456.02	487.83
456.38	481.75
456.75	474.12
457.12	467.85
457.49	461.58
457.86	455.64
458.23	450.47
458.59	444.75
458.96	439.03
459.33	433.94
459.70	428.72
460.07	424.66
460.43	419.98
460.80	415.58
461.17	411.74
461.54	407.69
461.91	403.80
462.27	399.84
462.64	396.54
463.01	392.80
463.38	389.22
463.74	385.63
464.11	382.45
464.48	379.75
464.85	376.73
465.21	374.40
465.58	371.78
465.95	368.72
466.32	366.22
466.68	363.70
467.05	361.15
467.42	358.74
467.78	356.15
468.15	353.66
468.52	351.86
468.88	349.47
469.25	347.39
469.62	345.67
469.98	343.76
470.35	342.03
470.72	340.44
471.08	338.75
471.45	337.29
471.82	335.83
472.18	334.23
472.55	333.10
472.92	331.80
473.28	330.67
473.65	329.55
474.02	328.44
474.38	327.60
474.75	326.92
475.11	326.12
475.48	325.60
475.85	325.16
476.21	324.70
476.58	324.36
476.94	324.12
477.31	323.83
477.67	323.64
478.04	323.46
478.41	323.46
478.77	323.64
479.14	323.63
479.50	323.74
479.87	324.03
480.23	324.34
480.60	324.58
480.96	324.86
481.33	325.48
481.69	326.07
482.06	326.54
482.42	326.98
482.79	327.54
483.15	328.27
483.52	329.17
483.88	329.98
484.25	330.86
484.61	331.84
484.98	332.86
485.34	334.10
485.71	335.44
486.07	336.84
486.44	338.12
486.80	339.68
487.17	341.32
487.53	343.14
487.90	344.94
488.26	346.94
488.62	349.06
488.99	351.06
489.35	353.18
489.72	355.59
490.08	358.13
490.44	360.72
490.81	363.43
491.17	366.19
491.54	369.22
491.90	372.31
492.26	375.57
492.63	379.00
492.99	382.50
493.36	386.21
493.72	390.11
494.08	394.12
494.45	398.36
494.81	402.76
495.17	407.19
495.54	411.96
495.90	416.74
496.26	421.70
496.63	426.95
496.99	432.34
497.35	437.86
497.72	443.69
498.08	449.63
498.44	455.73
498.80	462.15
499.17	468.68
499.53	475.34
499.89	482.25
500.26	489.27
500.62	496.38
500.98	503.73
501.34	511.15
501.71	518.89
502.07	526.72
502.43	534.69
502.79	542.81
503.16	551.15
503.52	559.67
503.88	568.39
504.24	577.29
504.60	586.26
504.97	595.46
505.33	604.63
505.69	614.41
506.05	624.20
506.41	633.99
506.78	643.95
507.14	654.11
507.50	664.39
507.86	674.88
508.22	685.54
508.59	696.17
508.95	707.09
509.31	718.29
509.67	729.63
510.03	740.89
510.39	752.55
510.75	764.30
511.12	776.10
511.48	788.04
511.84	800.10
512.20	812.29
512.56	824.82
512.92	837.49
513.28	849.97
513.64	862.55
514.00	875.23
514.37	887.98
514.73	900.96
515.09	913.73
515.45	926.52
515.81	939.39
516.17	952.46
516.53	965.52
516.89	978.46
517.25	991.49
517.61	1004.85
517.97	1018.05
518.33	1030.94
518.69	1044.28
519.05	1057.78
519.41	1071.20
519.77	1085.01
520.13	1097.99
520.49	1110.91
520.85	1124.04
521.21	1137.15
521.57	1150.48
521.93	1163.35
522.29	1176.78
522.65	1190.24
523.01	1203.54
523.37	1216.37
523.73	1229.48
524.09	1242.38
524.45	1255.41
524.81	1268.48
525.17	1281.47
525.53	1294.32
525.89	1307.24
526.25	1320.05
526.61	1332.56
526.97	1345.37
527.33	1357.85
527.68	1371.07
528.04	1384.25
528.40	1397.12
528.76	1410.22
529.12	1422.81
529.48	1435.77
529.84	1447.75
530.20	1460.18
530.56	1472.53
530.91	1485.52
531.27	1498.04
531.63	1510.53
531.99	1522.86
532.35	1534.76
532.71	1546.84
533.07	1559.34
533.42	1571.35
533.78	1583.06
534.14	1594.82
534.50	1605.65
534.86	1617.00
535.21	1627.44
535.57	1638.40
535.93	1649.33
536.29	1659.98
536.65	1670.98
537.00	1681.59
537.36	1692.51
537.72	1703.02
538.08	1713.73
538.44	1724.20
538.79	1734.68
539.15	1744.78
539.51	1754.95
539.87	1765.58
540.22	1775.87
540.58	1786.13
540.94	1796.32
541.29	1806.05
541.65	1815.06
542.01	1824.98
542.37	1834.45
542.72	1844.17
543.08	1853.62
543.44	1863.48
543.79	1872.30
544.15	1881.27
544.51	1890.87
544.87	1900.46
545.22	1909.26
545.58	1918.14
545.94	1926.68
546.29	1935.10
546.65	1943.49
547.01	1951.64
547.36	1959.40
547.72	1966.94
548.07	1974.64
548.43	1982.40
548.79	1990.30
549.14	1998.59
549.50	2007.07
549.86	2014.87
550.21	2022.34
550.57	2030.08
550.92	2036.85
551.28	2044.42
551.64	2051.73
551.99	2058.99
552.35	2066.03
552.70	2072.96
553.06	2079.50
553.41	2085.73
553.77	2092.18
554.13	2098.44
554.48	2105.40
554.84	2112.44
555.19	2119.01
555.55	2125.37
555.90	2131.52
556.26	2138.17
556.61	2143.96
556.97	2148.69
557.32	2154.47
557.68	2160.73
558.03	2166.21
558.39	2171.43
558.74	2177.25
559.10	2182.78
559.45	2188.43
559.81	2193.90
560.16	2199.40
560.52	2205.18
560.87	2211.43
561.23	2217.35
561.58	2224.04
561.94	2229.26
562.29	2234.00
562.64	2240.09
563.00	2245.62
563.35	2251.22
563.71	2257.00
564.06	2262.65
564.42	2268.54
564.77	2273.67
565.12	2278.97
565.48	2284.24
565.83	2289.88
566.19	2295.39
566.54	2300.77
566.89	2305.36
567.25	2310.03
567.60	2315.76
567.96	2320.94
568.31	2325.66
568.66	2329.83
569.02	2333.60
569.37	2337.34
569.72	2341.78
570.08	2345.18
570.43	2348.22
570.78	2351.23
571.14	2353.84
571.49	2357.14
571.84	2360.81
572.20	2363.58
572.55	2366.52
572.90	2368.70
573.26	2371.63
573.61	2374.00
573.96	2376.15
574.31	2378.21
574.67	2380.18
575.02	2381.02
575.37	2382.48
575.72	2383.35
576.08	2384.95
576.43	2385.32
576.78	2386.01
577.13	2387.59
577.49	2388.88
577.84	2390.21
578.19	2391.78
578.54	2392.48
578.90	2393.41
579.25	2393.36
579.60	2393.56
579.95	2393.06
580.30	2393.54
580.66	2392.85
581.01	2391.31
581.36	2389.23
581.71	2387.89
582.06	2386.82
582.42	2386.14
582.77	2384.23
583.12	2382.70
583.47	2381.56
583.82	2380.96
584.17	2379.77
584.53	2377.77
584.88	2375.93
585.23	2374.15
585.58	2372.00
585.93	2369.96
586.28	2367.92
586.63	2365.70
586.98	2363.59
587.34	2361.65
587.69	2359.33
588.04	2357.47
588.39	2356.25
588.74	2353.91
589.09	2351.42
589.44	2348.59
589.79	2346.14
590.14	2344.22
590.49	2341.70
590.84	2338.00
591.19	2335.31
591.54	2332.24
591.89	2328.59
592.25	2325.38
592.60	2321.44
592.95	2317.61
593.30	2313.74
593.65	2309.47
594.00	2305.38
594.35	2302.43
594.70	2298.05
595.05	2293.64
595.40	2288.30
595.75	2282.87
596.10	2279.35
596.45	2274.66
596.80	2270.19
597.15	2265.08
597.50	2259.34
597.85	2254.52
598.19	2249.35
598.54	2243.71
598.89	2238.84
599.24	2234.24
599.59	2228.25
599.94	2222.56
600.29	2216.67
600.64	2210.84
600.99	2204.29
601.34	2198.81
601.69	2192.00
602.04	2185.73
602.39	2179.16
602.74	2173.39
603.08	2167.88
603.43	2161.56
603.78	2154.87
604.13	2147.79
604.48	2140.81
604.83	2134.79
605.18	2128.46
605.53	2121.61
605.87	2114.38
606.22	2107.31
606.57	2099.29
606.92	2091.34
607.27	2084.28
607.62	2077.54
607.96	2070.39
608.31	2063.69
608.66	2055.82
609.01	2048.10
609.36	2040.77
609.70	2032.99
610.05	2025.07
610.40	2016.63
610.75	2008.23
611.10	2000.70
611.44	1991.95
611.79	1983.07
612.14	1973.03
612.49	1962.45
612.83	1953.23
613.18	1944.26
613.53	1935.25
613.88	1925.94
614.22	1917.49
614.57	1907.84
614.92	1897.52
615.27	1887.67
615.61	1877.94
615.96	1868.53
616.31	1859.19
616.65	1850.12
617.00	1840.44
617.35	1830.86
617.70	1821.37
618.04	1811.55
618.39	1801.28
618.74	1791.72
619.08	1782.38
619.43	1773.84
619.78	1765.74
620.12	1757.18
620.47	1747.59
620.82	1737.32
621.16	1727.61
621.51	1717.93
621.85	1708.03
622.20	1697.62
622.55	1687.22
622.89	1677.41
623.24	1667.80
623.59	1658.18
623.93	1648.05
624.28	1638.51
624.62	1628.45
624.97	1618.32
625.32	1608.61
625.66	1599.87
626.01	1591.09
626.35	1581.74
626.70	1571.64
627.04	1561.60
627.39	1551.53
627.73	1542.41
628.08	1533.45
628.43	1523.93
628.77	1514.77
629.12	1506.07
629.46	1498.39
629.81	1489.90
630.15	1480.36
630.50	1470.49
630.84	1460.03
631.19	1450.20
631.53	1440.83
631.88	1430.76
632.22	1420.77
632.57	1411.47
632.91	1401.34
633.26	1391.61
633.60	1382.02
633.95	1372.91
634.29	1363.58
634.64	1354.31
634.98	1344.36
635.32	1335.12
635.67	1326.59
636.01	1317.32
636.36	1307.54
636.70	1298.06
637.05	1288.80
637.39	1279.90
637.73	1271.40
638.08	1263.78
638.42	1255.70
638.77	1246.96
639.11	1238.86
639.45	1231.16
639.80	1222.60
640.14	1213.96
640.49	1205.11
640.83	1196.52
641.17	1188.42
641.52	1180.29
641.86	1171.84
642.20	1164.01
642.55	1155.51
642.89	1146.78
643.23	1138.15
643.58	1130.21
643.92	1121.31
644.26	1112.71
644.61	1104.37
644.95	1095.62
645.29	1086.62
645.64	1077.50
645.98	1069.18
646.32	1061.31
646.66	1052.77
647.01	1044.38
647.35	1036.33
647.69	1028.01
648.04	1019.64
648.38	1010.78
648.72	1002.11
649.06	993.67
649.41	985.62
649.75	977.71
650.09	969.91
650.43	961.90
650.78	953.59
651.12	945.89
651.46	938.54
651.80	931.33
652.14	924.13
652.49	916.59
652.83	909.23
653.17	901.58
653.51	894.03
653.85	886.85
654.20	879.77
654.54	872.30
654.88	865.28
655.22	858.27
655.56	851.41
655.90	844.63
656.25	838.12
656.59	831.19
656.93	824.18
657.27	817.15
657.61	810.31
657.95	804.33
658.29	798.53
658.64	792.46
658.98	786.09
659.32	779.66
659.66	773.52
660.00	767.31
660.34	761.34
660.68	755.31
661.02	749.09
661.36	743.23
661.70	737.56
662.05	732.01
662.39	726.55
662.73	721.23
663.07	715.96
663.41	710.39
663.75	704.77
664.09	699.29
664.43	693.94
664.77	688.66
665.11	682.93
665.45	677.07
665.79	671.42
666.13	665.86
666.47	660.36
666.81	654.95
667.15	649.68
667.49	644.61
667.83	639.44
668.17	634.36
668.51	629.33
668.85	624.52
669.19	619.58
669.53	614.68
669.87	609.68
670.21	605.00
670.55	600.37
670.89	596.07
671.23	591.80
671.57	587.52
671.91	583.31
672.25	579.23
672.58	575.22
672.92	571.23
673.26	567.38
673.60	563.59
673.94	559.89
674.28	556.32
674.62	552.56
674.96	548.83
675.30	545.33
675.64	541.77
675.97	538.26
676.31	534.80
676.65	531.31
676.99	527.92
677.33	524.16
677.67	520.58
678.01	516.79
678.34	513.18
678.68	509.71
679.02	506.13
679.36	502.50
679.70	498.89
680.04	495.38
680.37	491.99
680.71	488.78
681.05	485.69
681.39	482.51
681.73	479.47
682.06	476.57
682.40	473.52
682.74	470.38
683.08	467.17
683.42	464.00
683.75	460.99
684.09	458.04
684.43	455.26
684.77	452.40
685.10	449.63
685.44	446.78
685.78	443.94
686.12	441.30
686.45	438.65
686.79	436.07
687.13	433.57
687.46	430.95
687.80	428.30
688.14	425.48
688.48	422.89
688.81	420.24
689.15	417.66
689.49	415.19
689.82	412.66
690.16	410.16
690.50	407.74
690.83	405.28
691.17	402.82
691.51	400.41
691.84	398.23
692.18	396.07
692.52	393.98
692.85	391.89
693.19	389.74
693.52	387.65
693.86	385.50
694.20	383.38
694.53	381.36
694.87	379.22
695.21	377.19
695.54	375.09
695.88	373.02
696.21	370.87
696.55	368.75
696.88	366.77
697.22	364.82
697.56	363.02
697.89	361.19
698.23	359.47
698.56	357.74
698.90	356.03
699.23	354.15
699.57	352.26
699.90	350.43
700.24	348.71
700.58	346.99
700.91	345.35
701.25	343.82
701.58	342.23
701.92	340.68
702.25	339.08
702.59	337.53
702.92	336.01
703.26	334.49
703.59	333.03
703.93	331.78
704.26	330.38
704.60	328.90
704.93	327.50
705.26	326.00
705.60	324.57
705.93	323.07
706.27	321.81
706.60	320.64
706.94	319.42
707.27	318.07
707.61	316.76
707.94	315.41
708.27	313.90
708.61	312.44
708.94	311.12
709.28	309.91
709.61	308.71
709.94	307.54
710.28	306.41
710.61	305.28
710.95	303.89
711.28	302.85
711.61	301.70
711.95	300.61
712.28	299.46
712.61	298.33
712.95	297.31
713.28	296.31
713.61	295.18
713.95	294.07
714.28	293.09
714.61	292.05
714.95	291.12
715.28	290.17
715.61	289.22
715.95	288.32
716.28	287.38
716.61	286.44
716.95	285.47
717.28	284.60
717.61	283.69
717.94	282.83
718.28	281.86
718.61	281.01
718.94	280.11
719.27	279.28
719.61	278.47
719.94	277.60
720.27	276.64
720.60	275.79
720.94	275.05
721.27	274.30
721.60	273.63
721.93	272.90
722.27	272.30
722.60	271.66
722.93	270.98
723.26	270.31
723.59	269.64
723.93	269.03
724.26	268.37
724.59	267.72
724.92	267.16
725.25	266.61
725.59	266.05
725.92	265.54
726.25	264.99
726.58	264.39
726.91	263.81
727.24	263.29
727.57	262.81
727.91	262.19
728.24	261.64
728.57	261.08
728.90	260.56
729.23	259.96
729.56	259.53
729.89	258.98
730.22	258.44
730.55	257.94
730.89	257.41
731.22	256.90
731.55	256.42
731.88	255.90
732.21	255.38
732.54	254.85
732.87	254.35
733.20	253.86
733.53	253.43
733.86	253.04
734.19	252.57
734.52	252.11
734.85	251.83
735.18	251.39
735.51	251.05
735.84	250.62
736.17	250.23
736.50	249.68
736.83	249.53
737.16	249.17
737.49	248.79
737.82	248.41
738.15	248.02
738.48	247.62
738.81	247.22
739.14	246.82
739.47	246.43
739.80	246.09
740.13	245.78
740.46	245.37
740.79	244.96
741.12	244.59
741.45	244.24
741.78	243.83
742.11	243.59
742.44	243.20
742.77	242.92
743.10	242.61
743.43	242.30
743.75	241.76
744.08	241.66
744.41	241.35
744.74	241.01
745.07	240.69
745.40	240.41
745.73	240.18
746.06	239.87
746.39	239.62
746.71	239.28
747.04	238.91
747.37	238.65
747.70	238.40
748.03	238.12
748.36	237.85
748.68	237.53
749.01	237.13
749.34	236.86
749.67	236.59
750.00	236.32
750.33	236.18
750.65	235.92
750.98	235.42
751.31	235.16
751.64	234.94
751.97	234.81
752.29	234.55
752.62	234.24
752.95	233.96
753.28	233.68
753.60	233.46
753.93	233.35
754.26	233.15
754.59	232.88
754.91	232.64
755.24	232.38
755.57	232.12
755.90	231.94
756.22	231.69
756.55	231.42
756.88	231.15
757.20	230.82
757.53	230.59
757.86	230.38
758.19	230.18
758.51	230.00
758.84	229.71
759.17	229.53
759.49	229.34
759.82	229.29
760.15	229.15
760.47	228.95
760.80	228.66
761.13	228.50
761.45	228.32
761.78	228.14
762.11	227.98
762.43	227.81
762.76	227.64
763.08	227.48
763.41	227.39
763.74	227.24
764.06	227.08
764.39	226.89
764.71	226.73
765.04	226.59
765.37	226.41
765.69	226.26
766.02	226.10
766.34	225.96
766.67	225.75
767.00	225.63
767.32	225.64
767.65	225.65
767.97	225.47
768.30	225.34
768.62	225.24
768.95	225.10
769.27	224.99
769.60	224.91
769.92	224.77
770.25	224.62
770.57	224.45
770.90	224.38
771.22	224.30
771.55	224.20
771.87	224.07
772.20	223.96
772.52	224.02
772.85	224.19
773.17	224.10
773.50	223.99
773.82	223.89
774.15	223.63
774.47	223.38
774.80	223.30
775.12	223.18
775.45	223.09
775.77	223.03
776.09	222.98
776.42	222.88
776.74	222.88
777.07	222.73
777.39	222.70
777.72	222.57
778.04	222.48
778.36	222.40
778.69	222.34
779.01	222.28
779.33	222.04
779.66	221.72
779.98	221.62
780.31	221.55
780.63	221.55
780.95	221.54
781.28	221.49
781.60	221.41
781.92	221.33
782.25	221.26
782.57	221.19
782.89	221.10
783.22	221.01
783.54	220.90
783.86	220.89
784.19	220.80
784.51	220.81
784.83	220.74
785.16	220.63
785.48	220.60
785.80	220.53
786.12	220.46
786.45	220.43
786.77	220.38
787.09	220.33
787.42	220.21
787.74	220.15
788.06	220.12
788.38	220.04
788.71	219.99
789.03	219.96
789.35	219.91
789.67	219.88
789.99	219.84
790.32	219.77
790.64	219.73
790.96	219.85
791.28	219.71
791.61	219.65
791.93	219.69
792.25	219.61
792.57	219.72
792.89	219.64
793.21	219.56
793.54	219.51
793.86	219.47
794.18	219.42
794.50	219.34
794.82	219.29
795.14	219.28
795.47	219.27
795.79	219.24
796.11	219.14
796.43	219.08
796.75	219.03
797.07	218.98
797.39	218.94
797.71	218.73
798.04	218.71
798.36	218.67
798.68	218.58
799.00	218.58
799.32	218.42
799.64	218.45
799.96	218.42
800.28	218.44
800.60	218.35
800.92	218.33
801.24	218.28
801.56	218.28
801.89	218.22
802.21	218.21
802.53	218.11
802.85	218.15
803.17	218.20
803.49	218.14
803.81	218.08
804.13	218.04
804.45	218.00
804.77	218.01
805.09	218.00
805.41	217.97
805.73	217.91
806.05	217.85
806.37	217.79
806.69	217.77
807.01	217.72
807.33	217.72
807.65	217.60
807.97	217.70
808.28	217.64
808.60	217.63
808.92	217.60
809.24	217.70
809.56	217.63
809.88	217.53
810.20	217.51
810.52	217.53
810.84	217.48
811.16	217.43
811.48	217.37
811.80	217.42
812.12	217.38
812.43	217.38
812.75	217.35
813.07	217.32
813.39	217.28
813.71	217.20
814.03	217.15
814.35	217.17
814.67	217.05
814.98	217.02
815.30	216.99
815.62	216.90
815.94	216.80
816.26	216.81
816.58	216.78
816.89	216.80
817.21	216.73
817.53	216.72
817.85	216.72
818.17	216.71
818.48	216.62
818.80	216.63
819.12	216.58
819.44	216.55
819.76	216.51
820.07	216.48
820.39	216.49
820.71	216.51
821.03	216.47
821.34	216.45
821.66	216.47
821.98	216.47
822.30	216.47
822.61	216.53
822.93	216.47
823.25	216.43
823.57	216.40
823.88	216.46
824.20	216.47
824.52	216.48
824.83	216.45
825.15	216.42
825.47	216.40
825.79	216.38
826.10	216.34
826.42	216.29
826.74	216.32
827.05	216.30
827.37	216.31
827.69	216.31
828.00	216.29
828.32	216.24
828.64	216.23
828.95	216.35
829.27	216.30
829.58	216.30
829.90	216.35
830.22	216.34
830.53	216.27
830.85	216.22
831.17	216.16
831.48	216.15
831.80	216.15
832.11	216.15
832.43	216.12
832.75	216.09
833.06	216.24
833.38	216.16
833.69	216.16
834.01	216.13
834.32	216.12
834.64	216.10
834.96	216.09
835.27	216.07
835.59	215.95
835.90	215.90
836.22	215.88
836.53	215.82
836.85	215.76
837.16	215.95
837.48	215.97
837.79	216.05
838.11	216.08
838.42	216.06
838.74	216.06
839.05	216.05
839.37	216.10
839.68	216.00
840.00	215.99
840.31	215.97
840.63	215.96
840.94	215.91
841.26	215.89
841.57	215.86
841.88	215.83
842.20	215.80
842.51	215.78
842.83	215.78
843.14	215.93
843.46	215.94
843.77	215.81
844.08	215.76
844.40	215.64
844.71	215.62
845.03	215.58
845.34	215.53
845.65	215.53
845.97	215.47
846.28	215.46
846.60	215.48
846.91	215.47
847.22	215.46
847.54	215.51
847.85	215.51
848.16	215.47
848.48	215.46
848.79	215.55
849.10	215.57
849.42	215.56
849.73	215.35
850.04	215.33
850.36	215.25
850.67	215.28
850.98	215.29
851.30	215.29
851.61	215.31
851.92	215.32
852.23	215.39
852.55	215.43
852.86	215.43
853.17	215.45
853.49	215.48
853.80	215.52
854.11	215.52
854.42	215.53
854.74	215.55
855.05	215.57
855.36	215.46
855.67	215.47
855.99	215.51
856.30	215.81
856.61	215.82
856.92	215.82
857.23	215.83
857.55	215.80
857.86	215.82
858.17	215.84
858.48	215.83
858.79	215.76
859.11	215.77
859.42	215.74
859.73	215.71
860.04	215.70
860.35	215.61
860.66	215.55
860.98	215.56
861.29	215.56
861.60	215.56
861.91	215.60
862.22	215.54
862.53	215.48
862.84	215.20
863.16	215.26
863.47	215.19
863.78	215.17
864.09	215.18
864.40	215.18
864.71	215.17
865.02	215.19
865.33	215.17
865.64	215.15
865.95	215.13
866.27	215.26
866.58	215.26
866.89	215.32
867.20	215.32
867.51	215.24
867.82	215.24
868.13	215.28
868.44	215.23
868.75	215.29
869.06	215.31
869.37	215.33
869.68	215.23
869.99	215.31
870.30	215.30
870.61	215.35
870.92	215.30
871.23	215.31
871.54	215.31
871.85	215.39
872.16	215.40
872.47	215.41
872.78	215.27
873.09	215.26
873.40	215.22
873.71	215.23
874.02	215.26
874.33	215.27
874.64	215.20
874.95	215.24
875.26	215.23
875.56	215.22
875.87	215.22
876.18	215.23
876.49	215.43
876.80	215.43
877.11	215.37
877.42	215.42
877.73	215.40
878.04	215.35
878.35	215.28
878.66	215.26
878.96	215.25
879.27	215.23
879.58	215.18
879.89	215.15
880.20	215.22
880.51	215.21
880.82	215.20
881.12	215.25
881.43	215.19
881.74	215.16
882.05	215.12
882.36	215.09
882.67	215.11
882.97	214.87
883.28	214.89
883.59	214.89
883.90	214.84
884.21	214.87
884.51	214.87
884.82	214.83
885.13	214.82
885.44	214.83
885.74	214.84
886.05	214.86
886.36	214.86
886.67	214.79
886.98	214.90
887.28	214.92
887.59	214.91
887.90	214.87
888.20	214.85
888.51	214.89
888.82	214.83
889.13	214.84
889.43	215.02
889.74	214.97
890.05	214.96
890.35	214.96
890.66	214.92
890.97	214.88
891.28	214.89
891.58	214.89
891.89	214.88
892.20	214.85
892.50	214.84
892.81	214.86
893.12	214.82
893.42	214.67
893.73	214.67
894.04	214.64
894.34	214.71
894.65	214.72
894.95	214.73
895.26	214.79
895.57	214.86
895.87	214.68
896.18	214.70
896.48	214.73
896.79	214.75
897.10	214.78
897.40	214.81
897.71	214.80
898.01	214.77
898.32	214.79
898.63	214.79
898.93	214.78
899.24	214.78
899.54	214.81
899.85	214.86
900.15	214.84
900.46	214.83
900.76	214.82
901.07	214.82
901.38	214.81
901.68	214.84
901.99	214.75
902.29	214.79
902.60	214.78
902.90	214.79
903.21	214.78
903.51	214.78
903.82	214.85
904.12	214.90
904.43	214.92
904.73	214.90
905.03	214.95
905.34	215.15
905.64	215.13
905.95	215.13
906.25	215.13
906.56	215.14
906.86	215.16
907.17	215.17
907.47	215.16
907.77	215.15
908.08	215.08
908.38	215.11
908.69	215.12
908.99	215.14
909.30	215.14
909.60	215.12
909.90	215.15
910.21	215.06
910.51	215.02
910.81	215.02
911.12	215.05
911.42	215.02
911.73	214.84
912.03	214.86
912.33	214.90
912.64	214.87
912.94	214.86
913.24	214.83
913.55	214.81
913.85	214.79
914.15	214.78
914.46	214.83
914.76	214.76
915.06	214.74
915.37	214.70
915.67	214.67
915.97	214.69
916.27	214.62
916.58	214.64
916.88	214.64
917.18	214.66
917.49	214.80
917.79	214.83
918.09	214.87
918.39	214.90
918.70	214.87
919.00	214.90
919.30	214.97
919.60	214.95
919.91	214.91
920.21	214.90
920.51	214.88
920.81	214.85
921.12	214.92
921.42	214.92
921.72	214.93
922.02	214.92
922.32	214.96
922.63	214.98
922.93	215.07
923.23	215.08
923.53	215.04
923.83	214.91
924.13	214.91
924.44	214.88
924.74	214.91
925.04	214.99
925.34	214.95
925.64	214.89
925.94	214.93
926.24	215.06
926.55	215.09
926.85	215.09
927.15	215.11
927.45	215.11
927.75	215.09
928.05	215.13
928.35	215.12
928.65	215.13
928.95	215.14
929.26	215.07
929.56	215.10
929.86	215.16
930.16	215.12
930.46	215.09
930.76	215.10
931.06	215.02
931.36	214.92
931.66	214.99
931.96	215.02
932.26	215.01
932.56	214.94
932.86	214.95
933.16	214.95
933.46	214.94
933.76	214.89
934.06	214.94
934.36	214.99
934.66	215.00
934.96	214.96
935.26	214.98
935.56	215.01
935.86	214.96
936.16	214.88
936.46	214.86
936.76	214.83
937.06	214.81
937.36	214.83
937.66	214.84
937.96	214.81
938.26	214.73
938.56	214.72
938.86	214.74
939.16	214.78
939.46	214.80
939.76	214.79
940.06	214.82
940.35	214.78
940.65	214.67
940.95	214.70
941.25	214.68
941.55	214.64
941.85	214.62
942.15	214.68
942.45	214.75
942.75	214.75
943.04	214.78
943.34	214.85
943.64	214.82
943.94	214.82
944.24	214.80
944.54	214.84
944.84	214.81
945.13	214.78
945.43	214.76
945.73	214.75
946.03	214.74
946.33	214.73
946.62	214.71
946.92	214.73
947.22	214.71
947.52	214.70
947.82	214.74
948.11	214.71
948.41	214.64
948.71	214.58
949.01	214.60
949.31	214.56
949.60	214.53
949.90	214.57
950.20	214.54
950.50	214.56
950.79	214.54
951.09	214.55
951.39	214.56
951.69	214.51
951.98	214.55
952.28	214.57
952.58	214.55
952.87	214.57
953.17	214.60
953.47	214.58
953.76	214.59
954.06	214.57
954.36	214.55
954.66	214.58
954.95	214.62
955.25	214.63
955.55	214.65
955.84	214.58
956.14	214.59
956.44	214.61
956.73	214.56
957.03	214.57
957.32	214.60
957.62	214.56
957.92	214.61
958.21	214.58
958.51	214.83
958.81	214.83
959.10	214.85
959.40	214.84
959.69	214.87
959.99	214.90
960.29	214.87
960.58	214.85
960.88	214.91
961.17	214.88
961.47	214.88
961.76	214.89
962.06	214.96
962.36	214.94
962.65	214.98
962.95	214.99
963.24	214.99
963.54	214.98
963.83	215.04
964.13	215.02
964.42	214.97
964.72	214.77
965.01	214.81
965.31	214.78
965.60	214.73
965.90	214.85
966.19	214.82
966.49	214.82
966.78	214.82
967.08	214.84
967.37	214.83
967.67	214.80
967.96	214.84
968.26	214.81
968.55	214.82
968.85	214.77
969.14	214.79
969.43	214.80
969.73	214.77
970.02	214.73
970.32	214.75
970.61	214.75
970.91	214.67
971.20	214.62
971.49	214.62
971.79	214.68
972.08	214.52
972.38	214.51
972.67	214.50
972.96	214.52
973.26	214.45
973.55	214.53
973.85	214.54
974.14	214.49
974.43	214.49
974.73	214.47
975.02	214.44
975.31	214.43
975.61	214.44
975.90	214.41
976.19	214.37
976.49	214.36
976.78	214.37
977.07	214.41
977.37	214.43
977.66	214.41
977.95	214.37
978.24	214.42
978.54	214.47
978.83	214.48
979.12	214.46
979.42	214.44
979.71	214.38
980.00	214.37
980.29	214.40
980.59	214.39
980.88	214.41
981.17	214.43
981.46	214.40
981.76	214.38
982.05	214.48
982.34	214.54
982.63	214.54
982.93	214.56
983.22	214.61
983.51	214.61
983.80	214.65
984.09	214.71
984.39	214.69
984.68	214.67
984.97	214.66
985.26	214.69
985.55	214.73
985.85	214.74
986.14	214.77
986.43	214.76
986.72	214.74
987.01	214.69
987.30	214.70
987.59	214.73
987.89	214.73
988.18	214.67
988.47	214.61
988.76	214.62
989.05	214.58
989.34	214.50
989.63	214.58
989.92	214.58
990.22	214.51
990.51	214.52
990.80	214.53
991.09	214.56
991.38	214.56
991.67	214.55
991.96	214.51
992.25	214.52
992.54	214.49
992.83	214.50
993.12	214.48
993.41	214.52
993.70	214.57
993.99	214.63
994.28	214.65
994.58	214.71
994.87	214.69
995.16	214.72
995.45	214.74
995.74	214.66
996.03	214.64
996.32	214.68
996.61	214.69
996.90	214.66
997.19	214.66
997.48	214.65
997.77	214.61
998.06	214.66
998.34	214.61
998.63	214.60
998.92	214.64
999.21	214.69
999.50	214.71
999.79	214.64
1000.08	214.61
1000.37	214.63
1000.66	214.57
1000.95	214.63
1001.24	214.62
1001.53	214.65
1001.82	214.62
1002.11	214.61
1002.40	214.62
1002.68	214.66
1002.97	214.81
1003.26	214.76
1003.55	214.73
1003.84	214.71
1004.13	214.77
1004.42	214.77
1004.71	214.80
1004.99	214.76
1005.28	214.80
1005.57	214.73
1005.86	214.74
1006.15	214.68
1006.44	214.61
1006.72	214.66
1007.01	214.60
1007.30	214.62
1007.59	214.57
1007.88	214.60
1008.17	214.60
1008.45	214.55
1008.74	214.48
1009.03	214.40
1009.32	214.42
1009.60	214.45
1009.89	214.46
1010.18	214.35
1010.47	214.34
1010.76	214.33
1011.04	214.34
1011.33	214.35
1011.62	214.39
1011.91	214.41
1012.19	214.45
1012.48	214.49
1012.77	214.47
1013.05	214.57
1013.34	214.55
1013.63	214.56
1013.92	214.60
1014.20	214.59
1014.49	214.60
1014.78	214.64
1015.06	214.56
1015.35	214.57
1015.64	214.58
1015.92	214.63
1016.21	214.63
1016.50	214.64
1016.78	214.68
1017.07	214.68
1017.36	214.65
1017.64	214.62
1017.93	214.64
1018.22	214.62
1018.50	214.61
1018.79	214.62
1019.08	214.50
1019.36	214.50
1019.65	214.46
1019.93	214.47
1020.22	214.55
1020.51	214.66
1020.79	214.61
1021.08	214.20
1021.36	214.32
1021.65	214.74
1021.94	214.02
1022.22	214.34
1022.51	213.58
1022.79	215.44
1023.08	215.75
1023.36	216.71
1023.65	214.15
>>>>>End Processed Spectral Data<<<<<
