SpectraSuite Data File
++++++++++++++++++++++++++++++++++++
Date: Tue Jan 29 16:06:48 EST 2013
User: group
Dark Spectrum Present: No
Reference Spectrum Present: No
Number of Sampled Component Spectra: 1
Spectrometers: USB2E7196
Integration Time (usec): 65000 (USB2E7196)
Spectra Averaged: 100 (USB2E7196)
Boxcar Smoothing: 10 (USB2E7196)
Correct for Electrical Dark: No (USB2E7196)
Strobe/Lamp Enabled: No (USB2E7196)
Correct for Detector Non-linearity: No (USB2E7196)
Correct for Stray Light: No (USB2E7196)
Number of Pixels in Processed Spectrum: 2048
>>>>>Begin Processed Spectral Data<<<<<
339.09	0.00
339.48	202.56
339.86	204.00
340.24	205.63
340.63	207.14
341.01	211.77
341.39	209.38
341.78	211.16
342.16	212.24
342.54	212.85
342.93	201.83
343.31	212.03
343.69	212.59
344.07	213.07
344.46	213.51
344.84	213.90
345.22	214.07
345.60	214.37
345.99	214.59
346.37	214.75
346.75	214.86
347.13	214.98
347.52	215.02
347.90	215.11
348.28	215.19
348.66	215.31
349.05	215.29
349.43	215.36
349.81	215.45
350.19	215.47
350.57	215.57
350.96	215.66
351.34	215.78
351.72	215.88
352.10	215.97
352.48	216.06
352.87	216.12
353.25	216.19
353.63	216.23
354.01	216.28
354.39	216.34
354.77	216.45
355.15	216.56
355.54	216.61
355.92	216.63
356.30	216.65
356.68	216.82
357.06	216.90
357.44	216.91
357.82	216.94
358.20	217.05
358.58	217.10
358.97	217.13
359.35	217.21
359.73	217.32
360.11	217.38
360.49	217.41
360.87	217.45
361.25	217.52
361.63	217.63
362.01	217.68
362.39	217.69
362.77	217.72
363.15	217.73
363.53	217.76
363.91	217.80
364.29	217.84
364.67	217.72
365.05	217.75
365.43	217.80
365.81	217.86
366.19	217.93
366.57	218.00
366.95	218.01
367.33	217.97
367.71	217.93
368.09	217.97
368.47	217.96
368.85	217.95
369.23	217.96
369.61	217.87
369.99	217.91
370.37	217.92
370.75	217.98
371.13	217.90
371.51	217.89
371.89	217.88
372.27	217.87
372.65	217.83
373.03	217.78
373.41	217.70
373.78	217.65
374.16	217.50
374.54	217.41
374.92	217.37
375.30	217.34
375.68	217.26
376.06	217.24
376.44	217.17
376.82	217.14
377.19	217.09
377.57	217.04
377.95	216.89
378.33	216.83
378.71	216.65
379.09	216.65
379.47	216.58
379.84	216.50
380.22	216.44
380.60	216.36
380.98	216.33
381.36	216.30
381.73	216.25
382.11	216.29
382.49	216.25
382.87	216.17
383.25	216.14
383.62	216.33
384.00	216.20
384.38	216.20
384.76	216.21
385.13	216.26
385.51	216.22
385.89	216.20
386.27	216.17
386.64	216.18
387.02	216.11
387.40	216.08
387.78	216.08
388.15	216.03
388.53	216.02
388.91	216.00
389.29	215.92
389.66	215.93
390.04	215.84
390.42	215.85
390.79	215.88
391.17	215.84
391.55	215.60
391.92	215.65
392.30	215.66
392.68	215.61
393.05	215.57
393.43	215.57
393.81	215.58
394.18	215.55
394.56	215.55
394.94	215.62
395.31	215.61
395.69	215.67
396.06	215.73
396.44	215.76
396.82	215.75
397.19	215.95
397.57	215.92
397.95	216.00
398.32	215.97
398.70	216.02
399.07	216.13
399.45	216.17
399.82	216.19
400.20	216.24
400.58	216.25
400.95	216.23
401.33	216.34
401.70	216.57
402.08	216.67
402.45	216.76
402.83	216.88
403.20	216.99
403.58	217.07
403.95	217.22
404.33	217.36
404.71	217.54
405.08	217.76
405.46	217.95
405.83	218.14
406.21	218.39
406.58	218.59
406.96	218.79
407.33	219.08
407.70	219.39
408.08	219.79
408.45	220.15
408.83	220.53
409.20	220.87
409.58	221.14
409.95	221.59
410.33	222.13
410.70	222.57
411.08	223.11
411.45	223.67
411.82	224.22
412.20	224.89
412.57	225.68
412.95	226.22
413.32	227.02
413.69	227.84
414.07	228.70
414.44	229.66
414.82	230.64
415.19	231.75
415.56	232.86
415.94	234.02
416.31	235.42
416.68	236.77
417.06	238.29
417.43	239.75
417.81	241.45
418.18	243.12
418.55	244.97
418.93	246.92
419.30	248.95
419.67	251.10
420.04	253.34
420.42	255.61
420.79	258.37
421.16	261.03
421.54	263.82
421.91	266.70
422.28	269.69
422.66	272.87
423.03	276.03
423.40	279.28
423.77	282.74
424.15	286.28
424.52	289.99
424.89	294.06
425.26	298.02
425.64	301.76
426.01	305.92
426.38	310.21
426.75	314.61
427.13	319.17
427.50	324.00
427.87	328.98
428.24	333.99
428.61	338.73
428.99	344.08
429.36	349.89
429.73	355.57
430.10	361.22
430.47	367.11
430.85	373.18
431.22	379.65
431.59	386.54
431.96	393.12
432.33	400.35
432.70	407.36
433.08	415.59
433.45	423.39
433.82	431.12
434.19	439.72
434.56	448.11
434.93	456.18
435.30	464.16
435.68	472.96
436.05	481.69
436.42	490.28
436.79	498.12
437.16	506.57
437.53	515.53
437.90	524.33
438.27	532.92
438.64	541.85
439.01	550.12
439.38	557.45
439.75	564.53
440.13	572.68
440.50	580.29
440.87	586.50
441.24	592.96
441.61	600.04
441.98	605.22
442.35	611.30
442.72	617.39
443.09	623.12
443.46	626.73
443.83	629.09
444.20	631.28
444.57	634.32
444.94	635.68
445.31	637.03
445.68	638.40
446.05	638.99
446.42	638.16
446.79	637.19
447.16	636.13
447.53	635.35
447.90	632.11
448.27	628.93
448.64	624.44
449.01	621.14
449.37	615.38
449.74	609.90
450.11	603.26
450.48	596.10
450.85	588.90
451.22	582.68
451.59	576.78
451.96	571.07
452.33	563.52
452.70	556.74
453.07	548.54
453.43	540.25
453.80	532.27
454.17	524.55
454.54	517.27
454.91	509.40
455.28	501.72
455.65	494.61
456.02	487.40
456.38	481.27
456.75	473.73
457.12	467.48
457.49	461.20
457.86	455.26
458.23	450.16
458.59	444.53
458.96	438.76
459.33	433.69
459.70	428.56
460.07	424.44
460.43	419.72
460.80	415.34
461.17	411.47
461.54	407.45
461.91	403.64
462.27	399.70
462.64	396.34
463.01	392.71
463.38	389.12
463.74	385.51
464.11	382.42
464.48	379.69
464.85	376.69
465.21	374.39
465.58	371.86
465.95	368.79
466.32	366.28
466.68	363.77
467.05	361.27
467.42	358.84
467.78	356.33
468.15	353.86
468.52	352.06
468.88	349.69
469.25	347.59
469.62	345.85
469.98	344.03
470.35	342.33
470.72	340.74
471.08	339.06
471.45	337.65
471.82	336.23
472.18	334.64
472.55	333.55
472.92	332.23
473.28	331.06
473.65	330.03
474.02	328.98
474.38	328.15
474.75	327.50
475.11	326.68
475.48	326.07
475.85	325.66
476.21	325.21
476.58	324.89
476.94	324.64
477.31	324.37
477.67	324.14
478.04	324.03
478.41	323.98
478.77	324.16
479.14	324.16
479.50	324.27
479.87	324.51
480.23	324.78
480.60	325.02
480.96	325.33
481.33	325.91
481.69	326.48
482.06	327.02
482.42	327.44
482.79	328.10
483.15	329.00
483.52	329.96
483.88	330.84
484.25	331.77
484.61	332.79
484.98	333.88
485.34	335.16
485.71	336.53
486.07	337.98
486.44	339.29
486.80	340.87
487.17	342.53
487.53	344.37
487.90	346.24
488.26	348.36
488.62	350.49
488.99	352.57
489.35	354.69
489.72	357.06
490.08	359.61
490.44	362.16
490.81	364.81
491.17	367.50
491.54	370.47
491.90	373.48
492.26	376.69
492.63	380.10
492.99	383.61
493.36	387.22
493.72	391.07
494.08	395.09
494.45	399.31
494.81	403.62
495.17	408.08
495.54	412.74
495.90	417.46
496.26	422.41
496.63	427.57
496.99	432.94
497.35	438.47
497.72	444.21
498.08	450.12
498.44	456.18
498.80	462.52
499.17	468.98
499.53	475.69
499.89	482.59
500.26	489.52
500.62	496.57
500.98	504.00
501.34	511.41
501.71	519.14
502.07	526.89
502.43	534.96
502.79	543.04
503.16	551.40
503.52	559.95
503.88	568.55
504.24	577.49
504.60	586.54
504.97	595.69
505.33	605.03
505.69	614.85
506.05	624.70
506.41	634.56
506.78	644.62
507.14	654.79
507.50	665.24
507.86	675.89
508.22	686.54
508.59	697.09
508.95	708.13
509.31	719.37
509.67	730.78
510.03	742.14
510.39	753.92
510.75	765.75
511.12	777.55
511.48	789.62
511.84	801.72
512.20	813.97
512.56	826.54
512.92	839.13
513.28	851.73
513.64	864.40
514.00	877.18
514.37	889.98
514.73	903.03
515.09	915.92
515.45	928.64
515.81	941.64
516.17	954.93
516.53	967.98
516.89	980.88
517.25	993.86
517.61	1007.18
517.97	1020.37
518.33	1033.36
518.69	1046.79
519.05	1060.27
519.41	1073.77
519.77	1087.39
520.13	1100.55
520.49	1113.55
520.85	1126.65
521.21	1139.72
521.57	1153.13
521.93	1166.03
522.29	1179.51
522.65	1192.86
523.01	1206.19
523.37	1219.05
523.73	1232.03
524.09	1245.05
524.45	1258.26
524.81	1271.54
525.17	1284.67
525.53	1297.47
525.89	1310.47
526.25	1323.28
526.61	1335.87
526.97	1348.71
527.33	1361.46
527.68	1374.67
528.04	1387.88
528.40	1400.71
528.76	1413.81
529.12	1426.47
529.48	1439.52
529.84	1451.65
530.20	1464.13
530.56	1476.63
530.91	1489.63
531.27	1502.26
531.63	1514.73
531.99	1527.16
532.35	1539.20
532.71	1551.26
533.07	1563.88
533.42	1575.79
533.78	1587.73
534.14	1599.57
534.50	1610.53
534.86	1621.88
535.21	1632.45
535.57	1643.60
535.93	1654.68
536.29	1665.47
536.65	1676.57
537.00	1687.25
537.36	1698.19
537.72	1708.84
538.08	1719.74
538.44	1730.50
538.79	1741.31
539.15	1751.84
539.51	1762.32
539.87	1773.26
540.22	1783.81
540.58	1794.35
540.94	1804.91
541.29	1814.71
541.65	1824.17
542.01	1834.32
542.37	1843.99
542.72	1853.88
543.08	1863.42
543.44	1873.51
543.79	1882.76
544.15	1891.97
544.51	1901.68
544.87	1911.27
545.22	1920.16
545.58	1928.84
545.94	1937.37
546.29	1945.59
546.65	1953.79
547.01	1961.70
547.36	1969.09
547.72	1976.51
548.07	1984.03
548.43	1991.52
548.79	1999.20
549.14	2007.23
549.50	2015.37
549.86	2022.93
550.21	2030.04
550.57	2037.55
550.92	2044.09
551.28	2051.19
551.64	2058.33
551.99	2065.60
552.35	2072.52
552.70	2079.24
553.06	2085.65
553.41	2091.69
553.77	2098.05
554.13	2104.27
554.48	2111.18
554.84	2118.06
555.19	2124.42
555.55	2130.75
555.90	2137.01
556.26	2143.67
556.61	2149.25
556.97	2154.21
557.32	2160.07
557.68	2166.43
558.03	2172.04
558.39	2177.25
558.74	2183.11
559.10	2188.55
559.45	2194.08
559.81	2199.64
560.16	2205.17
560.52	2211.11
560.87	2217.53
561.23	2223.50
561.58	2229.99
561.94	2235.08
562.29	2240.04
562.64	2246.19
563.00	2251.80
563.35	2257.36
563.71	2263.25
564.06	2269.07
564.42	2274.89
564.77	2280.03
565.12	2285.31
565.48	2290.41
565.83	2296.02
566.19	2301.62
566.54	2307.07
566.89	2311.59
567.25	2316.18
567.60	2322.00
567.96	2327.18
568.31	2331.73
568.66	2335.92
569.02	2339.86
569.37	2343.86
569.72	2348.31
570.08	2351.97
570.43	2354.93
570.78	2358.00
571.14	2360.55
571.49	2363.79
571.84	2367.30
572.20	2370.21
572.55	2373.28
572.90	2375.62
573.26	2378.63
573.61	2381.05
573.96	2383.18
574.31	2385.27
574.67	2387.26
575.02	2388.24
575.37	2389.87
575.72	2390.88
576.08	2392.41
576.43	2392.89
576.78	2393.70
577.13	2395.59
577.49	2396.75
577.84	2398.41
578.19	2400.18
578.54	2401.09
578.90	2402.28
579.25	2402.42
579.60	2402.63
579.95	2402.27
580.30	2402.86
580.66	2402.34
581.01	2401.12
581.36	2399.17
581.71	2398.01
582.06	2397.19
582.42	2396.39
582.77	2394.45
583.12	2393.06
583.47	2392.17
583.82	2391.76
584.17	2390.67
584.53	2388.47
584.88	2386.75
585.23	2384.97
585.58	2382.83
585.93	2380.77
586.28	2378.65
586.63	2376.60
586.98	2374.50
587.34	2372.55
587.69	2370.33
588.04	2368.52
588.39	2367.06
588.74	2364.83
589.09	2362.49
589.44	2359.56
589.79	2357.49
590.14	2355.79
590.49	2353.04
590.84	2349.44
591.19	2346.65
591.54	2343.30
591.89	2339.45
592.25	2336.17
592.60	2331.98
592.95	2327.89
593.30	2323.99
593.65	2319.64
594.00	2315.29
594.35	2312.44
594.70	2307.95
595.05	2303.34
595.40	2297.89
595.75	2292.49
596.10	2288.87
596.45	2284.09
596.80	2279.64
597.15	2274.40
597.50	2268.57
597.85	2263.75
598.19	2258.47
598.54	2252.79
598.89	2247.93
599.24	2243.53
599.59	2237.59
599.94	2232.14
600.29	2226.40
600.64	2220.62
600.99	2214.08
601.34	2208.73
601.69	2201.78
602.04	2195.52
602.39	2189.17
602.74	2183.28
603.08	2177.71
603.43	2171.33
603.78	2164.77
604.13	2157.67
604.48	2150.48
604.83	2144.56
605.18	2138.35
605.53	2131.58
605.87	2124.46
606.22	2117.65
606.57	2109.80
606.92	2101.97
607.27	2095.00
607.62	2088.41
607.96	2081.35
608.31	2074.93
608.66	2067.32
609.01	2059.85
609.36	2052.78
609.70	2045.09
610.05	2037.43
610.40	2029.18
610.75	2020.87
611.10	2013.17
611.44	2004.62
611.79	1996.04
612.14	1985.87
612.49	1975.37
612.83	1966.23
613.18	1957.15
613.53	1947.87
613.88	1938.38
614.22	1929.96
614.57	1920.00
614.92	1909.54
615.27	1899.52
615.61	1889.49
615.96	1879.71
616.31	1870.15
616.65	1860.81
617.00	1850.90
617.35	1841.45
617.70	1831.70
618.04	1821.62
618.39	1811.20
618.74	1801.45
619.08	1791.87
619.43	1783.13
619.78	1775.07
620.12	1766.26
620.47	1756.43
620.82	1746.24
621.16	1736.51
621.51	1726.43
621.85	1716.70
622.20	1706.21
622.55	1695.63
622.89	1685.71
623.24	1676.07
623.59	1666.27
623.93	1656.24
624.28	1646.69
624.62	1636.35
624.97	1626.04
625.32	1616.47
625.66	1607.73
626.01	1598.78
626.35	1589.27
626.70	1579.23
627.04	1568.97
627.39	1558.94
627.73	1549.80
628.08	1540.69
628.43	1531.03
628.77	1521.92
629.12	1512.98
629.46	1505.11
629.81	1496.64
630.15	1487.05
630.50	1477.14
630.84	1466.70
631.19	1456.68
631.53	1447.24
631.88	1437.05
632.22	1426.97
632.57	1417.53
632.91	1407.39
633.26	1397.68
633.60	1388.13
633.95	1378.83
634.29	1369.40
634.64	1360.10
634.98	1350.16
635.32	1340.87
635.67	1332.32
636.01	1322.99
636.36	1313.23
636.70	1303.72
637.05	1294.50
637.39	1285.55
637.73	1277.09
638.08	1269.57
638.42	1261.24
638.77	1252.38
639.11	1244.17
639.45	1236.45
639.80	1227.78
640.14	1219.09
640.49	1210.19
640.83	1201.29
641.17	1193.14
641.52	1185.07
641.86	1176.35
642.20	1168.46
642.55	1159.81
642.89	1150.95
643.23	1142.20
643.58	1134.12
643.92	1125.09
644.26	1116.40
644.61	1108.04
644.95	1099.21
645.29	1089.87
645.64	1080.89
645.98	1072.60
646.32	1064.67
646.66	1056.18
647.01	1047.87
647.35	1039.76
647.69	1031.40
648.04	1023.18
648.38	1014.34
648.72	1005.51
649.06	997.18
649.41	989.00
649.75	981.12
650.09	973.29
650.43	965.30
650.78	957.02
651.12	949.35
651.46	941.96
651.80	934.69
652.14	927.39
652.49	919.92
652.83	912.61
653.17	904.84
653.51	897.22
653.85	889.96
654.20	882.70
654.54	875.13
654.88	867.97
655.22	860.81
655.56	853.88
655.90	847.05
656.25	840.33
656.59	833.33
656.93	826.35
657.27	819.22
657.61	812.37
657.95	806.34
658.29	800.51
658.64	794.42
658.98	787.98
659.32	781.38
659.66	775.23
660.00	768.83
660.34	762.86
660.68	756.78
661.02	750.52
661.36	744.70
661.70	739.04
662.05	733.36
662.39	727.92
662.73	722.62
663.07	717.34
663.41	711.86
663.75	706.29
664.09	700.66
664.43	695.37
664.77	690.05
665.11	684.24
665.45	678.37
665.79	672.57
666.13	666.95
666.47	661.61
666.81	656.20
667.15	650.92
667.49	645.80
667.83	640.68
668.17	635.55
668.51	630.45
668.85	625.65
669.19	620.89
669.53	615.94
669.87	610.86
670.21	606.10
670.55	601.40
670.89	597.04
671.23	592.86
671.57	588.51
671.91	584.31
672.25	580.29
672.58	576.21
672.92	572.22
673.26	568.32
673.60	564.51
673.94	560.77
674.28	557.17
674.62	553.42
674.96	549.73
675.30	546.26
675.64	542.64
675.97	539.06
676.31	535.47
676.65	531.87
676.99	528.41
677.33	524.67
677.67	521.01
678.01	517.28
678.34	513.63
678.68	510.21
679.02	506.61
679.36	502.95
679.70	499.38
680.04	495.89
680.37	492.50
680.71	489.27
681.05	486.14
681.39	483.00
681.73	479.96
682.06	476.95
682.40	473.87
682.74	470.68
683.08	467.53
683.42	464.44
683.75	461.60
684.09	458.69
684.43	456.03
684.77	453.21
685.10	450.38
685.44	447.54
685.78	444.58
686.12	441.89
686.45	439.24
686.79	436.67
687.13	434.19
687.46	431.66
687.80	428.96
688.14	426.18
688.48	423.63
688.81	420.95
689.15	418.39
689.49	415.84
689.82	413.41
690.16	410.89
690.50	408.48
690.83	405.95
691.17	403.46
691.51	401.02
691.84	398.81
692.18	396.66
692.52	394.47
692.85	392.44
693.19	390.33
693.52	388.17
693.86	385.95
694.20	383.76
694.53	381.66
694.87	379.55
695.21	377.48
695.54	375.33
695.88	373.22
696.21	371.05
696.55	368.98
696.88	366.99
697.22	365.09
697.56	363.22
697.89	361.43
698.23	359.72
698.56	357.94
698.90	356.19
699.23	354.27
699.57	352.49
699.90	350.67
700.24	348.95
700.58	347.23
700.91	345.67
701.25	344.22
701.58	342.66
701.92	341.08
702.25	339.54
702.59	337.99
702.92	336.52
703.26	335.03
703.59	333.61
703.93	332.37
704.26	330.92
704.60	329.47
704.93	328.05
705.26	326.55
705.60	325.09
705.93	323.63
706.27	322.36
706.60	321.10
706.94	319.88
707.27	318.49
707.61	317.19
707.94	315.84
708.27	314.31
708.61	312.93
708.94	311.62
709.28	310.36
709.61	309.12
709.94	307.95
710.28	306.78
710.61	305.63
710.95	304.23
711.28	303.24
711.61	302.08
711.95	300.98
712.28	299.86
712.61	298.73
712.95	297.71
713.28	296.70
713.61	295.59
713.95	294.44
714.28	293.48
714.61	292.42
714.95	291.44
715.28	290.48
715.61	289.44
715.95	288.51
716.28	287.53
716.61	286.60
716.95	285.62
717.28	284.74
717.61	283.80
717.94	282.93
718.28	281.90
718.61	281.06
718.94	280.13
719.27	279.27
719.61	278.48
719.94	277.61
720.27	276.69
720.60	275.84
720.94	275.11
721.27	274.36
721.60	273.73
721.93	273.01
722.27	272.35
722.60	271.75
722.93	271.09
723.26	270.45
723.59	269.79
723.93	269.13
724.26	268.49
724.59	267.88
724.92	267.31
725.25	266.77
725.59	266.19
725.92	265.70
726.25	265.17
726.58	264.63
726.91	264.05
727.24	263.56
727.57	263.02
727.91	262.41
728.24	261.89
728.57	261.31
728.90	260.77
729.23	260.21
729.56	259.74
729.89	259.22
730.22	258.72
730.55	258.19
730.89	257.70
731.22	257.17
731.55	256.65
731.88	256.13
732.21	255.59
732.54	255.07
732.87	254.56
733.20	254.11
733.53	253.63
733.86	253.21
734.19	252.72
734.52	252.33
734.85	252.08
735.18	251.59
735.51	251.22
735.84	250.78
736.17	250.45
736.50	249.95
736.83	249.80
737.16	249.41
737.49	249.03
737.82	248.63
738.15	248.27
738.48	247.95
738.81	247.58
739.14	247.17
739.47	246.80
739.80	246.46
740.13	246.08
740.46	245.72
740.79	245.35
741.12	244.97
741.45	244.62
741.78	244.19
742.11	243.92
742.44	243.54
742.77	243.26
743.10	242.90
743.43	242.59
743.75	242.01
744.08	241.96
744.41	241.62
744.74	241.31
745.07	240.98
745.40	240.64
745.73	240.40
746.06	240.13
746.39	239.85
746.71	239.48
747.04	239.17
747.37	238.85
747.70	238.58
748.03	238.29
748.36	238.02
748.68	237.66
749.01	237.32
749.34	237.03
749.67	236.77
750.00	236.50
750.33	236.38
750.65	236.15
750.98	235.61
751.31	235.41
751.64	235.21
751.97	235.07
752.29	234.81
752.62	234.48
752.95	234.20
753.28	233.91
753.60	233.65
753.93	233.50
754.26	233.26
754.59	232.98
754.91	232.75
755.24	232.54
755.57	232.32
755.90	232.09
756.22	231.90
756.55	231.65
756.88	231.37
757.20	231.01
757.53	230.75
757.86	230.57
758.19	230.36
758.51	230.15
758.84	229.88
759.17	229.67
759.49	229.52
759.82	229.47
760.15	229.32
760.47	229.15
760.80	228.90
761.13	228.80
761.45	228.63
761.78	228.45
762.11	228.24
762.43	228.08
762.76	227.92
763.08	227.77
763.41	227.64
763.74	227.53
764.06	227.38
764.39	227.23
764.71	227.08
765.04	226.94
765.37	226.74
765.69	226.55
766.02	226.43
766.34	226.27
766.67	226.05
767.00	225.97
767.32	225.97
767.65	225.96
767.97	225.78
768.30	225.67
768.62	225.57
768.95	225.42
769.27	225.29
769.60	225.20
769.92	225.05
770.25	224.89
770.57	224.69
770.90	224.59
771.22	224.47
771.55	224.33
771.87	224.23
772.20	224.12
772.52	224.17
772.85	224.27
773.17	224.18
773.50	224.03
773.82	223.88
774.15	223.68
774.47	223.43
774.80	223.35
775.12	223.24
775.45	223.12
775.77	223.09
776.09	223.04
776.42	222.96
776.74	222.93
777.07	222.86
777.39	222.82
777.72	222.71
778.04	222.64
778.36	222.55
778.69	222.43
779.01	222.37
779.33	222.13
779.66	221.87
779.98	221.76
780.31	221.71
780.63	221.71
780.95	221.69
781.28	221.64
781.60	221.54
781.92	221.48
782.25	221.43
782.57	221.32
782.89	221.23
783.22	221.15
783.54	221.05
783.86	221.00
784.19	220.92
784.51	220.93
784.83	220.85
785.16	220.84
785.48	220.79
785.80	220.74
786.12	220.73
786.45	220.66
786.77	220.63
787.09	220.59
787.42	220.48
787.74	220.42
788.06	220.34
788.38	220.30
788.71	220.20
789.03	220.15
789.35	220.14
789.67	220.06
789.99	220.03
790.32	219.95
790.64	219.93
790.96	220.06
791.28	219.94
791.61	219.91
791.93	219.80
792.25	219.76
792.57	219.85
792.89	219.74
793.21	219.71
793.54	219.64
793.86	219.54
794.18	219.49
794.50	219.41
794.82	219.37
795.14	219.35
795.47	219.38
795.79	219.31
796.11	219.24
796.43	219.23
796.75	219.17
797.07	219.11
797.39	219.01
797.71	218.84
798.04	218.80
798.36	218.72
798.68	218.69
799.00	218.67
799.32	218.52
799.64	218.54
799.96	218.49
800.28	218.53
800.60	218.52
800.92	218.48
801.24	218.42
801.56	218.42
801.89	218.35
802.21	218.33
802.53	218.28
802.85	218.26
803.17	218.31
803.49	218.26
803.81	218.26
804.13	218.23
804.45	218.18
804.77	218.14
805.09	218.15
805.41	218.11
805.73	218.04
806.05	217.99
806.37	217.92
806.69	217.90
807.01	217.81
807.33	217.79
807.65	217.72
807.97	217.80
808.28	217.75
808.60	217.71
808.92	217.64
809.24	217.76
809.56	217.72
809.88	217.63
810.20	217.60
810.52	217.61
810.84	217.58
811.16	217.54
811.48	217.52
811.80	217.57
812.12	217.58
812.43	217.60
812.75	217.60
813.07	217.57
813.39	217.53
813.71	217.49
814.03	217.45
814.35	217.48
814.67	217.37
814.98	217.34
815.30	217.32
815.62	217.28
815.94	217.12
816.26	217.10
816.58	217.03
816.89	217.04
817.21	216.97
817.53	216.99
817.85	216.95
818.17	216.91
818.48	216.80
818.80	216.77
819.12	216.73
819.44	216.69
819.76	216.62
820.07	216.60
820.39	216.60
820.71	216.61
821.03	216.59
821.34	216.58
821.66	216.59
821.98	216.59
822.30	216.59
822.61	216.69
822.93	216.66
823.25	216.64
823.57	216.56
823.88	216.57
824.20	216.55
824.52	216.55
824.83	216.53
825.15	216.51
825.47	216.51
825.79	216.50
826.10	216.46
826.42	216.46
826.74	216.48
827.05	216.45
827.37	216.46
827.69	216.40
828.00	216.41
828.32	216.38
828.64	216.34
828.95	216.46
829.27	216.39
829.58	216.35
829.90	216.40
830.22	216.46
830.53	216.40
830.85	216.35
831.17	216.31
831.48	216.32
831.80	216.32
832.11	216.31
832.43	216.25
832.75	216.23
833.06	216.33
833.38	216.26
833.69	216.24
834.01	216.20
834.32	216.19
834.64	216.14
834.96	216.12
835.27	216.12
835.59	215.99
835.90	215.95
836.22	215.95
836.53	215.87
836.85	215.84
837.16	216.02
837.48	216.03
837.79	216.10
838.11	216.09
838.42	216.07
838.74	216.08
839.05	216.06
839.37	216.05
839.68	215.91
840.00	215.89
840.31	215.90
840.63	215.90
840.94	215.86
841.26	215.83
841.57	215.84
841.88	215.86
842.20	215.85
842.51	215.81
842.83	215.81
843.14	216.00
843.46	215.98
843.77	215.86
844.08	215.83
844.40	215.77
844.71	215.77
845.03	215.76
845.34	215.75
845.65	215.78
845.97	215.76
846.28	215.78
846.60	215.81
846.91	215.77
847.22	215.80
847.54	215.87
847.85	215.88
848.16	215.83
848.48	215.76
848.79	215.82
849.10	215.84
849.42	215.85
849.73	215.66
850.04	215.65
850.36	215.58
850.67	215.61
850.98	215.64
851.30	215.64
851.61	215.62
851.92	215.59
852.23	215.64
852.55	215.66
852.86	215.64
853.17	215.64
853.49	215.68
853.80	215.68
854.11	215.67
854.42	215.70
854.74	215.68
855.05	215.73
855.36	215.64
855.67	215.67
855.99	215.68
856.30	215.92
856.61	215.91
856.92	215.88
857.23	215.85
857.55	215.82
857.86	215.78
858.17	215.83
858.48	215.81
858.79	215.75
859.11	215.75
859.42	215.76
859.73	215.75
860.04	215.73
860.35	215.67
860.66	215.60
860.98	215.58
861.29	215.64
861.60	215.59
861.91	215.66
862.22	215.61
862.53	215.55
862.84	215.30
863.16	215.35
863.47	215.33
863.78	215.30
864.09	215.27
864.40	215.29
864.71	215.29
865.02	215.30
865.33	215.30
865.64	215.24
865.95	215.28
866.27	215.38
866.58	215.36
866.89	215.44
867.20	215.44
867.51	215.37
867.82	215.35
868.13	215.43
868.44	215.34
868.75	215.39
869.06	215.41
869.37	215.44
869.68	215.37
869.99	215.42
870.30	215.48
870.61	215.52
870.92	215.48
871.23	215.48
871.54	215.48
871.85	215.54
872.16	215.57
872.47	215.53
872.78	215.43
873.09	215.47
873.40	215.40
873.71	215.43
874.02	215.48
874.33	215.46
874.64	215.39
874.95	215.45
875.26	215.42
875.56	215.43
875.87	215.40
876.18	215.43
876.49	215.60
876.80	215.54
877.11	215.54
877.42	215.58
877.73	215.56
878.04	215.55
878.35	215.53
878.66	215.54
878.96	215.53
879.27	215.52
879.58	215.47
879.89	215.47
880.20	215.53
880.51	215.49
880.82	215.47
881.12	215.48
881.43	215.45
881.74	215.40
882.05	215.38
882.36	215.43
882.67	215.43
882.97	215.23
883.28	215.25
883.59	215.20
883.90	215.18
884.21	215.22
884.51	215.18
884.82	215.12
885.13	215.14
885.44	215.13
885.74	215.12
886.05	215.13
886.36	215.15
886.67	215.04
886.98	215.19
887.28	215.24
887.59	215.25
887.90	215.24
888.20	215.26
888.51	215.29
888.82	215.22
889.13	215.21
889.43	215.38
889.74	215.35
890.05	215.36
890.35	215.36
890.66	215.29
890.97	215.29
891.28	215.31
891.58	215.30
891.89	215.32
892.20	215.31
892.50	215.28
892.81	215.26
893.12	215.25
893.42	215.13
893.73	215.16
894.04	215.15
894.34	215.16
894.65	215.15
894.95	215.09
895.26	215.10
895.57	215.21
895.87	215.04
896.18	215.10
896.48	215.12
896.79	215.10
897.10	215.11
897.40	215.12
897.71	215.16
898.01	215.13
898.32	215.15
898.63	215.15
898.93	215.19
899.24	215.19
899.54	215.20
899.85	215.17
900.15	215.13
900.46	215.13
900.76	215.16
901.07	215.19
901.38	215.19
901.68	215.23
901.99	215.11
902.29	215.11
902.60	215.07
902.90	215.04
903.21	215.03
903.51	215.03
903.82	215.10
904.12	215.07
904.43	215.08
904.73	215.07
905.03	215.08
905.34	215.25
905.64	215.25
905.95	215.23
906.25	215.21
906.56	215.21
906.86	215.21
907.17	215.19
907.47	215.18
907.77	215.16
908.08	215.12
908.38	215.14
908.69	215.14
908.99	215.17
909.30	215.18
909.60	215.19
909.90	215.21
910.21	215.13
910.51	215.11
910.81	215.12
911.12	215.12
911.42	215.12
911.73	214.92
912.03	214.93
912.33	215.00
912.64	215.03
912.94	214.99
913.24	214.96
913.55	214.94
913.85	214.94
914.15	215.01
914.46	215.05
914.76	215.04
915.06	215.01
915.37	214.98
915.67	214.97
915.97	214.95
916.27	214.94
916.58	214.95
916.88	214.94
917.18	214.92
917.49	215.02
917.79	215.01
918.09	215.04
918.39	215.06
918.70	215.03
919.00	215.02
919.30	215.13
919.60	215.12
919.91	215.09
920.21	215.09
920.51	215.04
920.81	215.00
921.12	215.03
921.42	215.01
921.72	215.01
922.02	215.03
922.32	215.05
922.63	215.02
922.93	215.09
923.23	215.08
923.53	215.07
923.83	214.94
924.13	214.97
924.44	214.96
924.74	215.01
925.04	215.03
925.34	215.02
925.64	214.93
925.94	214.95
926.24	215.05
926.55	215.04
926.85	215.08
927.15	215.06
927.45	215.05
927.75	215.09
928.05	215.10
928.35	215.06
928.65	215.12
928.95	215.17
929.26	215.08
929.56	215.14
929.86	215.14
930.16	215.16
930.46	215.13
930.76	215.15
931.06	215.04
931.36	215.00
931.66	215.02
931.96	215.06
932.26	215.08
932.56	215.00
932.86	215.01
933.16	214.97
933.46	214.99
933.76	214.99
934.06	215.02
934.36	215.11
934.66	215.10
934.96	215.06
935.26	215.07
935.56	215.12
935.86	215.07
936.16	215.05
936.46	215.02
936.76	215.04
937.06	214.99
937.36	214.99
937.66	214.99
937.96	214.99
938.26	214.93
938.56	214.90
938.86	214.93
939.16	214.97
939.46	215.00
939.76	215.02
940.06	214.98
940.35	214.92
940.65	214.81
940.95	214.83
941.25	214.78
941.55	214.73
941.85	214.67
942.15	214.71
942.45	214.79
942.75	214.79
943.04	214.82
943.34	214.86
943.64	214.87
943.94	214.85
944.24	214.83
944.54	214.86
944.84	214.83
945.13	214.80
945.43	214.74
945.73	214.75
946.03	214.71
946.33	214.70
946.62	214.70
946.92	214.70
947.22	214.73
947.52	214.76
947.82	214.83
948.11	214.84
948.41	214.79
948.71	214.72
949.01	214.75
949.31	214.68
949.60	214.66
949.90	214.68
950.20	214.67
950.50	214.67
950.79	214.64
951.09	214.71
951.39	214.72
951.69	214.71
951.98	214.72
952.28	214.71
952.58	214.73
952.87	214.73
953.17	214.74
953.47	214.73
953.76	214.71
954.06	214.66
954.36	214.64
954.66	214.66
954.95	214.71
955.25	214.74
955.55	214.75
955.84	214.73
956.14	214.74
956.44	214.77
956.73	214.74
957.03	214.77
957.32	214.75
957.62	214.72
957.92	214.79
958.21	214.80
958.51	215.05
958.81	215.09
959.10	215.11
959.40	215.18
959.69	215.16
959.99	215.19
960.29	215.20
960.58	215.20
960.88	215.25
961.17	215.23
961.47	215.18
961.76	215.17
962.06	215.20
962.36	215.19
962.65	215.22
962.95	215.24
963.24	215.21
963.54	215.22
963.83	215.26
964.13	215.22
964.42	215.16
964.72	214.98
965.01	214.95
965.31	214.93
965.60	214.87
965.90	215.00
966.19	214.98
966.49	215.00
966.78	214.99
967.08	214.99
967.37	215.00
967.67	214.97
967.96	215.02
968.26	214.99
968.55	215.01
968.85	214.99
969.14	214.99
969.43	214.99
969.73	214.97
970.02	214.94
970.32	214.94
970.61	214.95
970.91	214.90
971.20	214.86
971.49	214.84
971.79	214.85
972.08	214.72
972.38	214.74
972.67	214.72
972.96	214.77
973.26	214.74
973.55	214.79
973.85	214.83
974.14	214.81
974.43	214.86
974.73	214.80
975.02	214.81
975.31	214.83
975.61	214.81
975.90	214.79
976.19	214.78
976.49	214.78
976.78	214.82
977.07	214.84
977.37	214.86
977.66	214.89
977.95	214.87
978.24	214.86
978.54	214.89
978.83	214.88
979.12	214.86
979.42	214.84
979.71	214.80
980.00	214.75
980.29	214.74
980.59	214.69
980.88	214.77
981.17	214.72
981.46	214.70
981.76	214.72
982.05	214.79
982.34	214.80
982.63	214.81
982.93	214.77
983.22	214.80
983.51	214.81
983.80	214.84
984.09	214.87
984.39	214.86
984.68	214.83
984.97	214.81
985.26	214.79
985.55	214.81
985.85	214.74
986.14	214.78
986.43	214.83
986.72	214.86
987.01	214.77
987.30	214.83
987.59	214.80
987.89	214.80
988.18	214.74
988.47	214.72
988.76	214.67
989.05	214.68
989.34	214.63
989.63	214.69
989.92	214.62
990.22	214.60
990.51	214.63
990.80	214.60
991.09	214.64
991.38	214.66
991.67	214.64
991.96	214.64
992.25	214.63
992.54	214.57
992.83	214.53
993.12	214.53
993.41	214.53
993.70	214.63
993.99	214.68
994.28	214.70
994.58	214.77
994.87	214.76
995.16	214.75
995.45	214.75
995.74	214.67
996.03	214.75
996.32	214.80
996.61	214.81
996.90	214.79
997.19	214.74
997.48	214.78
997.77	214.76
998.06	214.77
998.34	214.76
998.63	214.77
998.92	214.79
999.21	214.80
999.50	214.79
999.79	214.73
1000.08	214.74
1000.37	214.75
1000.66	214.72
1000.95	214.80
1001.24	214.81
1001.53	214.83
1001.82	214.83
1002.11	214.77
1002.40	214.76
1002.68	214.81
1002.97	214.96
1003.26	214.96
1003.55	214.88
1003.84	214.91
1004.13	215.00
1004.42	215.01
1004.71	215.00
1004.99	215.01
1005.28	215.07
1005.57	215.06
1005.86	215.07
1006.15	215.01
1006.44	214.97
1006.72	214.99
1007.01	214.92
1007.30	214.91
1007.59	214.92
1007.88	214.87
1008.17	214.87
1008.45	214.82
1008.74	214.74
1009.03	214.66
1009.32	214.67
1009.60	214.68
1009.89	214.66
1010.18	214.56
1010.47	214.56
1010.76	214.56
1011.04	214.53
1011.33	214.69
1011.62	214.70
1011.91	214.67
1012.19	214.67
1012.48	214.69
1012.77	214.67
1013.05	214.78
1013.34	214.78
1013.63	214.74
1013.92	214.79
1014.20	214.78
1014.49	214.79
1014.78	214.81
1015.06	214.72
1015.35	214.73
1015.64	214.79
1015.92	214.84
1016.21	214.86
1016.50	214.84
1016.78	214.88
1017.07	214.90
1017.36	214.70
1017.64	214.68
1017.93	214.72
1018.22	214.71
1018.50	214.72
1018.79	214.74
1019.08	214.64
1019.36	214.65
1019.65	214.65
1019.93	214.73
1020.22	214.77
1020.51	214.91
1020.79	214.86
1021.08	214.13
1021.36	214.72
1021.65	215.13
1021.94	214.46
1022.22	214.77
1022.51	214.50
1022.79	216.07
1023.08	215.03
1023.36	217.52
1023.65	213.68
>>>>>End Processed Spectral Data<<<<<
