SpectraSuite Data File
++++++++++++++++++++++++++++++++++++
Date: Tue Jan 29 16:47:59 EST 2013
User: group
Dark Spectrum Present: No
Reference Spectrum Present: No
Number of Sampled Component Spectra: 1
Spectrometers: USB2E7196
Integration Time (usec): 65000 (USB2E7196)
Spectra Averaged: 100 (USB2E7196)
Boxcar Smoothing: 10 (USB2E7196)
Correct for Electrical Dark: No (USB2E7196)
Strobe/Lamp Enabled: No (USB2E7196)
Correct for Detector Non-linearity: No (USB2E7196)
Correct for Stray Light: No (USB2E7196)
Number of Pixels in Processed Spectrum: 2048
>>>>>Begin Processed Spectral Data<<<<<
339.09	0.00
339.48	201.59
339.86	203.21
340.24	204.65
340.63	205.76
341.01	210.21
341.39	208.08
341.78	209.88
342.16	211.46
342.54	211.54
342.93	200.76
343.31	210.90
343.69	211.45
344.07	211.89
344.46	212.32
344.84	212.74
345.22	212.91
345.60	213.20
345.99	213.42
346.37	213.57
346.75	213.68
347.13	213.73
347.52	213.80
347.90	213.94
348.28	214.00
348.66	214.10
349.05	214.06
349.43	214.13
349.81	214.18
350.19	214.22
350.57	214.30
350.96	214.40
351.34	214.52
351.72	214.61
352.10	214.74
352.48	214.82
352.87	214.87
353.25	214.91
353.63	214.98
354.01	215.04
354.39	215.14
354.77	215.21
355.15	215.37
355.54	215.41
355.92	215.40
356.30	215.47
356.68	215.67
357.06	215.77
357.44	215.83
357.82	215.89
358.20	215.97
358.58	216.03
358.97	216.11
359.35	216.18
359.73	216.29
360.11	216.35
360.49	216.39
360.87	216.42
361.25	216.52
361.63	216.65
362.01	216.70
362.39	216.70
362.77	216.78
363.15	216.80
363.53	216.84
363.91	216.88
364.29	216.87
364.67	216.69
365.05	216.69
365.43	216.71
365.81	216.75
366.19	216.86
366.57	216.94
366.95	216.94
367.33	216.92
367.71	216.92
368.09	216.93
368.47	216.97
368.85	216.99
369.23	217.01
369.61	216.91
369.99	216.97
370.37	216.98
370.75	217.07
371.13	216.99
371.51	216.96
371.89	216.97
372.27	217.00
372.65	216.99
373.03	216.97
373.41	216.95
373.78	216.89
374.16	216.75
374.54	216.65
374.92	216.58
375.30	216.53
375.68	216.43
376.06	216.38
376.44	216.32
376.82	216.25
377.19	216.18
377.57	216.12
377.95	215.99
378.33	215.91
378.71	215.72
379.09	215.74
379.47	215.70
379.84	215.63
380.22	215.57
380.60	215.50
380.98	215.44
381.36	215.40
381.73	215.34
382.11	215.35
382.49	215.32
382.87	215.28
383.25	215.21
383.62	215.45
384.00	215.37
384.38	215.32
384.76	215.34
385.13	215.38
385.51	215.36
385.89	215.31
386.27	215.33
386.64	215.34
387.02	215.27
387.40	215.24
387.78	215.23
388.15	215.21
388.53	215.23
388.91	215.23
389.29	215.17
389.66	215.17
390.04	215.12
390.42	215.13
390.79	215.10
391.17	215.09
391.55	214.84
391.92	214.86
392.30	214.89
392.68	214.84
393.05	214.82
393.43	214.80
393.81	214.81
394.18	214.74
394.56	214.71
394.94	214.75
395.31	214.73
395.69	214.79
396.06	214.81
396.44	214.79
396.82	214.78
397.19	214.91
397.57	214.92
397.95	214.98
398.32	214.94
398.70	214.99
399.07	215.12
399.45	215.13
399.82	215.16
400.20	215.19
400.58	215.28
400.95	215.25
401.33	215.39
401.70	215.60
402.08	215.69
402.45	215.81
402.83	215.95
403.20	216.10
403.58	216.17
403.95	216.32
404.33	216.51
404.71	216.67
405.08	216.93
405.46	217.13
405.83	217.31
406.21	217.52
406.58	217.77
406.96	217.98
407.33	218.27
407.70	218.58
408.08	219.04
408.45	219.39
408.83	219.78
409.20	220.14
409.58	220.45
409.95	220.95
410.33	221.41
410.70	221.84
411.08	222.42
411.45	223.01
411.82	223.59
412.20	224.28
412.57	225.14
412.95	225.68
413.32	226.50
413.69	227.37
414.07	228.27
414.44	229.29
414.82	230.28
415.19	231.47
415.56	232.66
415.94	233.84
416.31	235.22
416.68	236.68
417.06	238.29
417.43	239.81
417.81	241.56
418.18	243.38
418.55	245.32
418.93	247.35
419.30	249.42
419.67	251.68
420.04	254.00
420.42	256.38
420.79	259.29
421.16	262.11
421.54	265.00
421.91	268.04
422.28	271.10
422.66	274.44
423.03	277.74
423.40	281.18
423.77	284.82
424.15	288.50
424.52	292.34
424.89	296.53
425.26	300.61
425.64	304.53
426.01	308.84
426.38	313.33
426.75	317.89
427.13	322.65
427.50	327.58
427.87	332.73
428.24	337.90
428.61	342.87
428.99	348.41
429.36	354.46
429.73	360.37
430.10	366.30
430.47	372.43
430.85	378.73
431.22	385.40
431.59	392.55
431.96	399.45
432.33	407.00
432.70	414.27
433.08	422.83
433.45	430.91
433.82	438.95
434.19	447.91
434.56	456.60
434.93	464.97
435.30	473.35
435.68	482.50
436.05	491.59
436.42	500.57
436.79	508.67
437.16	517.43
437.53	526.77
437.90	535.98
438.27	544.90
438.64	554.21
439.01	562.82
439.38	570.33
439.75	577.70
440.13	586.16
440.50	594.12
440.87	600.60
441.24	607.21
441.61	614.56
441.98	619.97
442.35	626.39
442.72	632.82
443.09	638.87
443.46	642.67
443.83	645.25
444.20	647.47
444.57	650.68
444.94	652.21
445.31	653.67
445.68	655.02
446.05	655.66
446.42	654.85
446.79	653.90
447.16	652.98
447.53	652.22
447.90	648.92
448.27	645.66
448.64	641.06
449.01	637.77
449.37	631.85
449.74	626.11
450.11	619.13
450.48	611.63
450.85	604.18
451.22	597.69
451.59	591.50
451.96	585.59
452.33	577.75
452.70	570.60
453.07	562.06
453.43	553.45
453.80	545.18
454.17	537.13
454.54	529.47
454.91	521.13
455.28	513.10
455.65	505.60
456.02	498.06
456.38	491.63
456.75	483.77
457.12	477.17
457.49	470.69
457.86	464.48
458.23	459.08
458.59	453.14
458.96	447.07
459.33	441.69
459.70	436.27
460.07	431.96
460.43	427.01
460.80	422.42
461.17	418.41
461.54	414.14
461.91	410.10
462.27	406.00
462.64	402.61
463.01	398.83
463.38	395.11
463.74	391.36
464.11	388.09
464.48	385.19
464.85	382.07
465.21	379.62
465.58	376.99
465.95	373.82
466.32	371.16
466.68	368.55
467.05	365.97
467.42	363.42
467.78	360.73
468.15	358.19
468.52	356.22
468.88	353.67
469.25	351.48
469.62	349.63
469.98	347.71
470.35	345.83
470.72	344.08
471.08	342.25
471.45	340.76
471.82	339.26
472.18	337.60
472.55	336.37
472.92	334.92
473.28	333.72
473.65	332.59
474.02	331.46
474.38	330.55
474.75	329.77
475.11	328.93
475.48	328.37
475.85	327.84
476.21	327.37
476.58	327.01
476.94	326.75
477.31	326.43
477.67	326.14
478.04	326.00
478.41	325.93
478.77	326.09
479.14	326.02
479.50	326.13
479.87	326.42
480.23	326.75
480.60	327.04
480.96	327.25
481.33	327.82
481.69	328.40
482.06	328.96
482.42	329.41
482.79	330.05
483.15	330.78
483.52	331.75
483.88	332.62
484.25	333.57
484.61	334.56
484.98	335.60
485.34	336.96
485.71	338.35
486.07	339.81
486.44	341.14
486.80	342.77
487.17	344.43
487.53	346.26
487.90	348.15
488.26	350.14
488.62	352.30
488.99	354.34
489.35	356.47
489.72	358.78
490.08	361.33
490.44	363.84
490.81	366.56
491.17	369.30
491.54	372.27
491.90	375.32
492.26	378.59
492.63	382.03
492.99	385.50
493.36	389.12
493.72	392.98
494.08	396.96
494.45	401.15
494.81	405.58
495.17	410.01
495.54	414.71
495.90	419.47
496.26	424.42
496.63	429.66
496.99	435.11
497.35	440.69
497.72	446.50
498.08	452.44
498.44	458.52
498.80	464.89
499.17	471.41
499.53	478.10
499.89	484.98
500.26	491.94
500.62	498.96
500.98	506.34
501.34	513.80
501.71	521.55
502.07	529.34
502.43	537.27
502.79	545.43
503.16	553.80
503.52	562.40
503.88	571.14
504.24	580.04
504.60	589.06
504.97	598.33
505.33	607.57
505.69	617.43
506.05	627.31
506.41	637.18
506.78	647.27
507.14	657.53
507.50	667.98
507.86	678.71
508.22	689.49
508.59	700.14
508.95	711.19
509.31	722.41
509.67	733.87
510.03	745.20
510.39	756.85
510.75	768.59
511.12	780.50
511.48	792.61
511.84	804.81
512.20	817.07
512.56	829.62
512.92	842.48
513.28	855.17
513.64	867.89
514.00	880.70
514.37	893.64
514.73	906.73
515.09	919.75
515.45	932.60
515.81	945.65
516.17	959.10
516.53	972.32
516.89	985.40
517.25	998.65
517.61	1012.35
517.97	1025.74
518.33	1038.99
518.69	1052.57
519.05	1066.33
519.41	1080.13
519.77	1094.10
520.13	1107.46
520.49	1120.62
520.85	1133.95
521.21	1147.38
521.57	1161.10
521.93	1174.13
522.29	1187.87
522.65	1201.48
523.01	1215.17
523.37	1228.37
523.73	1241.69
524.09	1254.93
524.45	1268.50
524.81	1282.01
525.17	1295.39
525.53	1308.66
525.89	1322.01
526.25	1335.20
526.61	1348.03
526.97	1361.15
527.33	1374.15
527.68	1387.69
528.04	1401.26
528.40	1414.50
528.76	1427.90
529.12	1440.76
529.48	1454.21
529.84	1466.51
530.20	1479.32
530.56	1492.04
530.91	1505.37
531.27	1518.29
531.63	1530.97
531.99	1543.74
532.35	1556.01
532.71	1568.32
533.07	1581.30
533.42	1593.65
533.78	1605.73
534.14	1617.88
534.50	1629.09
534.86	1640.77
535.21	1651.63
535.57	1663.16
535.93	1674.47
536.29	1685.56
536.65	1697.20
537.00	1708.22
537.36	1719.78
537.72	1730.86
538.08	1742.38
538.44	1753.50
538.79	1764.69
539.15	1775.79
539.51	1786.66
539.87	1798.17
540.22	1809.24
540.58	1820.26
540.94	1831.30
541.29	1841.84
541.65	1851.79
542.01	1862.44
542.37	1872.55
542.72	1882.82
543.08	1892.66
543.44	1903.22
543.79	1912.53
544.15	1921.89
544.51	1931.90
544.87	1941.79
545.22	1951.10
545.58	1959.94
545.94	1968.89
546.29	1977.38
546.65	1985.91
547.01	1994.17
547.36	2001.75
547.72	2009.48
548.07	2017.01
548.43	2024.76
548.79	2032.74
549.14	2040.87
549.50	2049.47
549.86	2057.49
550.21	2065.09
550.57	2072.94
550.92	2079.78
551.28	2087.35
551.64	2094.85
551.99	2102.48
552.35	2109.80
552.70	2116.83
553.06	2123.59
553.41	2129.94
553.77	2136.51
554.13	2142.89
554.48	2150.03
554.84	2157.24
555.19	2163.74
555.55	2170.24
555.90	2176.59
556.26	2183.42
556.61	2189.53
556.97	2194.24
557.32	2200.01
557.68	2206.29
558.03	2212.10
558.39	2217.46
558.74	2223.43
559.10	2228.88
559.45	2234.45
559.81	2239.96
560.16	2245.36
560.52	2251.16
560.87	2257.50
561.23	2263.49
561.58	2270.05
561.94	2275.30
562.29	2279.88
562.64	2285.94
563.00	2291.59
563.35	2297.05
563.71	2302.50
564.06	2308.11
564.42	2314.07
564.77	2319.00
565.12	2324.30
565.48	2329.16
565.83	2334.55
566.19	2339.80
566.54	2345.04
566.89	2349.48
567.25	2353.91
567.60	2359.43
567.96	2364.50
568.31	2368.94
568.66	2373.18
569.02	2377.00
569.37	2380.53
569.72	2384.90
570.08	2388.29
570.43	2391.46
570.78	2394.51
571.14	2396.92
571.49	2399.94
571.84	2403.30
572.20	2406.15
572.55	2408.98
572.90	2411.31
573.26	2414.05
573.61	2416.55
573.96	2418.71
574.31	2420.54
574.67	2422.39
575.02	2423.05
575.37	2424.44
575.72	2424.99
576.08	2426.34
576.43	2426.49
576.78	2426.83
577.13	2428.17
577.49	2429.32
577.84	2429.94
578.19	2431.01
578.54	2431.50
578.90	2431.99
579.25	2431.66
579.60	2431.39
579.95	2430.53
580.30	2430.28
580.66	2429.38
581.01	2427.58
581.36	2424.93
581.71	2423.48
582.06	2422.05
582.42	2421.02
582.77	2418.52
583.12	2416.70
583.47	2415.01
583.82	2414.08
584.17	2412.85
584.53	2410.59
584.88	2408.23
585.23	2406.31
585.58	2403.91
585.93	2401.77
586.28	2399.38
586.63	2396.92
586.98	2394.69
587.34	2392.49
587.69	2389.93
588.04	2387.58
588.39	2386.12
588.74	2383.52
589.09	2380.46
589.44	2377.04
589.79	2374.39
590.14	2372.24
590.49	2369.14
590.84	2365.12
591.19	2361.78
591.54	2358.33
591.89	2354.24
592.25	2350.87
592.60	2346.59
592.95	2342.31
593.30	2338.09
593.65	2333.71
594.00	2329.11
594.35	2325.92
594.70	2321.23
595.05	2316.75
595.40	2311.39
595.75	2305.45
596.10	2301.86
596.45	2297.09
596.80	2292.42
597.15	2287.21
597.50	2281.31
597.85	2276.46
598.19	2271.33
598.54	2265.60
598.89	2260.22
599.24	2255.49
599.59	2249.26
599.94	2243.16
600.29	2237.19
600.64	2231.21
600.99	2224.26
601.34	2218.81
601.69	2211.82
602.04	2205.21
602.39	2198.49
602.74	2192.26
603.08	2186.71
603.43	2180.04
603.78	2173.18
604.13	2166.33
604.48	2158.94
604.83	2152.65
605.18	2146.46
605.53	2139.48
605.87	2132.53
606.22	2125.72
606.57	2117.91
606.92	2109.90
607.27	2102.97
607.62	2096.30
607.96	2089.26
608.31	2082.81
608.66	2074.91
609.01	2067.18
609.36	2060.11
609.70	2052.33
610.05	2044.58
610.40	2036.22
610.75	2027.79
611.10	2020.02
611.44	2011.00
611.79	2002.35
612.14	1992.47
612.49	1981.71
612.83	1972.13
613.18	1962.72
613.53	1953.33
613.88	1943.69
614.22	1935.14
614.57	1925.32
614.92	1914.73
615.27	1904.50
615.61	1894.29
615.96	1884.71
616.31	1875.19
616.65	1865.79
617.00	1856.24
617.35	1846.56
617.70	1836.90
618.04	1827.07
618.39	1817.04
618.74	1807.46
619.08	1797.92
619.43	1789.37
619.78	1781.19
620.12	1772.73
620.47	1763.22
620.82	1752.97
621.16	1743.22
621.51	1733.50
621.85	1723.87
622.20	1713.62
622.55	1703.20
622.89	1693.38
623.24	1683.76
623.59	1673.90
623.93	1663.82
624.28	1654.01
624.62	1644.12
624.97	1633.98
625.32	1624.19
625.66	1615.23
626.01	1606.49
626.35	1597.15
626.70	1587.11
627.04	1577.17
627.39	1567.16
627.73	1558.09
628.08	1549.26
628.43	1539.84
628.77	1530.53
629.12	1521.66
629.46	1513.88
629.81	1505.68
630.15	1496.36
630.50	1486.61
630.84	1476.27
631.19	1466.57
631.53	1457.37
631.88	1447.26
632.22	1437.33
632.57	1428.11
632.91	1418.26
633.26	1408.40
633.60	1398.95
633.95	1389.71
634.29	1380.21
634.64	1370.99
634.98	1361.00
635.32	1351.78
635.67	1343.37
636.01	1334.28
636.36	1324.70
636.70	1315.31
637.05	1305.89
637.39	1297.05
637.73	1288.52
638.08	1281.07
638.42	1273.00
638.77	1264.36
639.11	1256.26
639.45	1248.51
639.80	1240.12
640.14	1231.37
640.49	1222.69
640.83	1213.93
641.17	1205.81
641.52	1197.83
641.86	1189.34
642.20	1181.58
642.55	1173.04
642.89	1164.27
643.23	1155.70
643.58	1147.66
643.92	1138.73
644.26	1130.19
644.61	1121.86
644.95	1113.15
645.29	1104.02
645.64	1094.99
645.98	1086.38
646.32	1078.54
646.66	1069.93
647.01	1061.59
647.35	1053.58
647.69	1045.42
648.04	1037.23
648.38	1028.53
648.72	1019.78
649.06	1011.46
649.41	1003.29
649.75	995.38
650.09	987.51
650.43	979.55
650.78	971.21
651.12	963.49
651.46	956.03
651.80	948.76
652.14	941.53
652.49	933.96
652.83	926.58
653.17	919.02
653.51	911.33
653.85	904.27
654.20	897.11
654.54	889.66
654.88	882.39
655.22	875.26
655.56	868.17
655.90	861.40
656.25	854.68
656.59	847.88
656.93	841.00
657.27	833.92
657.61	826.82
657.95	820.76
658.29	814.80
658.64	808.72
658.98	802.27
659.32	795.72
659.66	789.57
660.00	783.31
660.34	777.24
660.68	771.14
661.02	764.77
661.36	758.81
661.70	752.94
662.05	747.29
662.39	741.75
662.73	736.46
663.07	731.10
663.41	725.55
663.75	719.82
664.09	714.00
664.43	708.57
664.77	703.33
665.11	697.49
665.45	691.65
665.79	685.82
666.13	680.13
666.47	674.55
666.81	669.08
667.15	663.67
667.49	658.50
667.83	653.20
668.17	647.95
668.51	642.79
668.85	637.90
669.19	633.04
669.53	628.04
669.87	622.91
670.21	618.12
670.55	613.42
670.89	608.92
671.23	604.57
671.57	600.18
671.91	595.87
672.25	591.68
672.58	587.48
672.92	583.46
673.26	579.57
673.60	575.78
673.94	571.92
674.28	568.27
674.62	564.53
674.96	560.86
675.30	557.32
675.64	553.64
675.97	550.04
676.31	546.46
676.65	542.75
676.99	539.27
677.33	535.42
677.67	531.71
678.01	527.85
678.34	524.21
678.68	520.70
679.02	517.09
679.36	513.45
679.70	509.78
680.04	506.14
680.37	502.61
680.71	499.20
681.05	496.07
681.39	492.75
681.73	489.59
682.06	486.51
682.40	483.41
682.74	480.28
683.08	477.00
683.42	473.68
683.75	470.68
684.09	467.63
684.43	464.79
684.77	461.86
685.10	459.07
685.44	456.14
685.78	453.17
686.12	450.34
686.45	447.54
686.79	444.92
687.13	442.40
687.46	439.83
687.80	437.12
688.14	434.18
688.48	431.51
688.81	428.72
689.15	426.11
689.49	423.45
689.82	420.84
690.16	418.23
690.50	415.81
690.83	413.31
691.17	410.73
691.51	408.26
691.84	405.95
692.18	403.61
692.52	401.41
692.85	399.25
693.19	397.06
693.52	394.93
693.86	392.69
694.20	390.45
694.53	388.24
694.87	386.04
695.21	383.92
695.54	381.73
695.88	379.55
696.21	377.34
696.55	375.19
696.88	373.10
697.22	371.10
697.56	369.13
697.89	367.17
698.23	365.40
698.56	363.57
698.90	361.75
699.23	359.82
699.57	357.91
699.90	356.01
700.24	354.16
700.58	352.35
700.91	350.65
701.25	349.05
701.58	347.44
701.92	345.86
702.25	344.25
702.59	342.61
702.92	341.07
703.26	339.46
703.59	337.96
703.93	336.70
704.26	335.28
704.60	333.74
704.93	332.28
705.26	330.74
705.60	329.26
705.93	327.70
706.27	326.35
706.60	325.07
706.94	323.83
707.27	322.47
707.61	321.10
707.94	319.74
708.27	318.20
708.61	316.71
708.94	315.34
709.28	313.97
709.61	312.74
709.94	311.52
710.28	310.28
710.61	309.13
710.95	307.65
711.28	306.54
711.61	305.39
711.95	304.26
712.28	303.06
712.61	301.83
712.95	300.80
713.28	299.79
713.61	298.60
713.95	297.40
714.28	296.35
714.61	295.34
714.95	294.28
715.28	293.27
715.61	292.25
715.95	291.30
716.28	290.32
716.61	289.38
716.95	288.36
717.28	287.43
717.61	286.41
717.94	285.51
718.28	284.47
718.61	283.58
718.94	282.64
719.27	281.78
719.61	280.97
719.94	280.11
720.27	279.10
720.60	278.25
720.94	277.48
721.27	276.70
721.60	275.94
721.93	275.23
722.27	274.56
722.60	273.88
722.93	273.09
723.26	272.47
723.59	271.74
723.93	271.08
724.26	270.42
724.59	269.77
724.92	269.18
725.25	268.63
725.59	268.04
725.92	267.50
726.25	266.91
726.58	266.33
726.91	265.76
727.24	265.21
727.57	264.63
727.91	263.98
728.24	263.43
728.57	262.83
728.90	262.26
729.23	261.61
729.56	261.14
729.89	260.59
730.22	259.97
730.55	259.40
730.89	258.90
731.22	258.32
731.55	257.79
731.88	257.25
732.21	256.66
732.54	256.08
732.87	255.56
733.20	255.06
733.53	254.56
733.86	254.06
734.19	253.56
734.52	253.16
734.85	252.89
735.18	252.42
735.51	252.06
735.84	251.64
736.17	251.24
736.50	250.69
736.83	250.56
737.16	250.18
737.49	249.80
737.82	249.35
738.15	248.99
738.48	248.61
738.81	248.21
739.14	247.78
739.47	247.43
739.80	247.06
740.13	246.70
740.46	246.30
740.79	245.91
741.12	245.55
741.45	245.17
741.78	244.70
742.11	244.39
742.44	243.99
742.77	243.65
743.10	243.29
743.43	242.98
743.75	242.41
744.08	242.34
744.41	241.96
744.74	241.63
745.07	241.28
745.40	240.98
745.73	240.70
746.06	240.38
746.39	240.06
746.71	239.70
747.04	239.36
747.37	239.06
747.70	238.77
748.03	238.49
748.36	238.19
748.68	237.85
749.01	237.51
749.34	237.20
749.67	236.91
750.00	236.69
750.33	236.56
750.65	236.29
750.98	235.77
751.31	235.56
751.64	235.34
751.97	235.22
752.29	234.97
752.62	234.64
752.95	234.39
753.28	234.12
753.60	233.89
753.93	233.70
754.26	233.49
754.59	233.20
754.91	232.93
755.24	232.71
755.57	232.50
755.90	232.29
756.22	232.06
756.55	231.80
756.88	231.50
757.20	231.12
757.53	230.83
757.86	230.59
758.19	230.35
758.51	230.12
758.84	229.80
759.17	229.59
759.49	229.43
759.82	229.35
760.15	229.21
760.47	229.01
760.80	228.76
761.13	228.59
761.45	228.40
761.78	228.25
762.11	228.05
762.43	227.86
762.76	227.64
763.08	227.49
763.41	227.31
763.74	227.16
764.06	227.01
764.39	226.86
764.71	226.72
765.04	226.59
765.37	226.42
765.69	226.23
766.02	226.06
766.34	225.88
766.67	225.68
767.00	225.57
767.32	225.54
767.65	225.54
767.97	225.37
768.30	225.25
768.62	225.12
768.95	224.94
769.27	224.80
769.60	224.73
769.92	224.57
770.25	224.46
770.57	224.30
770.90	224.18
771.22	224.05
771.55	223.92
771.87	223.84
772.20	223.73
772.52	223.84
772.85	223.95
773.17	223.85
773.50	223.71
773.82	223.57
774.15	223.36
774.47	223.12
774.80	223.03
775.12	222.92
775.45	222.80
775.77	222.73
776.09	222.66
776.42	222.56
776.74	222.55
777.07	222.46
777.39	222.40
777.72	222.28
778.04	222.21
778.36	222.13
778.69	222.02
779.01	221.95
779.33	221.67
779.66	221.35
779.98	221.23
780.31	221.14
780.63	221.12
780.95	221.07
781.28	220.96
781.60	220.85
781.92	220.79
782.25	220.73
782.57	220.70
782.89	220.61
783.22	220.52
783.54	220.41
783.86	220.35
784.19	220.23
784.51	220.24
784.83	220.17
785.16	220.11
785.48	220.05
785.80	219.98
786.12	219.90
786.45	219.86
786.77	219.84
787.09	219.79
787.42	219.66
787.74	219.63
788.06	219.61
788.38	219.54
788.71	219.45
789.03	219.39
789.35	219.34
789.67	219.25
789.99	219.22
790.32	219.13
790.64	219.08
790.96	219.19
791.28	219.05
791.61	218.98
791.93	218.95
792.25	218.89
792.57	219.00
792.89	218.94
793.21	218.88
793.54	218.80
793.86	218.76
794.18	218.72
794.50	218.62
794.82	218.60
795.14	218.60
795.47	218.61
795.79	218.60
796.11	218.49
796.43	218.44
796.75	218.40
797.07	218.36
797.39	218.32
797.71	218.17
798.04	218.17
798.36	218.13
798.68	218.07
799.00	218.02
799.32	217.85
799.64	217.86
799.96	217.80
800.28	217.83
800.60	217.79
800.92	217.78
801.24	217.74
801.56	217.70
801.89	217.64
802.21	217.63
802.53	217.53
802.85	217.54
803.17	217.61
803.49	217.50
803.81	217.49
804.13	217.46
804.45	217.39
804.77	217.37
805.09	217.34
805.41	217.28
805.73	217.23
806.05	217.16
806.37	217.12
806.69	217.11
807.01	217.05
807.33	217.01
807.65	216.92
807.97	216.99
808.28	216.91
808.60	216.91
808.92	216.82
809.24	216.97
809.56	216.92
809.88	216.83
810.20	216.87
810.52	216.85
810.84	216.78
811.16	216.74
811.48	216.69
811.80	216.73
812.12	216.72
812.43	216.73
812.75	216.71
813.07	216.65
813.39	216.64
813.71	216.57
814.03	216.51
814.35	216.52
814.67	216.41
814.98	216.41
815.30	216.37
815.62	216.31
815.94	216.11
816.26	216.09
816.58	216.04
816.89	216.01
817.21	215.97
817.53	215.96
817.85	215.95
818.17	215.93
818.48	215.85
818.80	215.86
819.12	215.80
819.44	215.76
819.76	215.69
820.07	215.65
820.39	215.65
820.71	215.68
821.03	215.63
821.34	215.59
821.66	215.60
821.98	215.56
822.30	215.55
822.61	215.70
822.93	215.64
823.25	215.63
823.57	215.57
823.88	215.58
824.20	215.58
824.52	215.64
824.83	215.64
825.15	215.59
825.47	215.58
825.79	215.58
826.10	215.58
826.42	215.61
826.74	215.65
827.05	215.61
827.37	215.57
827.69	215.57
828.00	215.56
828.32	215.55
828.64	215.56
828.95	215.63
829.27	215.56
829.58	215.58
829.90	215.58
830.22	215.60
830.53	215.53
830.85	215.48
831.17	215.38
831.48	215.36
831.80	215.38
832.11	215.34
832.43	215.30
832.75	215.27
833.06	215.34
833.38	215.23
833.69	215.27
834.01	215.26
834.32	215.23
834.64	215.20
834.96	215.17
835.27	215.17
835.59	215.12
835.90	215.06
836.22	215.04
836.53	215.01
836.85	214.98
837.16	215.18
837.48	215.18
837.79	215.25
838.11	215.25
838.42	215.22
838.74	215.26
839.05	215.27
839.37	215.27
839.68	215.17
840.00	215.18
840.31	215.16
840.63	215.17
840.94	215.18
841.26	215.16
841.57	215.16
841.88	215.13
842.20	215.07
842.51	215.03
842.83	215.00
843.14	215.20
843.46	215.17
843.77	215.05
844.08	215.00
844.40	214.91
844.71	214.91
845.03	214.85
845.34	214.79
845.65	214.74
845.97	214.75
846.28	214.72
846.60	214.73
846.91	214.69
847.22	214.65
847.54	214.65
847.85	214.64
848.16	214.58
848.48	214.54
848.79	214.62
849.10	214.63
849.42	214.65
849.73	214.42
850.04	214.43
850.36	214.34
850.67	214.43
850.98	214.45
851.30	214.46
851.61	214.48
851.92	214.49
852.23	214.58
852.55	214.56
852.86	214.57
853.17	214.56
853.49	214.61
853.80	214.67
854.11	214.68
854.42	214.72
854.74	214.73
855.05	214.73
855.36	214.65
855.67	214.66
855.99	214.63
856.30	214.88
856.61	214.88
856.92	214.88
857.23	214.87
857.55	214.84
857.86	214.79
858.17	214.82
858.48	214.78
858.79	214.74
859.11	214.73
859.42	214.73
859.73	214.70
860.04	214.65
860.35	214.58
860.66	214.52
860.98	214.47
861.29	214.48
861.60	214.47
861.91	214.52
862.22	214.47
862.53	214.43
862.84	214.18
863.16	214.22
863.47	214.18
863.78	214.13
864.09	214.14
864.40	214.15
864.71	214.15
865.02	214.19
865.33	214.16
865.64	214.14
865.95	214.15
866.27	214.32
866.58	214.32
866.89	214.36
867.20	214.35
867.51	214.37
867.82	214.35
868.13	214.43
868.44	214.36
868.75	214.40
869.06	214.42
869.37	214.45
869.68	214.40
869.99	214.45
870.30	214.44
870.61	214.44
870.92	214.43
871.23	214.42
871.54	214.44
871.85	214.45
872.16	214.45
872.47	214.41
872.78	214.25
873.09	214.27
873.40	214.26
873.71	214.31
874.02	214.30
874.33	214.30
874.64	214.21
874.95	214.28
875.26	214.26
875.56	214.28
875.87	214.25
876.18	214.23
876.49	214.45
876.80	214.47
877.11	214.41
877.42	214.41
877.73	214.39
878.04	214.35
878.35	214.38
878.66	214.39
878.96	214.37
879.27	214.36
879.58	214.33
879.89	214.28
880.20	214.29
880.51	214.30
880.82	214.32
881.12	214.36
881.43	214.32
881.74	214.33
882.05	214.33
882.36	214.36
882.67	214.39
882.97	214.18
883.28	214.19
883.59	214.22
883.90	214.24
884.21	214.30
884.51	214.29
884.82	214.28
885.13	214.27
885.44	214.31
885.74	214.35
886.05	214.40
886.36	214.40
886.67	214.38
886.98	214.47
887.28	214.47
887.59	214.46
887.90	214.46
888.20	214.41
888.51	214.46
888.82	214.41
889.13	214.43
889.43	214.60
889.74	214.56
890.05	214.55
890.35	214.51
890.66	214.47
890.97	214.47
891.28	214.45
891.58	214.46
891.89	214.43
892.20	214.37
892.50	214.32
892.81	214.32
893.12	214.28
893.42	214.18
893.73	214.17
894.04	214.14
894.34	214.14
894.65	214.13
894.95	214.11
895.26	214.13
895.57	214.18
895.87	213.95
896.18	214.01
896.48	214.03
896.79	214.01
897.10	214.01
897.40	213.97
897.71	214.00
898.01	213.97
898.32	213.99
898.63	213.99
898.93	214.00
899.24	213.99
899.54	213.98
899.85	214.02
900.15	214.02
900.46	214.05
900.76	214.06
901.07	214.08
901.38	214.03
901.68	214.04
901.99	213.92
902.29	213.94
902.60	213.87
902.90	213.85
903.21	213.89
903.51	213.90
903.82	213.98
904.12	213.95
904.43	213.99
904.73	213.97
905.03	213.99
905.34	214.20
905.64	214.22
905.95	214.23
906.25	214.23
906.56	214.23
906.86	214.22
907.17	214.23
907.47	214.24
907.77	214.27
908.08	214.24
908.38	214.29
908.69	214.31
908.99	214.39
909.30	214.42
909.60	214.40
909.90	214.44
910.21	214.36
910.51	214.35
910.81	214.34
911.12	214.37
911.42	214.37
911.73	214.15
912.03	214.15
912.33	214.21
912.64	214.18
912.94	214.16
913.24	214.11
913.55	214.09
913.85	214.06
914.15	214.09
914.46	214.11
914.76	214.10
915.06	214.10
915.37	214.04
915.67	214.02
915.97	214.02
916.27	213.97
916.58	213.97
916.88	213.95
917.18	213.95
917.49	214.09
917.79	214.09
918.09	214.10
918.39	214.15
918.70	214.13
919.00	214.14
919.30	214.22
919.60	214.23
919.91	214.21
920.21	214.23
920.51	214.19
920.81	214.17
921.12	214.18
921.42	214.17
921.72	214.20
922.02	214.22
922.32	214.25
922.63	214.26
922.93	214.37
923.23	214.42
923.53	214.39
923.83	214.27
924.13	214.28
924.44	214.28
924.74	214.31
925.04	214.34
925.34	214.34
925.64	214.24
925.94	214.22
926.24	214.30
926.55	214.27
926.85	214.30
927.15	214.29
927.45	214.31
927.75	214.30
928.05	214.29
928.35	214.25
928.65	214.28
928.95	214.26
929.26	214.16
929.56	214.18
929.86	214.21
930.16	214.18
930.46	214.14
930.76	214.17
931.06	214.08
931.36	214.01
931.66	214.03
931.96	214.10
932.26	214.12
932.56	214.05
932.86	214.09
933.16	214.08
933.46	214.06
933.76	214.00
934.06	214.04
934.36	214.09
934.66	214.10
934.96	214.05
935.26	214.07
935.56	214.13
935.86	214.09
936.16	214.05
936.46	214.05
936.76	214.06
937.06	214.02
937.36	214.04
937.66	214.07
937.96	214.02
938.26	213.96
938.56	213.95
938.86	213.96
939.16	214.00
939.46	214.02
939.76	214.03
940.06	214.04
940.35	213.97
940.65	213.89
940.95	213.91
941.25	213.86
941.55	213.84
941.85	213.81
942.15	213.83
942.45	213.86
942.75	213.85
943.04	213.86
943.34	213.90
943.64	213.89
943.94	213.85
944.24	213.87
944.54	213.87
944.84	213.87
945.13	213.84
945.43	213.77
945.73	213.75
946.03	213.75
946.33	213.74
946.62	213.77
946.92	213.73
947.22	213.74
947.52	213.78
947.82	213.80
948.11	213.76
948.41	213.69
948.71	213.67
949.01	213.68
949.31	213.66
949.60	213.63
949.90	213.65
950.20	213.66
950.50	213.63
950.79	213.59
951.09	213.62
951.39	213.62
951.69	213.60
951.98	213.67
952.28	213.69
952.58	213.68
952.87	213.68
953.17	213.73
953.47	213.66
953.76	213.65
954.06	213.62
954.36	213.60
954.66	213.63
954.95	213.69
955.25	213.69
955.55	213.69
955.84	213.67
956.14	213.67
956.44	213.67
956.73	213.66
957.03	213.72
957.32	213.72
957.62	213.72
957.92	213.79
958.21	213.74
958.51	213.99
958.81	214.04
959.10	214.03
959.40	214.08
959.69	214.14
959.99	214.18
960.29	214.19
960.58	214.20
960.88	214.28
961.17	214.23
961.47	214.28
961.76	214.25
962.06	214.28
962.36	214.24
962.65	214.25
962.95	214.27
963.24	214.25
963.54	214.23
963.83	214.25
964.13	214.25
964.42	214.21
964.72	214.00
965.01	213.98
965.31	213.99
965.60	213.95
965.90	214.05
966.19	213.99
966.49	214.01
966.78	213.99
967.08	213.99
967.37	213.99
967.67	213.92
967.96	213.98
968.26	213.97
968.55	214.01
968.85	214.02
969.14	214.03
969.43	214.03
969.73	214.00
970.02	213.98
970.32	213.96
970.61	213.93
970.91	213.86
971.20	213.83
971.49	213.80
971.79	213.80
972.08	213.67
972.38	213.70
972.67	213.67
972.96	213.73
973.26	213.65
973.55	213.71
973.85	213.71
974.14	213.68
974.43	213.67
974.73	213.63
975.02	213.60
975.31	213.58
975.61	213.57
975.90	213.57
976.19	213.56
976.49	213.53
976.78	213.54
977.07	213.57
977.37	213.63
977.66	213.65
977.95	213.62
978.24	213.64
978.54	213.65
978.83	213.61
979.12	213.56
979.42	213.59
979.71	213.58
980.00	213.57
980.29	213.56
980.59	213.53
980.88	213.61
981.17	213.59
981.46	213.60
981.76	213.62
982.05	213.71
982.34	213.71
982.63	213.76
982.93	213.80
983.22	213.85
983.51	213.80
983.80	213.84
984.09	213.86
984.39	213.84
984.68	213.82
984.97	213.86
985.26	213.89
985.55	213.89
985.85	213.85
986.14	213.87
986.43	213.88
986.72	213.90
987.01	213.83
987.30	213.84
987.59	213.80
987.89	213.79
988.18	213.76
988.47	213.77
988.76	213.74
989.05	213.73
989.34	213.68
989.63	213.77
989.92	213.74
990.22	213.71
990.51	213.69
990.80	213.67
991.09	213.70
991.38	213.71
991.67	213.70
991.96	213.68
992.25	213.68
992.54	213.67
992.83	213.66
993.12	213.67
993.41	213.73
993.70	213.82
993.99	213.85
994.28	213.83
994.58	213.84
994.87	213.80
995.16	213.80
995.45	213.77
995.74	213.68
996.03	213.71
996.32	213.76
996.61	213.84
996.90	213.83
997.19	213.79
997.48	213.81
997.77	213.80
998.06	213.79
998.34	213.80
998.63	213.80
998.92	213.78
999.21	213.81
999.50	213.77
999.79	213.71
1000.08	213.71
1000.37	213.71
1000.66	213.70
1000.95	213.78
1001.24	213.77
1001.53	213.83
1001.82	213.81
1002.11	213.77
1002.40	213.79
1002.68	213.84
1002.97	214.00
1003.26	213.99
1003.55	213.95
1003.84	213.95
1004.13	214.06
1004.42	214.06
1004.71	214.06
1004.99	214.04
1005.28	214.08
1005.57	214.09
1005.86	214.06
1006.15	214.03
1006.44	214.01
1006.72	214.05
1007.01	214.00
1007.30	213.99
1007.59	213.99
1007.88	214.02
1008.17	214.00
1008.45	213.95
1008.74	213.85
1009.03	213.75
1009.32	213.78
1009.60	213.76
1009.89	213.78
1010.18	213.67
1010.47	213.63
1010.76	213.61
1011.04	213.62
1011.33	213.62
1011.62	213.64
1011.91	213.69
1012.19	213.70
1012.48	213.69
1012.77	213.64
1013.05	213.73
1013.34	213.73
1013.63	213.69
1013.92	213.70
1014.20	213.73
1014.49	213.73
1014.78	213.75
1015.06	213.68
1015.35	213.66
1015.64	213.72
1015.92	213.72
1016.21	213.73
1016.50	213.73
1016.78	213.77
1017.07	213.81
1017.36	213.75
1017.64	213.76
1017.93	213.76
1018.22	213.75
1018.50	213.75
1018.79	213.75
1019.08	213.66
1019.36	213.67
1019.65	213.67
1019.93	213.72
1020.22	213.72
1020.51	213.87
1020.79	213.84
1021.08	213.52
1021.36	213.31
1021.65	213.21
1021.94	213.89
1022.22	213.81
1022.51	213.62
1022.79	214.77
1023.08	213.61
1023.36	217.00
1023.65	213.35
>>>>>End Processed Spectral Data<<<<<
