SpectraSuite Data File
++++++++++++++++++++++++++++++++++++
Date: Tue Jan 29 16:04:01 EST 2013
User: group
Dark Spectrum Present: No
Reference Spectrum Present: No
Number of Sampled Component Spectra: 1
Spectrometers: USB2E7196
Integration Time (usec): 65000 (USB2E7196)
Spectra Averaged: 100 (USB2E7196)
Boxcar Smoothing: 10 (USB2E7196)
Correct for Electrical Dark: No (USB2E7196)
Strobe/Lamp Enabled: No (USB2E7196)
Correct for Detector Non-linearity: No (USB2E7196)
Correct for Stray Light: No (USB2E7196)
Number of Pixels in Processed Spectrum: 2048
>>>>>Begin Processed Spectral Data<<<<<
339.09	0.00
339.48	202.91
339.86	203.82
340.24	206.27
340.63	206.80
341.01	210.66
341.39	209.16
341.78	211.26
342.16	212.87
342.54	212.73
342.93	201.84
343.31	212.05
343.69	212.60
344.07	213.09
344.46	213.51
344.84	213.93
345.22	214.14
345.60	214.44
345.99	214.65
346.37	214.77
346.75	214.90
347.13	214.99
347.52	215.06
347.90	215.19
348.28	215.22
348.66	215.27
349.05	215.26
349.43	215.35
349.81	215.41
350.19	215.47
350.57	215.55
350.96	215.64
351.34	215.75
351.72	215.85
352.10	215.95
352.48	216.01
352.87	216.03
353.25	216.10
353.63	216.19
354.01	216.24
354.39	216.33
354.77	216.41
355.15	216.56
355.54	216.63
355.92	216.65
356.30	216.74
356.68	216.99
357.06	217.06
357.44	217.06
357.82	217.13
358.20	217.22
358.58	217.29
358.97	217.37
359.35	217.49
359.73	217.59
360.11	217.64
360.49	217.70
360.87	217.78
361.25	217.83
361.63	217.93
362.01	217.99
362.39	218.03
362.77	218.08
363.15	218.06
363.53	218.09
363.91	218.15
364.29	218.16
364.67	217.97
365.05	218.00
365.43	218.09
365.81	218.12
366.19	218.20
366.57	218.28
366.95	218.28
367.33	218.21
367.71	218.18
368.09	218.21
368.47	218.24
368.85	218.25
369.23	218.30
369.61	218.22
369.99	218.27
370.37	218.27
370.75	218.33
371.13	218.28
371.51	218.23
371.89	218.21
372.27	218.19
372.65	218.18
373.03	218.14
373.41	218.08
373.78	218.01
374.16	217.87
374.54	217.79
374.92	217.72
375.30	217.66
375.68	217.60
376.06	217.58
376.44	217.49
376.82	217.45
377.19	217.38
377.57	217.34
377.95	217.22
378.33	217.14
378.71	216.98
379.09	216.97
379.47	216.96
379.84	216.89
380.22	216.87
380.60	216.77
380.98	216.70
381.36	216.63
381.73	216.57
382.11	216.55
382.49	216.49
382.87	216.47
383.25	216.43
383.62	216.61
384.00	216.52
384.38	216.49
384.76	216.52
385.13	216.52
385.51	216.46
385.89	216.40
386.27	216.35
386.64	216.36
387.02	216.35
387.40	216.30
387.78	216.28
388.15	216.22
388.53	216.21
388.91	216.23
389.29	216.20
389.66	216.21
390.04	216.18
390.42	216.21
390.79	216.18
391.17	216.17
391.55	215.94
391.92	215.95
392.30	215.94
392.68	215.86
393.05	215.85
393.43	215.86
393.81	215.89
394.18	215.86
394.56	215.85
394.94	215.88
395.31	215.85
395.69	215.91
396.06	215.98
396.44	216.01
396.82	216.02
397.19	216.17
397.57	216.20
397.95	216.23
398.32	216.20
398.70	216.25
399.07	216.35
399.45	216.38
399.82	216.43
400.20	216.47
400.58	216.52
400.95	216.51
401.33	216.65
401.70	216.85
402.08	216.97
402.45	217.07
402.83	217.17
403.20	217.30
403.58	217.38
403.95	217.50
404.33	217.68
404.71	217.81
405.08	218.07
405.46	218.22
405.83	218.42
406.21	218.63
406.58	218.86
406.96	219.05
407.33	219.38
407.70	219.68
408.08	220.15
408.45	220.48
408.83	220.89
409.20	221.21
409.58	221.45
409.95	221.89
410.33	222.32
410.70	222.76
411.08	223.30
411.45	223.85
411.82	224.40
412.20	225.04
412.57	225.82
412.95	226.32
413.32	227.13
413.69	227.94
414.07	228.78
414.44	229.71
414.82	230.72
415.19	231.81
415.56	232.94
415.94	234.04
416.31	235.42
416.68	236.71
417.06	238.26
417.43	239.75
417.81	241.43
418.18	243.19
418.55	245.05
418.93	247.00
419.30	249.01
419.67	251.15
420.04	253.35
420.42	255.65
420.79	258.37
421.16	261.00
421.54	263.79
421.91	266.69
422.28	269.71
422.66	272.84
423.03	275.99
423.40	279.20
423.77	282.64
424.15	286.14
424.52	289.88
424.89	293.92
425.26	297.93
425.64	301.71
426.01	305.82
426.38	310.13
426.75	314.51
427.13	319.11
427.50	323.92
427.87	328.93
428.24	333.95
428.61	338.79
428.99	344.12
429.36	349.91
429.73	355.57
430.10	361.22
430.47	367.08
430.85	373.17
431.22	379.64
431.59	386.53
431.96	393.13
432.33	400.37
432.70	407.34
433.08	415.51
433.45	423.28
433.82	431.02
434.19	439.58
434.56	448.01
434.93	456.08
435.30	464.07
435.68	472.85
436.05	481.53
436.42	490.13
436.79	498.04
437.16	506.52
437.53	515.48
437.90	524.33
438.27	533.00
438.64	541.91
439.01	550.13
439.38	557.45
439.75	564.52
440.13	572.59
440.50	580.26
440.87	586.40
441.24	592.79
441.61	599.79
441.98	605.00
442.35	611.00
442.72	616.99
443.09	622.79
443.46	626.39
443.83	628.80
444.20	630.87
444.57	633.90
444.94	635.23
445.31	636.64
445.68	638.00
446.05	638.57
446.42	637.78
446.79	636.87
447.16	635.79
447.53	634.97
447.90	631.76
448.27	628.49
448.64	624.02
449.01	620.74
449.37	615.08
449.74	609.59
450.11	602.96
450.48	595.83
450.85	588.66
451.22	582.42
451.59	576.52
451.96	570.89
452.33	563.29
452.70	556.49
453.07	548.35
453.43	540.01
453.80	532.00
454.17	524.29
454.54	517.05
454.91	509.15
455.28	501.58
455.65	494.53
456.02	487.42
456.38	481.37
456.75	473.92
457.12	467.66
457.49	461.39
457.86	455.49
458.23	450.41
458.59	444.78
458.96	439.02
459.33	433.93
459.70	428.81
460.07	424.75
460.43	420.04
460.80	415.57
461.17	411.73
461.54	407.70
461.91	403.83
462.27	399.89
462.64	396.57
463.01	392.90
463.38	389.27
463.74	385.71
464.11	382.58
464.48	379.78
464.85	376.77
465.21	374.47
465.58	371.91
465.95	368.88
466.32	366.29
466.68	363.78
467.05	361.29
467.42	358.86
467.78	356.28
468.15	353.84
468.52	352.05
468.88	349.67
469.25	347.56
469.62	345.82
469.98	343.96
470.35	342.29
470.72	340.65
471.08	338.96
471.45	337.53
471.82	336.10
472.18	334.55
472.55	333.42
472.92	332.10
473.28	330.94
473.65	329.87
474.02	328.85
474.38	328.04
474.75	327.35
475.11	326.55
475.48	325.98
475.85	325.60
476.21	325.11
476.58	324.78
476.94	324.57
477.31	324.33
477.67	324.06
478.04	323.91
478.41	323.89
478.77	324.06
479.14	323.98
479.50	324.17
479.87	324.48
480.23	324.78
480.60	325.04
480.96	325.36
481.33	325.93
481.69	326.53
482.06	327.05
482.42	327.53
482.79	328.18
483.15	329.02
483.52	329.94
483.88	330.86
484.25	331.78
484.61	332.82
484.98	333.90
485.34	335.21
485.71	336.63
486.07	338.06
486.44	339.36
486.80	341.04
487.17	342.66
487.53	344.46
487.90	346.34
488.26	348.35
488.62	350.50
488.99	352.50
489.35	354.63
489.72	357.02
490.08	359.52
490.44	362.04
490.81	364.72
491.17	367.42
491.54	370.39
491.90	373.43
492.26	376.69
492.63	380.08
492.99	383.62
493.36	387.28
493.72	391.20
494.08	395.24
494.45	399.48
494.81	403.82
495.17	408.22
495.54	412.92
495.90	417.76
496.26	422.71
496.63	427.90
496.99	433.32
497.35	438.88
497.72	444.70
498.08	450.64
498.44	456.68
498.80	463.06
499.17	469.60
499.53	476.26
499.89	483.08
500.26	490.00
500.62	497.03
500.98	504.46
501.34	511.92
501.71	519.61
502.07	527.32
502.43	535.36
502.79	543.46
503.16	551.84
503.52	560.36
503.88	569.03
504.24	577.97
504.60	587.00
504.97	596.16
505.33	605.36
505.69	615.21
506.05	625.11
506.41	634.98
506.78	644.95
507.14	655.16
507.50	665.60
507.86	676.29
508.22	687.00
508.59	697.58
508.95	708.57
509.31	719.82
509.67	731.19
510.03	742.53
510.39	754.32
510.75	766.16
511.12	778.03
511.48	790.03
511.84	802.22
512.20	814.45
512.56	827.04
512.92	839.75
513.28	852.20
513.64	864.78
514.00	877.44
514.37	890.34
514.73	903.34
515.09	916.16
515.45	928.90
515.81	941.76
516.17	954.97
516.53	968.00
516.89	980.99
517.25	994.09
517.61	1007.49
517.97	1020.65
518.33	1033.57
518.69	1046.99
519.05	1060.56
519.41	1074.10
519.77	1087.77
520.13	1100.90
520.49	1113.90
520.85	1127.14
521.21	1140.35
521.57	1153.91
521.93	1166.80
522.29	1180.36
522.65	1193.88
523.01	1207.27
523.37	1220.27
523.73	1233.32
524.09	1246.29
524.45	1259.44
524.81	1272.67
525.17	1285.79
525.53	1298.73
525.89	1311.74
526.25	1324.55
526.61	1337.15
526.97	1349.85
527.33	1362.47
527.68	1375.69
528.04	1388.84
528.40	1401.70
528.76	1414.70
529.12	1427.19
529.48	1440.17
529.84	1452.22
530.20	1464.64
530.56	1477.01
530.91	1490.04
531.27	1502.67
531.63	1515.19
531.99	1527.66
532.35	1539.66
532.71	1551.66
533.07	1564.13
533.42	1576.09
533.78	1587.92
534.14	1599.75
534.50	1610.75
534.86	1622.15
535.21	1632.80
535.57	1643.90
535.93	1655.02
536.29	1665.86
536.65	1677.02
537.00	1687.69
537.36	1698.70
537.72	1709.46
538.08	1720.43
538.44	1731.05
538.79	1741.81
539.15	1752.31
539.51	1762.61
539.87	1773.59
540.22	1784.11
540.58	1794.78
540.94	1805.30
541.29	1815.10
541.65	1824.49
542.01	1834.83
542.37	1844.55
542.72	1854.35
543.08	1863.92
543.44	1874.04
543.79	1883.01
544.15	1892.24
544.51	1902.04
544.87	1911.67
545.22	1920.41
545.58	1929.18
545.94	1937.82
546.29	1946.18
546.65	1954.35
547.01	1962.47
547.36	1969.86
547.72	1977.27
548.07	1984.76
548.43	1992.26
548.79	2000.02
549.14	2007.86
549.50	2015.91
549.86	2023.52
550.21	2030.73
550.57	2038.09
550.92	2044.51
551.28	2051.91
551.64	2059.10
551.99	2066.29
552.35	2073.27
552.70	2080.05
553.06	2086.36
553.41	2092.31
553.77	2098.58
554.13	2104.76
554.48	2111.64
554.84	2118.39
555.19	2124.81
555.55	2131.08
555.90	2137.29
556.26	2144.02
556.61	2149.95
556.97	2154.68
557.32	2160.35
557.68	2166.58
558.03	2172.35
558.39	2177.62
558.74	2183.42
559.10	2188.93
559.45	2194.44
559.81	2199.80
560.16	2205.31
560.52	2211.22
560.87	2217.72
561.23	2223.63
561.58	2230.25
561.94	2235.46
562.29	2240.40
562.64	2246.58
563.00	2252.20
563.35	2257.95
563.71	2263.71
564.06	2269.49
564.42	2275.58
564.77	2280.83
565.12	2286.04
565.48	2291.35
565.83	2296.97
566.19	2302.66
566.54	2307.99
566.89	2312.65
567.25	2317.37
567.60	2323.13
567.96	2328.34
568.31	2332.93
568.66	2337.10
569.02	2341.01
569.37	2344.80
569.72	2349.15
570.08	2352.76
570.43	2355.79
570.78	2358.75
571.14	2361.48
571.49	2364.60
571.84	2368.11
572.20	2370.86
572.55	2374.14
572.90	2376.36
573.26	2379.33
573.61	2381.75
573.96	2383.99
574.31	2386.16
574.67	2388.23
575.02	2389.21
575.37	2390.75
575.72	2391.78
576.08	2393.52
576.43	2393.93
576.78	2394.80
577.13	2396.81
577.49	2397.93
577.84	2399.50
578.19	2401.12
578.54	2401.99
578.90	2403.23
579.25	2403.42
579.60	2403.83
579.95	2403.33
580.30	2403.80
580.66	2403.29
581.01	2401.84
581.36	2399.86
581.71	2398.71
582.06	2397.85
582.42	2397.18
582.77	2395.32
583.12	2393.90
583.47	2392.81
583.82	2392.40
584.17	2391.34
584.53	2389.33
584.88	2387.69
585.23	2385.96
585.58	2384.03
585.93	2381.91
586.28	2379.69
586.63	2377.50
586.98	2375.46
587.34	2373.67
587.69	2371.54
588.04	2369.75
588.39	2368.50
588.74	2366.13
589.09	2363.69
589.44	2360.73
589.79	2358.59
590.14	2356.84
590.49	2354.27
590.84	2350.71
591.19	2347.97
591.54	2344.74
591.89	2340.89
592.25	2337.77
592.60	2333.65
592.95	2329.55
593.30	2325.68
593.65	2321.49
594.00	2317.20
594.35	2314.30
594.70	2309.77
595.05	2305.38
595.40	2300.07
595.75	2294.65
596.10	2291.27
596.45	2286.52
596.80	2282.04
597.15	2276.71
597.50	2270.95
597.85	2265.88
598.19	2260.71
598.54	2255.04
598.89	2250.11
599.24	2245.68
599.59	2239.79
599.94	2234.33
600.29	2228.65
600.64	2222.87
600.99	2216.39
601.34	2211.04
601.69	2204.15
602.04	2197.98
602.39	2191.40
602.74	2185.54
603.08	2179.94
603.43	2173.46
603.78	2166.71
604.13	2159.66
604.48	2152.65
604.83	2146.71
605.18	2140.49
605.53	2133.69
605.87	2126.62
606.22	2119.85
606.57	2111.91
606.92	2103.97
607.27	2097.02
607.62	2090.50
607.96	2083.49
608.31	2076.86
608.66	2069.26
609.01	2061.73
609.36	2054.56
609.70	2046.88
610.05	2039.12
610.40	2031.07
610.75	2022.79
611.10	2015.28
611.44	2006.74
611.79	1998.05
612.14	1987.94
612.49	1977.72
612.83	1968.51
613.18	1959.45
613.53	1950.10
613.88	1940.70
614.22	1932.22
614.57	1922.18
614.92	1911.57
615.27	1901.44
615.61	1891.61
615.96	1881.99
616.31	1872.44
616.65	1863.11
617.00	1853.32
617.35	1843.70
617.70	1833.82
618.04	1823.76
618.39	1813.27
618.74	1803.58
619.08	1793.94
619.43	1785.39
619.78	1777.13
620.12	1768.39
620.47	1758.53
620.82	1748.29
621.16	1738.52
621.51	1728.42
621.85	1718.60
622.20	1707.99
622.55	1697.40
622.89	1687.46
623.24	1677.55
623.59	1667.80
623.93	1657.64
624.28	1647.98
624.62	1637.77
624.97	1627.44
625.32	1617.78
625.66	1609.09
626.01	1600.13
626.35	1590.76
626.70	1580.62
627.04	1570.26
627.39	1560.15
627.73	1550.95
628.08	1541.89
628.43	1532.30
628.77	1523.21
629.12	1514.41
629.46	1506.69
629.81	1498.23
630.15	1488.49
630.50	1478.68
630.84	1468.21
631.19	1458.28
631.53	1448.78
631.88	1438.60
632.22	1428.64
632.57	1419.15
632.91	1408.94
633.26	1399.10
633.60	1389.50
633.95	1380.09
634.29	1370.82
634.64	1361.41
634.98	1351.47
635.32	1342.13
635.67	1333.50
636.01	1324.24
636.36	1314.40
636.70	1304.83
637.05	1295.51
637.39	1286.67
637.73	1278.07
638.08	1270.57
638.42	1262.26
638.77	1253.50
639.11	1245.28
639.45	1237.47
639.80	1228.81
640.14	1220.06
640.49	1211.16
640.83	1202.35
641.17	1194.31
641.52	1185.98
641.86	1177.45
642.20	1169.68
642.55	1161.11
642.89	1152.22
643.23	1143.41
643.58	1135.28
643.92	1126.27
644.26	1117.64
644.61	1109.16
644.95	1100.43
645.29	1091.01
645.64	1081.92
645.98	1073.50
646.32	1065.54
646.66	1057.00
647.01	1048.67
647.35	1040.57
647.69	1032.19
648.04	1023.88
648.38	1014.88
648.72	1006.05
649.06	997.52
649.41	989.25
649.75	981.22
650.09	973.32
650.43	965.32
650.78	957.14
651.12	949.45
651.46	942.10
651.80	934.85
652.14	927.48
652.49	920.00
652.83	912.68
653.17	904.94
653.51	897.26
653.85	890.03
654.20	882.75
654.54	875.25
654.88	868.08
655.22	860.91
655.56	854.01
655.90	847.37
656.25	840.75
656.59	833.80
656.93	826.84
657.27	819.75
657.61	812.92
657.95	806.82
658.29	801.01
658.64	794.82
658.98	788.40
659.32	781.80
659.66	775.65
660.00	769.32
660.34	763.35
660.68	757.33
661.02	751.02
661.36	745.18
661.70	739.44
662.05	733.84
662.39	728.42
662.73	723.05
663.07	717.65
663.41	712.14
663.75	706.61
664.09	701.03
664.43	695.72
664.77	690.38
665.11	684.57
665.45	678.64
665.79	672.91
666.13	667.28
666.47	661.93
666.81	656.56
667.15	651.35
667.49	646.15
667.83	640.92
668.17	635.76
668.51	630.68
668.85	625.86
669.19	620.98
669.53	616.02
669.87	611.02
670.21	606.39
670.55	601.61
670.89	597.21
671.23	593.12
671.57	588.80
671.91	584.50
672.25	580.50
672.58	576.42
672.92	572.42
673.26	568.56
673.60	564.75
673.94	560.92
674.28	557.30
674.62	553.61
674.96	549.94
675.30	546.49
675.64	542.93
675.97	539.35
676.31	535.80
676.65	532.24
676.99	528.81
677.33	524.92
677.67	521.43
678.01	517.60
678.34	513.90
678.68	510.41
679.02	506.78
679.36	503.08
679.70	499.52
680.04	496.02
680.37	492.62
680.71	489.37
681.05	486.23
681.39	483.01
681.73	479.89
682.06	477.00
682.40	473.89
682.74	470.72
683.08	467.60
683.42	464.48
683.75	461.52
684.09	458.58
684.43	455.85
684.77	452.90
685.10	450.14
685.44	447.26
685.78	444.35
686.12	441.72
686.45	439.07
686.79	436.44
687.13	433.93
687.46	431.33
687.80	428.65
688.14	425.83
688.48	423.26
688.81	420.64
689.15	418.05
689.49	415.52
689.82	413.06
690.16	410.50
690.50	408.09
690.83	405.62
691.17	403.15
691.51	400.78
691.84	398.64
692.18	396.42
692.52	394.26
692.85	392.18
693.19	390.11
693.52	387.95
693.86	385.76
694.20	383.61
694.53	381.52
694.87	379.35
695.21	377.36
695.54	375.24
695.88	373.15
696.21	370.94
696.55	368.91
696.88	366.87
697.22	364.97
697.56	363.15
697.89	361.29
698.23	359.58
698.56	357.86
698.90	356.13
699.23	354.26
699.57	352.45
699.90	350.64
700.24	348.86
700.58	347.19
700.91	345.62
701.25	344.09
701.58	342.53
701.92	341.04
702.25	339.51
702.59	337.93
702.92	336.45
703.26	334.97
703.59	333.57
703.93	332.40
704.26	330.99
704.60	329.52
704.93	328.15
705.26	326.68
705.60	325.18
705.93	323.69
706.27	322.43
706.60	321.18
706.94	319.98
707.27	318.59
707.61	317.27
707.94	315.98
708.27	314.55
708.61	313.16
708.94	311.85
709.28	310.60
709.61	309.42
709.94	308.24
710.28	307.08
710.61	305.87
710.95	304.43
711.28	303.36
711.61	302.17
711.95	301.08
712.28	299.91
712.61	298.78
712.95	297.74
713.28	296.75
713.61	295.60
713.95	294.50
714.28	293.55
714.61	292.54
714.95	291.49
715.28	290.51
715.61	289.54
715.95	288.61
716.28	287.64
716.61	286.69
716.95	285.74
717.28	284.83
717.61	283.91
717.94	283.06
718.28	282.08
718.61	281.23
718.94	280.35
719.27	279.50
719.61	278.66
719.94	277.84
720.27	276.86
720.60	276.06
720.94	275.31
721.27	274.55
721.60	273.90
721.93	273.20
722.27	272.61
722.60	271.97
722.93	271.26
723.26	270.64
723.59	269.99
723.93	269.37
724.26	268.70
724.59	268.08
724.92	267.47
725.25	266.98
725.59	266.44
725.92	265.90
726.25	265.33
726.58	264.81
726.91	264.22
727.24	263.75
727.57	263.21
727.91	262.61
728.24	262.05
728.57	261.46
728.90	260.92
729.23	260.26
729.56	259.85
729.89	259.32
730.22	258.75
730.55	258.21
730.89	257.69
731.22	257.18
731.55	256.65
731.88	256.20
732.21	255.65
732.54	255.11
732.87	254.59
733.20	254.18
733.53	253.76
733.86	253.32
734.19	252.81
734.52	252.40
734.85	252.12
735.18	251.71
735.51	251.33
735.84	250.96
736.17	250.59
736.50	250.02
736.83	249.85
737.16	249.49
737.49	249.11
737.82	248.74
738.15	248.40
738.48	248.05
738.81	247.63
739.14	247.20
739.47	246.84
739.80	246.51
740.13	246.14
740.46	245.76
740.79	245.37
741.12	245.05
741.45	244.68
741.78	244.25
742.11	244.00
742.44	243.66
742.77	243.35
743.10	243.01
743.43	242.68
743.75	242.14
744.08	242.03
744.41	241.72
744.74	241.38
745.07	241.00
745.40	240.68
745.73	240.47
746.06	240.19
746.39	239.91
746.71	239.54
747.04	239.16
747.37	238.83
747.70	238.59
748.03	238.28
748.36	238.06
748.68	237.76
749.01	237.37
749.34	237.08
749.67	236.79
750.00	236.57
750.33	236.45
750.65	236.20
750.98	235.70
751.31	235.46
751.64	235.21
751.97	235.12
752.29	234.88
752.62	234.53
752.95	234.28
753.28	234.03
753.60	233.82
753.93	233.72
754.26	233.47
754.59	233.18
754.91	232.94
755.24	232.68
755.57	232.46
755.90	232.24
756.22	231.99
756.55	231.76
756.88	231.49
757.20	231.16
757.53	230.92
757.86	230.77
758.19	230.58
758.51	230.37
758.84	230.07
759.17	229.86
759.49	229.70
759.82	229.62
760.15	229.47
760.47	229.26
760.80	228.99
761.13	228.87
761.45	228.68
761.78	228.52
762.11	228.35
762.43	228.12
762.76	227.95
763.08	227.80
763.41	227.64
763.74	227.52
764.06	227.35
764.39	227.18
764.71	226.99
765.04	226.83
765.37	226.68
765.69	226.57
766.02	226.43
766.34	226.27
766.67	226.04
767.00	225.93
767.32	225.94
767.65	225.91
767.97	225.77
768.30	225.68
768.62	225.59
768.95	225.43
769.27	225.35
769.60	225.26
769.92	225.10
770.25	224.94
770.57	224.79
770.90	224.67
771.22	224.54
771.55	224.43
771.87	224.33
772.20	224.22
772.52	224.26
772.85	224.40
773.17	224.32
773.50	224.18
773.82	224.04
774.15	223.84
774.47	223.63
774.80	223.52
775.12	223.44
775.45	223.34
775.77	223.30
776.09	223.20
776.42	223.12
776.74	223.12
777.07	223.03
777.39	222.94
777.72	222.83
778.04	222.82
778.36	222.73
778.69	222.63
779.01	222.54
779.33	222.29
779.66	221.94
779.98	221.84
780.31	221.82
780.63	221.82
780.95	221.76
781.28	221.68
781.60	221.62
781.92	221.57
782.25	221.49
782.57	221.38
782.89	221.35
783.22	221.25
783.54	221.14
783.86	221.10
784.19	221.05
784.51	221.07
784.83	220.96
785.16	220.88
785.48	220.86
785.80	220.83
786.12	220.81
786.45	220.76
786.77	220.72
787.09	220.66
787.42	220.54
787.74	220.48
788.06	220.44
788.38	220.36
788.71	220.24
789.03	220.20
789.35	220.20
789.67	220.10
789.99	220.05
790.32	220.00
790.64	219.98
790.96	220.10
791.28	219.96
791.61	219.92
791.93	219.90
792.25	219.81
792.57	219.89
792.89	219.82
793.21	219.79
793.54	219.73
793.86	219.63
794.18	219.57
794.50	219.50
794.82	219.48
795.14	219.46
795.47	219.48
795.79	219.43
796.11	219.34
796.43	219.26
796.75	219.27
797.07	219.24
797.39	219.19
797.71	218.99
798.04	218.98
798.36	218.96
798.68	218.90
799.00	218.88
799.32	218.74
799.64	218.74
799.96	218.72
800.28	218.72
800.60	218.72
800.92	218.73
801.24	218.74
801.56	218.69
801.89	218.60
802.21	218.57
802.53	218.49
802.85	218.48
803.17	218.56
803.49	218.45
803.81	218.39
804.13	218.34
804.45	218.29
804.77	218.29
805.09	218.26
805.41	218.23
805.73	218.19
806.05	218.11
806.37	218.05
806.69	218.00
807.01	217.92
807.33	217.89
807.65	217.80
807.97	217.85
808.28	217.84
808.60	217.85
808.92	217.84
809.24	217.93
809.56	217.91
809.88	217.83
810.20	217.82
810.52	217.86
810.84	217.83
811.16	217.79
811.48	217.75
811.80	217.76
812.12	217.72
812.43	217.75
812.75	217.74
813.07	217.70
813.39	217.72
813.71	217.69
814.03	217.66
814.35	217.63
814.67	217.49
814.98	217.48
815.30	217.41
815.62	217.30
815.94	217.14
816.26	217.13
816.58	217.09
816.89	217.10
817.21	217.03
817.53	217.01
817.85	217.00
818.17	216.96
818.48	216.91
818.80	216.93
819.12	216.83
819.44	216.78
819.76	216.71
820.07	216.66
820.39	216.65
820.71	216.66
821.03	216.65
821.34	216.66
821.66	216.65
821.98	216.69
822.30	216.68
822.61	216.83
822.93	216.81
823.25	216.79
823.57	216.72
823.88	216.77
824.20	216.77
824.52	216.75
824.83	216.74
825.15	216.68
825.47	216.65
825.79	216.71
826.10	216.70
826.42	216.71
826.74	216.70
827.05	216.69
827.37	216.70
827.69	216.66
828.00	216.64
828.32	216.61
828.64	216.55
828.95	216.67
829.27	216.54
829.58	216.50
829.90	216.54
830.22	216.54
830.53	216.46
830.85	216.41
831.17	216.40
831.48	216.40
831.80	216.42
832.11	216.40
832.43	216.35
832.75	216.31
833.06	216.45
833.38	216.38
833.69	216.36
834.01	216.36
834.32	216.37
834.64	216.34
834.96	216.34
835.27	216.31
835.59	216.23
835.90	216.21
836.22	216.19
836.53	216.11
836.85	216.08
837.16	216.27
837.48	216.27
837.79	216.33
838.11	216.31
838.42	216.27
838.74	216.30
839.05	216.25
839.37	216.27
839.68	216.11
840.00	216.13
840.31	216.16
840.63	216.12
840.94	216.09
841.26	216.08
841.57	216.09
841.88	216.14
842.20	216.10
842.51	216.08
842.83	216.08
843.14	216.25
843.46	216.27
843.77	216.17
844.08	216.15
844.40	216.06
844.71	216.03
845.03	216.02
845.34	215.97
845.65	215.98
845.97	216.00
846.28	216.02
846.60	215.99
846.91	215.93
847.22	215.91
847.54	215.97
847.85	215.98
848.16	215.94
848.48	215.91
848.79	216.00
849.10	216.02
849.42	216.03
849.73	215.87
850.04	215.85
850.36	215.78
850.67	215.82
850.98	215.82
851.30	215.86
851.61	215.85
851.92	215.85
852.23	215.92
852.55	215.89
852.86	215.88
853.17	215.93
853.49	215.97
853.80	215.98
854.11	215.97
854.42	215.99
854.74	215.98
855.05	215.95
855.36	215.83
855.67	215.84
855.99	215.83
856.30	216.08
856.61	216.07
856.92	216.03
857.23	216.04
857.55	216.02
857.86	215.96
858.17	215.98
858.48	215.93
858.79	215.88
859.11	215.91
859.42	215.89
859.73	215.85
860.04	215.83
860.35	215.80
860.66	215.73
860.98	215.71
861.29	215.71
861.60	215.73
861.91	215.79
862.22	215.75
862.53	215.70
862.84	215.45
863.16	215.53
863.47	215.53
863.78	215.46
864.09	215.48
864.40	215.53
864.71	215.51
865.02	215.55
865.33	215.55
865.64	215.48
865.95	215.51
866.27	215.66
866.58	215.64
866.89	215.67
867.20	215.67
867.51	215.63
867.82	215.60
868.13	215.63
868.44	215.56
868.75	215.59
869.06	215.59
869.37	215.63
869.68	215.56
869.99	215.57
870.30	215.58
870.61	215.59
870.92	215.57
871.23	215.56
871.54	215.60
871.85	215.63
872.16	215.67
872.47	215.64
872.78	215.49
873.09	215.50
873.40	215.45
873.71	215.49
874.02	215.51
874.33	215.50
874.64	215.47
874.95	215.49
875.26	215.45
875.56	215.45
875.87	215.41
876.18	215.41
876.49	215.62
876.80	215.61
877.11	215.57
877.42	215.55
877.73	215.56
878.04	215.49
878.35	215.46
878.66	215.45
878.96	215.43
879.27	215.42
879.58	215.41
879.89	215.40
880.20	215.40
880.51	215.40
880.82	215.41
881.12	215.47
881.43	215.42
881.74	215.41
882.05	215.40
882.36	215.41
882.67	215.39
882.97	215.15
883.28	215.11
883.59	215.09
883.90	215.11
884.21	215.13
884.51	215.15
884.82	215.10
885.13	215.10
885.44	215.09
885.74	215.07
886.05	215.08
886.36	215.08
886.67	215.06
886.98	215.15
887.28	215.16
887.59	215.12
887.90	215.13
888.20	215.13
888.51	215.16
888.82	215.12
889.13	215.17
889.43	215.33
889.74	215.30
890.05	215.33
890.35	215.31
890.66	215.27
890.97	215.21
891.28	215.22
891.58	215.24
891.89	215.24
892.20	215.22
892.50	215.19
892.81	215.18
893.12	215.15
893.42	215.03
893.73	215.02
894.04	215.00
894.34	215.01
894.65	215.02
894.95	214.99
895.26	215.02
895.57	215.08
895.87	214.90
896.18	214.97
896.48	214.98
896.79	214.98
897.10	215.03
897.40	215.08
897.71	215.07
898.01	215.05
898.32	215.08
898.63	215.10
898.93	215.13
899.24	215.13
899.54	215.14
899.85	215.11
900.15	215.12
900.46	215.13
900.76	215.17
901.07	215.17
901.38	215.18
901.68	215.20
901.99	215.10
902.29	215.13
902.60	215.13
902.90	215.09
903.21	215.09
903.51	215.09
903.82	215.15
904.12	215.15
904.43	215.18
904.73	215.18
905.03	215.20
905.34	215.41
905.64	215.39
905.95	215.40
906.25	215.42
906.56	215.41
906.86	215.41
907.17	215.39
907.47	215.41
907.77	215.38
908.08	215.31
908.38	215.35
908.69	215.35
908.99	215.36
909.30	215.40
909.60	215.43
909.90	215.39
910.21	215.33
910.51	215.34
910.81	215.34
911.12	215.36
911.42	215.34
911.73	215.11
912.03	215.15
912.33	215.20
912.64	215.22
912.94	215.23
913.24	215.19
913.55	215.15
913.85	215.14
914.15	215.16
914.46	215.23
914.76	215.19
915.06	215.17
915.37	215.16
915.67	215.11
915.97	215.11
916.27	215.08
916.58	215.07
916.88	215.01
917.18	215.01
917.49	215.11
917.79	215.14
918.09	215.21
918.39	215.28
918.70	215.24
919.00	215.27
919.30	215.34
919.60	215.36
919.91	215.36
920.21	215.40
920.51	215.37
920.81	215.33
921.12	215.36
921.42	215.37
921.72	215.38
922.02	215.39
922.32	215.41
922.63	215.41
922.93	215.53
923.23	215.58
923.53	215.54
923.83	215.42
924.13	215.39
924.44	215.39
924.74	215.38
925.04	215.45
925.34	215.41
925.64	215.33
925.94	215.32
926.24	215.44
926.55	215.39
926.85	215.40
927.15	215.41
927.45	215.40
927.75	215.39
928.05	215.40
928.35	215.43
928.65	215.42
928.95	215.46
929.26	215.35
929.56	215.37
929.86	215.38
930.16	215.37
930.46	215.36
930.76	215.34
931.06	215.26
931.36	215.19
931.66	215.24
931.96	215.25
932.26	215.26
932.56	215.17
932.86	215.18
933.16	215.20
933.46	215.15
933.76	215.15
934.06	215.21
934.36	215.27
934.66	215.23
934.96	215.22
935.26	215.24
935.56	215.27
935.86	215.24
936.16	215.24
936.46	215.21
936.76	215.20
937.06	215.19
937.36	215.20
937.66	215.21
937.96	215.21
938.26	215.16
938.56	215.12
938.86	215.15
939.16	215.21
939.46	215.23
939.76	215.26
940.06	215.28
940.35	215.20
940.65	215.12
940.95	215.14
941.25	215.10
941.55	215.06
941.85	215.06
942.15	215.11
942.45	215.15
942.75	215.15
943.04	215.16
943.34	215.20
943.64	215.17
943.94	215.11
944.24	215.09
944.54	215.12
944.84	215.14
945.13	215.09
945.43	215.04
945.73	215.02
946.03	215.00
946.33	214.98
946.62	214.96
946.92	214.93
947.22	214.94
947.52	214.96
947.82	214.96
948.11	214.96
948.41	214.91
948.71	214.85
949.01	214.89
949.31	214.90
949.60	214.87
949.90	214.93
950.20	214.96
950.50	214.97
950.79	214.95
951.09	215.00
951.39	215.00
951.69	214.95
951.98	214.98
952.28	215.01
952.58	214.96
952.87	214.97
953.17	215.03
953.47	215.00
953.76	214.99
954.06	214.97
954.36	214.92
954.66	214.90
954.95	214.96
955.25	214.95
955.55	214.91
955.84	214.88
956.14	214.86
956.44	214.84
956.73	214.80
957.03	214.80
957.32	214.77
957.62	214.77
957.92	214.84
958.21	214.81
958.51	215.04
958.81	215.12
959.10	215.16
959.40	215.16
959.69	215.16
959.99	215.19
960.29	215.19
960.58	215.18
960.88	215.25
961.17	215.22
961.47	215.24
961.76	215.24
962.06	215.31
962.36	215.28
962.65	215.31
962.95	215.31
963.24	215.31
963.54	215.29
963.83	215.28
964.13	215.27
964.42	215.20
964.72	215.03
965.01	215.00
965.31	214.97
965.60	214.95
965.90	215.09
966.19	215.05
966.49	215.05
966.78	215.05
967.08	215.04
967.37	215.06
967.67	215.04
967.96	215.09
968.26	215.04
968.55	215.05
968.85	215.06
969.14	215.05
969.43	215.02
969.73	215.02
970.02	215.04
970.32	215.00
970.61	215.01
970.91	214.94
971.20	214.90
971.49	214.89
971.79	214.89
972.08	214.74
972.38	214.74
972.67	214.74
972.96	214.79
973.26	214.74
973.55	214.79
973.85	214.78
974.14	214.72
974.43	214.76
974.73	214.75
975.02	214.72
975.31	214.76
975.61	214.78
975.90	214.77
976.19	214.77
976.49	214.78
976.78	214.81
977.07	214.78
977.37	214.80
977.66	214.83
977.95	214.78
978.24	214.82
978.54	214.87
978.83	214.83
979.12	214.81
979.42	214.81
979.71	214.75
980.00	214.75
980.29	214.77
980.59	214.74
980.88	214.77
981.17	214.74
981.46	214.69
981.76	214.70
982.05	214.76
982.34	214.75
982.63	214.76
982.93	214.77
983.22	214.84
983.51	214.86
983.80	214.88
984.09	214.94
984.39	214.89
984.68	214.89
984.97	214.92
985.26	214.90
985.55	214.91
985.85	214.89
986.14	214.91
986.43	214.93
986.72	214.93
987.01	214.87
987.30	214.88
987.59	214.89
987.89	214.87
988.18	214.80
988.47	214.79
988.76	214.76
989.05	214.78
989.34	214.76
989.63	214.80
989.92	214.75
990.22	214.72
990.51	214.76
990.80	214.71
991.09	214.74
991.38	214.77
991.67	214.77
991.96	214.72
992.25	214.72
992.54	214.69
992.83	214.69
993.12	214.69
993.41	214.73
993.70	214.83
993.99	214.86
994.28	214.90
994.58	214.94
994.87	214.93
995.16	214.91
995.45	214.91
995.74	214.83
996.03	214.90
996.32	214.91
996.61	214.93
996.90	214.93
997.19	214.88
997.48	214.87
997.77	214.83
998.06	214.87
998.34	214.86
998.63	214.86
998.92	214.87
999.21	214.89
999.50	214.90
999.79	214.79
1000.08	214.79
1000.37	214.80
1000.66	214.74
1000.95	214.81
1001.24	214.82
1001.53	214.80
1001.82	214.85
1002.11	214.78
1002.40	214.84
1002.68	214.90
1002.97	215.07
1003.26	215.09
1003.55	215.08
1003.84	215.08
1004.13	215.14
1004.42	215.12
1004.71	215.13
1004.99	215.13
1005.28	215.16
1005.57	215.16
1005.86	215.13
1006.15	215.14
1006.44	215.10
1006.72	215.13
1007.01	215.11
1007.30	215.12
1007.59	215.12
1007.88	215.11
1008.17	215.12
1008.45	215.06
1008.74	214.96
1009.03	214.86
1009.32	214.82
1009.60	214.79
1009.89	214.78
1010.18	214.71
1010.47	214.72
1010.76	214.72
1011.04	214.69
1011.33	214.70
1011.62	214.69
1011.91	214.73
1012.19	214.73
1012.48	214.74
1012.77	214.79
1013.05	214.89
1013.34	214.86
1013.63	214.86
1013.92	214.85
1014.20	214.82
1014.49	214.82
1014.78	214.85
1015.06	214.77
1015.35	214.80
1015.64	214.85
1015.92	214.91
1016.21	214.93
1016.50	214.92
1016.78	214.97
1017.07	215.03
1017.36	215.01
1017.64	215.00
1017.93	215.03
1018.22	215.02
1018.50	215.01
1018.79	214.96
1019.08	214.84
1019.36	214.85
1019.65	214.83
1019.93	214.89
1020.22	214.92
1020.51	215.05
1020.79	215.01
1021.08	214.81
1021.36	214.55
1021.65	214.32
1021.94	215.22
1022.22	214.58
1022.51	214.61
1022.79	215.99
1023.08	214.82
1023.36	217.40
1023.65	214.30
>>>>>End Processed Spectral Data<<<<<
