SpectraSuite Data File
++++++++++++++++++++++++++++++++++++
Date: Tue Jan 29 15:55:37 EST 2013
User: group
Dark Spectrum Present: No
Reference Spectrum Present: No
Number of Sampled Component Spectra: 1
Spectrometers: USB2E7196
Integration Time (usec): 65000 (USB2E7196)
Spectra Averaged: 100 (USB2E7196)
Boxcar Smoothing: 10 (USB2E7196)
Correct for Electrical Dark: No (USB2E7196)
Strobe/Lamp Enabled: No (USB2E7196)
Correct for Detector Non-linearity: No (USB2E7196)
Correct for Stray Light: No (USB2E7196)
Number of Pixels in Processed Spectrum: 2048
>>>>>Begin Processed Spectral Data<<<<<
339.09	0.00
339.48	202.24
339.86	203.81
340.24	205.53
340.63	207.06
341.01	211.63
341.39	209.70
341.78	211.45
342.16	212.66
342.54	213.00
342.93	201.98
343.31	212.22
343.69	212.78
344.07	213.25
344.46	213.71
344.84	214.12
345.22	214.27
345.60	214.54
345.99	214.72
346.37	214.86
346.75	214.96
347.13	215.05
347.52	215.13
347.90	215.23
348.28	215.24
348.66	215.33
349.05	215.30
349.43	215.34
349.81	215.40
350.19	215.44
350.57	215.51
350.96	215.62
351.34	215.68
351.72	215.80
352.10	215.95
352.48	216.03
352.87	216.07
353.25	216.20
353.63	216.27
354.01	216.36
354.39	216.44
354.77	216.53
355.15	216.67
355.54	216.71
355.92	216.73
356.30	216.83
356.68	217.04
357.06	217.11
357.44	217.18
357.82	217.24
358.20	217.34
358.58	217.43
358.97	217.47
359.35	217.60
359.73	217.69
360.11	217.70
360.49	217.75
360.87	217.81
361.25	217.86
361.63	217.96
362.01	218.00
362.39	218.06
362.77	218.11
363.15	218.12
363.53	218.15
363.91	218.17
364.29	218.21
364.67	218.02
365.05	218.08
365.43	218.10
365.81	218.13
366.19	218.20
366.57	218.25
366.95	218.25
367.33	218.19
367.71	218.18
368.09	218.20
368.47	218.19
368.85	218.16
369.23	218.20
369.61	218.12
369.99	218.17
370.37	218.14
370.75	218.20
371.13	218.14
371.51	218.11
371.89	218.12
372.27	218.06
372.65	218.05
373.03	217.99
373.41	217.95
373.78	217.89
374.16	217.78
374.54	217.69
374.92	217.62
375.30	217.59
375.68	217.51
376.06	217.50
376.44	217.42
376.82	217.38
377.19	217.30
377.57	217.24
377.95	217.14
378.33	217.05
378.71	216.89
379.09	216.87
379.47	216.84
379.84	216.75
380.22	216.71
380.60	216.64
380.98	216.61
381.36	216.56
381.73	216.48
382.11	216.47
382.49	216.43
382.87	216.41
383.25	216.36
383.62	216.58
384.00	216.49
384.38	216.49
384.76	216.52
385.13	216.57
385.51	216.57
385.89	216.49
386.27	216.52
386.64	216.54
387.02	216.48
387.40	216.46
387.78	216.44
388.15	216.42
388.53	216.39
388.91	216.34
389.29	216.31
389.66	216.35
390.04	216.32
390.42	216.33
390.79	216.33
391.17	216.34
391.55	216.08
391.92	216.12
392.30	216.10
392.68	216.02
393.05	215.99
393.43	216.00
393.81	216.04
394.18	215.98
394.56	215.94
394.94	216.00
395.31	215.96
395.69	216.05
396.06	216.10
396.44	216.11
396.82	216.15
397.19	216.29
397.57	216.29
397.95	216.31
398.32	216.26
398.70	216.27
399.07	216.32
399.45	216.38
399.82	216.41
400.20	216.48
400.58	216.55
400.95	216.52
401.33	216.61
401.70	216.83
402.08	216.96
402.45	217.06
402.83	217.19
403.20	217.33
403.58	217.36
403.95	217.53
404.33	217.69
404.71	217.83
405.08	218.07
405.46	218.25
405.83	218.46
406.21	218.69
406.58	218.92
406.96	219.13
407.33	219.36
407.70	219.64
408.08	220.09
408.45	220.44
408.83	220.82
409.20	221.10
409.58	221.36
409.95	221.76
410.33	222.27
410.70	222.68
411.08	223.21
411.45	223.80
411.82	224.31
412.20	224.98
412.57	225.76
412.95	226.32
413.32	227.12
413.69	227.92
414.07	228.76
414.44	229.71
414.82	230.67
415.19	231.80
415.56	232.93
415.94	234.04
416.31	235.37
416.68	236.69
417.06	238.26
417.43	239.73
417.81	241.42
418.18	243.11
418.55	244.98
418.93	246.93
419.30	248.98
419.67	251.11
420.04	253.28
420.42	255.60
420.79	258.30
421.16	260.96
421.54	263.74
421.91	266.62
422.28	269.62
422.66	272.79
423.03	275.93
423.40	279.16
423.77	282.59
424.15	286.10
424.52	289.78
424.89	293.81
425.26	297.72
425.64	301.47
426.01	305.60
426.38	309.83
426.75	314.13
427.13	318.62
427.50	323.42
427.87	328.40
428.24	333.34
428.61	338.11
428.99	343.36
429.36	349.14
429.73	354.80
430.10	360.46
430.47	366.29
430.85	372.28
431.22	378.66
431.59	385.49
431.96	391.99
432.33	399.21
432.70	406.10
433.08	414.23
433.45	421.96
433.82	429.59
434.19	438.15
434.56	446.52
434.93	454.54
435.30	462.49
435.68	471.25
436.05	479.88
436.42	488.42
436.79	496.22
437.16	504.58
437.53	513.47
437.90	522.25
438.27	530.84
438.64	539.74
439.01	548.00
439.38	555.26
439.75	562.36
440.13	570.47
440.50	578.10
440.87	584.27
441.24	590.62
441.61	597.61
441.98	602.72
442.35	608.80
442.72	614.82
443.09	620.55
443.46	624.13
443.83	626.52
444.20	628.60
444.57	631.65
444.94	632.98
445.31	634.31
445.68	635.57
446.05	636.08
446.42	635.34
446.79	634.38
447.16	633.38
447.53	632.59
447.90	629.33
448.27	626.12
448.64	621.64
449.01	618.37
449.37	612.76
449.74	607.35
450.11	600.72
450.48	593.60
450.85	586.45
451.22	580.20
451.59	574.31
451.96	568.67
452.33	561.08
452.70	554.37
453.07	546.27
453.43	538.00
453.80	530.13
454.17	522.45
454.54	515.21
454.91	507.40
455.28	499.84
455.65	492.80
456.02	485.72
456.38	479.71
456.75	472.36
457.12	466.09
457.49	459.88
457.86	453.99
458.23	448.91
458.59	443.29
458.96	437.61
459.33	432.58
459.70	427.48
460.07	423.52
460.43	418.83
460.80	414.49
461.17	410.71
461.54	406.68
461.91	402.83
462.27	398.92
462.64	395.65
463.01	391.96
463.38	388.44
463.74	384.90
464.11	381.82
464.48	379.00
464.85	376.03
465.21	373.74
465.58	371.20
465.95	368.16
466.32	365.66
466.68	363.19
467.05	360.74
467.42	358.30
467.78	355.71
468.15	353.27
468.52	351.46
468.88	349.10
469.25	347.05
469.62	345.33
469.98	343.48
470.35	341.71
470.72	340.15
471.08	338.45
471.45	337.05
471.82	335.59
472.18	334.06
472.55	332.95
472.92	331.65
473.28	330.56
473.65	329.52
474.02	328.50
474.38	327.66
474.75	327.00
475.11	326.29
475.48	325.77
475.85	325.34
476.21	324.91
476.58	324.61
476.94	324.40
477.31	324.15
477.67	323.93
478.04	323.84
478.41	323.83
478.77	324.00
479.14	323.97
479.50	324.16
479.87	324.42
480.23	324.77
480.60	325.00
480.96	325.30
481.33	325.91
481.69	326.47
482.06	327.00
482.42	327.48
482.79	328.15
483.15	328.97
483.52	329.91
483.88	330.79
484.25	331.74
484.61	332.78
484.98	333.82
485.34	335.14
485.71	336.52
486.07	337.93
486.44	339.26
486.80	340.89
487.17	342.48
487.53	344.31
487.90	346.17
488.26	348.22
488.62	350.35
488.99	352.37
489.35	354.52
489.72	356.88
490.08	359.38
490.44	361.87
490.81	364.60
491.17	367.32
491.54	370.31
491.90	373.36
492.26	376.59
492.63	380.03
492.99	383.50
493.36	387.15
493.72	391.04
494.08	395.03
494.45	399.25
494.81	403.65
495.17	408.13
495.54	412.84
495.90	417.69
496.26	422.62
496.63	427.80
496.99	433.17
497.35	438.74
497.72	444.53
498.08	450.45
498.44	456.50
498.80	462.82
499.17	469.28
499.53	475.91
499.89	482.75
500.26	489.69
500.62	496.75
500.98	504.14
501.34	511.57
501.71	519.32
502.07	526.99
502.43	534.96
502.79	543.05
503.16	551.33
503.52	559.78
503.88	568.42
504.24	577.41
504.60	586.45
504.97	595.68
505.33	604.96
505.69	614.79
506.05	624.61
506.41	634.45
506.78	644.43
507.14	654.64
507.50	664.99
507.86	675.64
508.22	686.36
508.59	696.99
508.95	707.98
509.31	719.21
509.67	730.69
510.03	742.04
510.39	753.79
510.75	765.59
511.12	777.46
511.48	789.49
511.84	801.59
512.20	813.79
512.56	826.27
512.92	838.84
513.28	851.29
513.64	864.01
514.00	876.77
514.37	889.65
514.73	902.64
515.09	915.50
515.45	928.16
515.81	941.02
516.17	954.17
516.53	967.12
516.89	979.99
517.25	992.94
517.61	1006.26
517.97	1019.32
518.33	1032.20
518.69	1045.48
519.05	1058.95
519.41	1072.36
519.77	1086.09
520.13	1099.22
520.49	1112.19
520.85	1125.35
521.21	1138.34
521.57	1151.84
521.93	1164.70
522.29	1178.29
522.65	1191.79
523.01	1205.13
523.37	1218.10
523.73	1231.14
524.09	1244.10
524.45	1257.19
524.81	1270.31
525.17	1283.43
525.53	1296.30
525.89	1309.35
526.25	1322.21
526.61	1334.71
526.97	1347.42
527.33	1359.93
527.68	1373.00
528.04	1386.14
528.40	1398.90
528.76	1411.95
529.12	1424.46
529.48	1437.38
529.84	1449.15
530.20	1461.50
530.56	1473.82
530.91	1486.73
531.27	1499.12
531.63	1511.56
531.99	1524.01
532.35	1535.90
532.71	1547.87
533.07	1560.31
533.42	1572.12
533.78	1583.84
534.14	1595.56
534.50	1606.50
534.86	1617.80
535.21	1628.15
535.57	1639.39
535.93	1650.39
536.29	1661.11
536.65	1672.29
537.00	1682.85
537.36	1693.83
537.72	1704.36
538.08	1715.21
538.44	1725.78
538.79	1736.54
539.15	1747.03
539.51	1757.35
539.87	1768.25
540.22	1778.62
540.58	1789.31
540.94	1799.76
541.29	1809.62
541.65	1819.06
542.01	1829.37
542.37	1839.06
542.72	1849.05
543.08	1858.47
543.44	1868.52
543.79	1877.45
544.15	1886.31
544.51	1895.86
544.87	1905.36
545.22	1914.17
545.58	1922.74
545.94	1931.12
546.29	1939.23
546.65	1947.16
547.01	1955.00
547.36	1962.28
547.72	1969.70
548.07	1976.87
548.43	1984.21
548.79	1991.78
549.14	1999.56
549.50	2007.46
549.86	2014.83
550.21	2021.90
550.57	2029.17
550.92	2035.53
551.28	2042.59
551.64	2049.58
551.99	2056.85
552.35	2063.64
552.70	2070.27
553.06	2076.76
553.41	2082.84
553.77	2089.16
554.13	2095.30
554.48	2102.15
554.84	2108.96
555.19	2115.26
555.55	2121.42
555.90	2127.67
556.26	2134.31
556.61	2140.09
556.97	2144.73
557.32	2150.60
557.68	2156.87
558.03	2162.38
558.39	2167.68
558.74	2173.59
559.10	2179.13
559.45	2184.66
559.81	2190.20
560.16	2195.65
560.52	2201.35
560.87	2207.69
561.23	2213.62
561.58	2220.29
561.94	2225.39
562.29	2230.20
562.64	2236.42
563.00	2242.31
563.35	2247.98
563.71	2253.75
564.06	2259.40
564.42	2265.40
564.77	2270.41
565.12	2275.76
565.48	2280.92
565.83	2286.47
566.19	2291.89
566.54	2297.31
566.89	2301.85
567.25	2306.56
567.60	2312.41
567.96	2317.55
568.31	2322.16
568.66	2326.54
569.02	2330.49
569.37	2334.44
569.72	2339.00
570.08	2342.55
570.43	2345.59
570.78	2348.67
571.14	2351.32
571.49	2354.65
571.84	2358.36
572.20	2361.44
572.55	2364.40
572.90	2366.96
573.26	2370.01
573.61	2372.82
573.96	2375.09
574.31	2377.28
574.67	2379.25
575.02	2380.28
575.37	2382.02
575.72	2383.00
576.08	2384.54
576.43	2384.93
576.78	2385.80
577.13	2387.71
577.49	2388.94
577.84	2390.29
578.19	2392.04
578.54	2392.92
578.90	2393.99
579.25	2394.12
579.60	2394.39
579.95	2394.11
580.30	2394.48
580.66	2394.09
581.01	2392.70
581.36	2390.78
581.71	2389.65
582.06	2388.81
582.42	2388.24
582.77	2386.41
583.12	2385.17
583.47	2384.25
583.82	2384.07
584.17	2383.06
584.53	2381.14
584.88	2379.34
585.23	2377.89
585.58	2375.88
585.93	2374.10
586.28	2372.25
586.63	2370.14
586.98	2368.17
587.34	2366.42
587.69	2364.24
588.04	2362.48
588.39	2361.22
588.74	2358.94
589.09	2356.67
589.44	2353.86
589.79	2351.70
590.14	2350.14
590.49	2347.57
590.84	2343.99
591.19	2341.20
591.54	2338.17
591.89	2334.43
592.25	2331.49
592.60	2327.38
592.95	2323.62
593.30	2319.83
593.65	2315.65
594.00	2311.44
594.35	2308.51
594.70	2304.02
595.05	2299.76
595.40	2294.53
595.75	2289.21
596.10	2285.71
596.45	2281.03
596.80	2276.69
597.15	2271.53
597.50	2265.69
597.85	2260.77
598.19	2255.63
598.54	2250.01
598.89	2244.96
599.24	2240.49
599.59	2234.64
599.94	2229.14
600.29	2223.15
600.64	2217.10
600.99	2210.35
601.34	2204.99
601.69	2198.19
602.04	2191.97
602.39	2185.59
602.74	2179.58
603.08	2174.13
603.43	2167.87
603.78	2161.20
604.13	2154.15
604.48	2146.99
604.83	2140.99
605.18	2134.92
605.53	2128.21
605.87	2121.27
606.22	2114.75
606.57	2106.97
606.92	2099.08
607.27	2092.33
607.62	2085.67
607.96	2078.90
608.31	2072.66
608.66	2065.13
609.01	2057.63
609.36	2050.63
609.70	2042.92
610.05	2035.33
610.40	2027.04
610.75	2018.85
611.10	2011.20
611.44	2002.51
611.79	1993.98
612.14	1984.04
612.49	1973.53
612.83	1964.16
613.18	1954.87
613.53	1945.46
613.88	1936.05
614.22	1927.49
614.57	1917.56
614.92	1907.24
615.27	1897.14
615.61	1887.00
615.96	1877.34
616.31	1867.83
616.65	1858.39
617.00	1848.61
617.35	1838.87
617.70	1829.19
618.04	1819.12
618.39	1808.89
618.74	1799.24
619.08	1789.56
619.43	1780.85
619.78	1772.62
620.12	1764.09
620.47	1754.54
620.82	1744.24
621.16	1734.31
621.51	1724.48
621.85	1714.60
622.20	1704.14
622.55	1693.65
622.89	1683.92
623.24	1674.09
623.59	1664.38
623.93	1654.33
624.28	1644.48
624.62	1634.31
624.97	1624.02
625.32	1614.22
625.66	1605.31
626.01	1596.52
626.35	1587.06
626.70	1576.98
627.04	1566.86
627.39	1556.70
627.73	1547.31
628.08	1538.23
628.43	1528.84
628.77	1519.55
629.12	1510.56
629.46	1502.84
629.81	1494.33
630.15	1484.62
630.50	1474.73
630.84	1464.19
631.19	1454.19
631.53	1444.98
631.88	1434.94
632.22	1424.94
632.57	1415.52
632.91	1405.34
633.26	1395.47
633.60	1385.90
633.95	1376.61
634.29	1367.21
634.64	1357.94
634.98	1348.10
635.32	1338.83
635.67	1330.17
636.01	1320.91
636.36	1311.12
636.70	1301.43
637.05	1292.12
637.39	1283.16
637.73	1274.63
638.08	1267.01
638.42	1258.84
638.77	1250.00
639.11	1241.65
639.45	1233.66
639.80	1225.08
640.14	1216.47
640.49	1207.67
640.83	1198.93
641.17	1190.74
641.52	1182.52
641.86	1173.82
642.20	1165.87
642.55	1157.17
642.89	1148.26
643.23	1139.48
643.58	1131.48
643.92	1122.44
644.26	1113.66
644.61	1105.27
644.95	1096.42
645.29	1087.18
645.64	1078.02
645.98	1069.55
646.32	1061.59
646.66	1053.08
647.01	1044.70
647.35	1036.42
647.69	1027.99
648.04	1019.67
648.38	1010.80
648.72	1002.02
649.06	993.58
649.41	985.41
649.75	977.56
650.09	969.69
650.43	961.63
650.78	953.35
651.12	945.79
651.46	938.48
651.80	931.18
652.14	923.90
652.49	916.35
652.83	909.01
653.17	901.39
653.51	893.80
653.85	886.69
654.20	879.52
654.54	872.17
654.88	864.98
655.22	857.83
655.56	850.92
655.90	844.17
656.25	837.51
656.59	830.62
656.93	823.66
657.27	816.63
657.61	809.88
657.95	803.81
658.29	797.83
658.64	791.69
658.98	785.37
659.32	778.89
659.66	772.77
660.00	766.53
660.34	760.53
660.68	754.53
661.02	748.21
661.36	742.34
661.70	736.70
662.05	731.07
662.39	725.57
662.73	720.18
663.07	714.83
663.41	709.35
663.75	703.77
664.09	698.18
664.43	692.89
664.77	687.55
665.11	681.75
665.45	675.89
665.79	670.24
666.13	664.57
666.47	659.17
666.81	653.82
667.15	648.48
667.49	643.31
667.83	638.16
668.17	632.98
668.51	627.95
668.85	622.96
669.19	618.15
669.53	613.26
669.87	608.30
670.21	603.64
670.55	598.94
670.89	594.49
671.23	590.23
671.57	585.92
671.91	581.68
672.25	577.68
672.58	573.65
672.92	569.65
673.26	565.75
673.60	561.97
673.94	558.23
674.28	554.71
674.62	551.06
674.96	547.31
675.30	543.92
675.64	540.30
675.97	536.82
676.31	533.29
676.65	529.80
676.99	526.40
677.33	522.61
677.67	519.06
678.01	515.31
678.34	511.76
678.68	508.26
679.02	504.76
679.36	501.08
679.70	497.51
680.04	493.96
680.37	490.65
680.71	487.37
681.05	484.20
681.39	480.99
681.73	477.80
682.06	474.88
682.40	471.84
682.74	468.73
683.08	465.58
683.42	462.43
683.75	459.45
684.09	456.50
684.43	453.75
684.77	450.88
685.10	448.12
685.44	445.23
685.78	442.42
686.12	439.70
686.45	437.03
686.79	434.45
687.13	432.01
687.46	429.42
687.80	426.83
688.14	424.04
688.48	421.48
688.81	418.94
689.15	416.40
689.49	413.80
689.82	411.35
690.16	408.82
690.50	406.48
690.83	404.06
691.17	401.57
691.51	399.20
691.84	397.06
692.18	394.94
692.52	392.80
692.85	390.68
693.19	388.58
693.52	386.48
693.86	384.34
694.20	382.27
694.53	380.22
694.87	378.06
695.21	376.05
695.54	374.01
695.88	371.94
696.21	369.86
696.55	367.84
696.88	365.89
697.22	364.00
697.56	362.11
697.89	360.28
698.23	358.60
698.56	356.87
698.90	355.16
699.23	353.29
699.57	351.50
699.90	349.74
700.24	348.01
700.58	346.33
700.91	344.74
701.25	343.20
701.58	341.66
701.92	340.16
702.25	338.62
702.59	337.04
702.92	335.54
703.26	334.00
703.59	332.61
703.93	331.36
704.26	329.96
704.60	328.53
704.93	327.13
705.26	325.67
705.60	324.27
705.93	322.73
706.27	321.49
706.60	320.27
706.94	319.05
707.27	317.72
707.61	316.44
707.94	315.14
708.27	313.65
708.61	312.23
708.94	310.90
709.28	309.69
709.61	308.51
709.94	307.33
710.28	306.15
710.61	304.98
710.95	303.60
711.28	302.58
711.61	301.46
711.95	300.37
712.28	299.21
712.61	298.03
712.95	297.02
713.28	296.02
713.61	294.90
713.95	293.79
714.28	292.81
714.61	291.76
714.95	290.76
715.28	289.83
715.61	288.88
715.95	287.92
716.28	286.97
716.61	286.06
716.95	285.12
717.28	284.24
717.61	283.33
717.94	282.48
718.28	281.45
718.61	280.60
718.94	279.75
719.27	278.96
719.61	278.19
719.94	277.33
720.27	276.41
720.60	275.58
720.94	274.85
721.27	274.08
721.60	273.45
721.93	272.76
722.27	272.15
722.60	271.48
722.93	270.85
723.26	270.20
723.59	269.49
723.93	268.86
724.26	268.26
724.59	267.62
724.92	267.06
725.25	266.57
725.59	266.01
725.92	265.48
726.25	264.90
726.58	264.33
726.91	263.82
727.24	263.29
727.57	262.76
727.91	262.15
728.24	261.65
728.57	261.05
728.90	260.52
729.23	259.90
729.56	259.48
729.89	258.94
730.22	258.41
730.55	257.90
730.89	257.40
731.22	256.90
731.55	256.40
731.88	255.86
732.21	255.32
732.54	254.80
732.87	254.28
733.20	253.85
733.53	253.41
733.86	252.95
734.19	252.52
734.52	252.11
734.85	251.84
735.18	251.38
735.51	251.06
735.84	250.67
736.17	250.31
736.50	249.80
736.83	249.66
737.16	249.27
737.49	248.92
737.82	248.52
738.15	248.15
738.48	247.82
738.81	247.49
739.14	247.08
739.47	246.73
739.80	246.39
740.13	246.06
740.46	245.65
740.79	245.28
741.12	244.86
741.45	244.53
741.78	244.11
742.11	243.86
742.44	243.49
742.77	243.15
743.10	242.80
743.43	242.48
743.75	241.95
744.08	241.90
744.41	241.53
744.74	241.17
745.07	240.82
745.40	240.49
745.73	240.25
746.06	239.95
746.39	239.67
746.71	239.34
747.04	238.98
747.37	238.70
747.70	238.42
748.03	238.21
748.36	237.94
748.68	237.62
749.01	237.25
749.34	236.95
749.67	236.71
750.00	236.45
750.33	236.36
750.65	236.11
750.98	235.58
751.31	235.36
751.64	235.15
751.97	235.03
752.29	234.77
752.62	234.40
752.95	234.18
753.28	233.95
753.60	233.71
753.93	233.55
754.26	233.35
754.59	233.10
754.91	232.81
755.24	232.56
755.57	232.36
755.90	232.15
756.22	231.93
756.55	231.67
756.88	231.43
757.20	231.05
757.53	230.81
757.86	230.63
758.19	230.44
758.51	230.22
758.84	229.92
759.17	229.74
759.49	229.62
759.82	229.54
760.15	229.37
760.47	229.22
760.80	228.96
761.13	228.80
761.45	228.60
761.78	228.46
762.11	228.30
762.43	228.11
762.76	227.95
763.08	227.81
763.41	227.68
763.74	227.54
764.06	227.43
764.39	227.26
764.71	227.11
765.04	227.00
765.37	226.88
765.69	226.73
766.02	226.62
766.34	226.46
766.67	226.23
767.00	226.16
767.32	226.13
767.65	226.14
767.97	226.03
768.30	225.93
768.62	225.81
768.95	225.66
769.27	225.56
769.60	225.47
769.92	225.33
770.25	225.18
770.57	225.02
770.90	224.86
771.22	224.75
771.55	224.68
771.87	224.54
772.20	224.42
772.52	224.48
772.85	224.59
773.17	224.53
773.50	224.44
773.82	224.28
774.15	224.06
774.47	223.85
774.80	223.70
775.12	223.62
775.45	223.51
775.77	223.44
776.09	223.37
776.42	223.27
776.74	223.24
777.07	223.17
777.39	223.11
777.72	223.02
778.04	222.96
778.36	222.81
778.69	222.73
779.01	222.68
779.33	222.43
779.66	222.12
779.98	222.01
780.31	221.93
780.63	221.92
780.95	221.89
781.28	221.85
781.60	221.78
781.92	221.69
782.25	221.61
782.57	221.54
782.89	221.47
783.22	221.36
783.54	221.25
783.86	221.20
784.19	221.14
784.51	221.13
784.83	221.08
785.16	221.06
785.48	221.03
785.80	220.95
786.12	220.92
786.45	220.84
786.77	220.79
787.09	220.70
787.42	220.57
787.74	220.54
788.06	220.46
788.38	220.39
788.71	220.36
789.03	220.34
789.35	220.30
789.67	220.22
789.99	220.23
790.32	220.15
790.64	220.11
790.96	220.19
791.28	220.08
791.61	220.00
791.93	219.94
792.25	219.89
792.57	219.97
792.89	219.88
793.21	219.87
793.54	219.79
793.86	219.74
794.18	219.74
794.50	219.65
794.82	219.63
795.14	219.64
795.47	219.61
795.79	219.56
796.11	219.49
796.43	219.43
796.75	219.35
797.07	219.33
797.39	219.27
797.71	219.12
798.04	219.08
798.36	219.08
798.68	219.04
799.00	219.01
799.32	218.90
799.64	218.94
799.96	218.93
800.28	218.95
800.60	218.93
800.92	218.87
801.24	218.78
801.56	218.76
801.89	218.68
802.21	218.66
802.53	218.61
802.85	218.64
803.17	218.72
803.49	218.70
803.81	218.66
804.13	218.63
804.45	218.56
804.77	218.57
805.09	218.54
805.41	218.51
805.73	218.44
806.05	218.35
806.37	218.28
806.69	218.21
807.01	218.16
807.33	218.14
807.65	218.07
807.97	218.18
808.28	218.15
808.60	218.12
808.92	218.05
809.24	218.17
809.56	218.11
809.88	218.00
810.20	217.95
810.52	217.97
810.84	217.93
811.16	217.91
811.48	217.83
811.80	217.84
812.12	217.81
812.43	217.80
812.75	217.77
813.07	217.71
813.39	217.71
813.71	217.66
814.03	217.62
814.35	217.60
814.67	217.49
814.98	217.47
815.30	217.44
815.62	217.40
815.94	217.28
816.26	217.26
816.58	217.19
816.89	217.21
817.21	217.14
817.53	217.11
817.85	217.09
818.17	217.12
818.48	217.03
818.80	217.08
819.12	217.01
819.44	216.99
819.76	216.99
820.07	216.97
820.39	216.96
820.71	216.95
821.03	216.95
821.34	216.90
821.66	216.86
821.98	216.86
822.30	216.83
822.61	216.91
822.93	216.86
823.25	216.81
823.57	216.78
823.88	216.81
824.20	216.79
824.52	216.83
824.83	216.79
825.15	216.75
825.47	216.71
825.79	216.77
826.10	216.76
826.42	216.74
826.74	216.74
827.05	216.73
827.37	216.74
827.69	216.69
828.00	216.71
828.32	216.72
828.64	216.70
828.95	216.78
829.27	216.70
829.58	216.71
829.90	216.78
830.22	216.76
830.53	216.71
830.85	216.69
831.17	216.61
831.48	216.57
831.80	216.60
832.11	216.56
832.43	216.48
832.75	216.44
833.06	216.56
833.38	216.48
833.69	216.45
834.01	216.44
834.32	216.43
834.64	216.41
834.96	216.41
835.27	216.40
835.59	216.32
835.90	216.28
836.22	216.26
836.53	216.22
836.85	216.20
837.16	216.39
837.48	216.41
837.79	216.46
838.11	216.51
838.42	216.49
838.74	216.51
839.05	216.52
839.37	216.54
839.68	216.43
840.00	216.42
840.31	216.46
840.63	216.42
840.94	216.40
841.26	216.37
841.57	216.37
841.88	216.38
842.20	216.40
842.51	216.39
842.83	216.37
843.14	216.54
843.46	216.53
843.77	216.43
844.08	216.37
844.40	216.33
844.71	216.30
845.03	216.31
845.34	216.27
845.65	216.24
845.97	216.24
846.28	216.23
846.60	216.24
846.91	216.20
847.22	216.22
847.54	216.26
847.85	216.29
848.16	216.27
848.48	216.18
848.79	216.22
849.10	216.21
849.42	216.23
849.73	216.02
850.04	216.01
850.36	215.94
850.67	215.97
850.98	215.95
851.30	215.97
851.61	215.94
851.92	215.96
852.23	216.03
852.55	216.03
852.86	216.01
853.17	216.02
853.49	216.05
853.80	216.08
854.11	216.09
854.42	216.11
854.74	216.08
855.05	216.14
855.36	216.06
855.67	216.05
855.99	216.04
856.30	216.27
856.61	216.26
856.92	216.27
857.23	216.27
857.55	216.27
857.86	216.22
858.17	216.24
858.48	216.18
858.79	216.15
859.11	216.16
859.42	216.15
859.73	216.11
860.04	216.09
860.35	216.00
860.66	215.94
860.98	215.92
861.29	215.94
861.60	215.91
861.91	215.94
862.22	215.90
862.53	215.86
862.84	215.61
863.16	215.68
863.47	215.61
863.78	215.57
864.09	215.58
864.40	215.58
864.71	215.58
865.02	215.59
865.33	215.54
865.64	215.49
865.95	215.51
866.27	215.65
866.58	215.63
866.89	215.69
867.20	215.68
867.51	215.63
867.82	215.61
868.13	215.67
868.44	215.63
868.75	215.69
869.06	215.69
869.37	215.71
869.68	215.64
869.99	215.66
870.30	215.67
870.61	215.69
870.92	215.68
871.23	215.66
871.54	215.67
871.85	215.74
872.16	215.75
872.47	215.70
872.78	215.57
873.09	215.56
873.40	215.54
873.71	215.55
874.02	215.56
874.33	215.54
874.64	215.48
874.95	215.49
875.26	215.42
875.56	215.45
875.87	215.46
876.18	215.42
876.49	215.66
876.80	215.61
877.11	215.55
877.42	215.55
877.73	215.57
878.04	215.57
878.35	215.54
878.66	215.56
878.96	215.56
879.27	215.55
879.58	215.56
879.89	215.53
880.20	215.56
880.51	215.55
880.82	215.56
881.12	215.58
881.43	215.57
881.74	215.56
882.05	215.55
882.36	215.53
882.67	215.59
882.97	215.35
883.28	215.37
883.59	215.40
883.90	215.41
884.21	215.42
884.51	215.43
884.82	215.41
885.13	215.42
885.44	215.44
885.74	215.46
886.05	215.43
886.36	215.45
886.67	215.38
886.98	215.52
887.28	215.52
887.59	215.52
887.90	215.48
888.20	215.49
888.51	215.53
888.82	215.51
889.13	215.50
889.43	215.65
889.74	215.65
890.05	215.62
890.35	215.63
890.66	215.60
890.97	215.59
891.28	215.58
891.58	215.59
891.89	215.57
892.20	215.53
892.50	215.54
892.81	215.52
893.12	215.54
893.42	215.43
893.73	215.46
894.04	215.47
894.34	215.52
894.65	215.51
894.95	215.47
895.26	215.50
895.57	215.57
895.87	215.38
896.18	215.42
896.48	215.43
896.79	215.40
897.10	215.42
897.40	215.43
897.71	215.43
898.01	215.38
898.32	215.40
898.63	215.41
898.93	215.40
899.24	215.40
899.54	215.38
899.85	215.37
900.15	215.37
900.46	215.36
900.76	215.36
901.07	215.36
901.38	215.33
901.68	215.37
901.99	215.30
902.29	215.32
902.60	215.30
902.90	215.30
903.21	215.27
903.51	215.26
903.82	215.30
904.12	215.33
904.43	215.37
904.73	215.34
905.03	215.37
905.34	215.58
905.64	215.59
905.95	215.59
906.25	215.59
906.56	215.57
906.86	215.56
907.17	215.53
907.47	215.56
907.77	215.56
908.08	215.47
908.38	215.49
908.69	215.50
908.99	215.52
909.30	215.55
909.60	215.56
909.90	215.58
910.21	215.53
910.51	215.50
910.81	215.51
911.12	215.54
911.42	215.51
911.73	215.29
912.03	215.30
912.33	215.35
912.64	215.36
912.94	215.36
913.24	215.35
913.55	215.34
913.85	215.31
914.15	215.34
914.46	215.40
914.76	215.36
915.06	215.38
915.37	215.34
915.67	215.27
915.97	215.31
916.27	215.24
916.58	215.23
916.88	215.20
917.18	215.17
917.49	215.30
917.79	215.31
918.09	215.32
918.39	215.39
918.70	215.36
919.00	215.34
919.30	215.41
919.60	215.40
919.91	215.41
920.21	215.46
920.51	215.43
920.81	215.40
921.12	215.44
921.42	215.43
921.72	215.46
922.02	215.53
922.32	215.57
922.63	215.58
922.93	215.72
923.23	215.75
923.53	215.74
923.83	215.60
924.13	215.61
924.44	215.61
924.74	215.63
925.04	215.69
925.34	215.69
925.64	215.59
925.94	215.55
926.24	215.62
926.55	215.56
926.85	215.58
927.15	215.59
927.45	215.57
927.75	215.57
928.05	215.57
928.35	215.53
928.65	215.53
928.95	215.55
929.26	215.40
929.56	215.40
929.86	215.41
930.16	215.36
930.46	215.35
930.76	215.35
931.06	215.24
931.36	215.18
931.66	215.23
931.96	215.26
932.26	215.33
932.56	215.27
932.86	215.29
933.16	215.31
933.46	215.28
933.76	215.28
934.06	215.31
934.36	215.38
934.66	215.39
934.96	215.36
935.26	215.39
935.56	215.44
935.86	215.39
936.16	215.36
936.46	215.39
936.76	215.40
937.06	215.40
937.36	215.42
937.66	215.40
937.96	215.36
938.26	215.29
938.56	215.27
938.86	215.24
939.16	215.28
939.46	215.31
939.76	215.33
940.06	215.34
940.35	215.26
940.65	215.14
940.95	215.15
941.25	215.10
941.55	215.05
941.85	215.05
942.15	215.09
942.45	215.15
942.75	215.13
943.04	215.12
943.34	215.14
943.64	215.13
943.94	215.14
944.24	215.16
944.54	215.20
944.84	215.19
945.13	215.14
945.43	215.13
945.73	215.10
946.03	215.06
946.33	215.00
946.62	215.02
946.92	215.03
947.22	215.03
947.52	215.02
947.82	215.06
948.11	215.03
948.41	215.00
948.71	214.93
949.01	214.93
949.31	214.91
949.60	214.91
949.90	214.93
950.20	214.92
950.50	214.89
950.79	214.87
951.09	214.91
951.39	214.94
951.69	214.89
951.98	214.93
952.28	214.95
952.58	214.99
952.87	214.98
953.17	214.99
953.47	214.97
953.76	214.97
954.06	214.94
954.36	214.89
954.66	214.91
954.95	214.95
955.25	214.98
955.55	214.99
955.84	214.92
956.14	214.92
956.44	214.94
956.73	214.94
957.03	214.96
957.32	214.97
957.62	214.99
957.92	215.03
958.21	214.99
958.51	215.21
958.81	215.22
959.10	215.24
959.40	215.27
959.69	215.29
959.99	215.34
960.29	215.33
960.58	215.35
960.88	215.43
961.17	215.45
961.47	215.47
961.76	215.48
962.06	215.53
962.36	215.52
962.65	215.55
962.95	215.56
963.24	215.55
963.54	215.52
963.83	215.54
964.13	215.55
964.42	215.52
964.72	215.39
965.01	215.38
965.31	215.38
965.60	215.36
965.90	215.49
966.19	215.42
966.49	215.44
966.78	215.47
967.08	215.43
967.37	215.41
967.67	215.37
967.96	215.40
968.26	215.41
968.55	215.45
968.85	215.41
969.14	215.40
969.43	215.40
969.73	215.38
970.02	215.36
970.32	215.33
970.61	215.30
970.91	215.22
971.20	215.17
971.49	215.16
971.79	215.17
972.08	215.02
972.38	215.07
972.67	215.04
972.96	215.06
973.26	215.01
973.55	215.08
973.85	215.06
974.14	215.02
974.43	215.02
974.73	214.95
975.02	214.93
975.31	214.96
975.61	214.94
975.90	214.94
976.19	214.90
976.49	214.92
976.78	214.91
977.07	214.92
977.37	214.96
977.66	214.97
977.95	214.93
978.24	214.95
978.54	214.97
978.83	214.97
979.12	214.95
979.42	214.98
979.71	214.92
980.00	214.92
980.29	214.94
980.59	214.90
980.88	214.95
981.17	214.97
981.46	214.94
981.76	214.94
982.05	215.01
982.34	215.03
982.63	215.04
982.93	215.07
983.22	215.12
983.51	215.09
983.80	215.10
984.09	215.14
984.39	215.11
984.68	215.08
984.97	215.10
985.26	215.08
985.55	215.07
985.85	215.05
986.14	215.08
986.43	215.10
986.72	215.08
987.01	215.01
987.30	215.00
987.59	214.99
987.89	215.02
988.18	214.98
988.47	214.97
988.76	214.93
989.05	214.91
989.34	214.89
989.63	214.94
989.92	214.95
990.22	214.95
990.51	214.97
990.80	214.94
991.09	214.93
991.38	214.92
991.67	214.94
991.96	214.91
992.25	214.91
992.54	214.86
992.83	214.87
993.12	214.90
993.41	214.92
993.70	215.00
993.99	215.03
994.28	215.02
994.58	215.02
994.87	215.01
995.16	215.02
995.45	214.99
995.74	214.93
996.03	214.95
996.32	214.98
996.61	215.03
996.90	215.06
997.19	215.04
997.48	215.07
997.77	215.01
998.06	215.02
998.34	215.01
998.63	215.01
998.92	215.04
999.21	215.06
999.50	215.10
999.79	215.01
1000.08	215.01
1000.37	215.01
1000.66	215.00
1000.95	215.06
1001.24	215.07
1001.53	215.10
1001.82	215.10
1002.11	215.06
1002.40	215.04
1002.68	215.07
1002.97	215.20
1003.26	215.21
1003.55	215.16
1003.84	215.22
1004.13	215.29
1004.42	215.29
1004.71	215.31
1004.99	215.28
1005.28	215.33
1005.57	215.30
1005.86	215.29
1006.15	215.26
1006.44	215.24
1006.72	215.28
1007.01	215.24
1007.30	215.27
1007.59	215.27
1007.88	215.27
1008.17	215.25
1008.45	215.22
1008.74	215.14
1009.03	215.07
1009.32	215.09
1009.60	215.13
1009.89	215.10
1010.18	215.00
1010.47	215.00
1010.76	214.98
1011.04	215.01
1011.33	214.98
1011.62	214.99
1011.91	215.03
1012.19	215.04
1012.48	215.08
1012.77	215.04
1013.05	215.12
1013.34	215.10
1013.63	215.07
1013.92	215.08
1014.20	215.11
1014.49	215.12
1014.78	215.14
1015.06	215.07
1015.35	215.06
1015.64	215.10
1015.92	215.14
1016.21	215.15
1016.50	215.13
1016.78	215.16
1017.07	215.17
1017.36	215.16
1017.64	215.11
1017.93	215.09
1018.22	215.08
1018.50	215.03
1018.79	215.06
1019.08	214.95
1019.36	214.94
1019.65	214.93
1019.93	214.98
1020.22	214.99
1020.51	215.11
1020.79	215.09
1021.08	214.70
1021.36	214.22
1021.65	215.30
1021.94	214.48
1022.22	214.83
1022.51	214.42
1022.79	216.12
1023.08	215.21
1023.36	217.82
1023.65	214.65
>>>>>End Processed Spectral Data<<<<<
