SpectraSuite Data File
++++++++++++++++++++++++++++++++++++
Date: Tue Jan 29 16:03:34 EST 2013
User: group
Dark Spectrum Present: No
Reference Spectrum Present: No
Number of Sampled Component Spectra: 1
Spectrometers: USB2E7196
Integration Time (usec): 65000 (USB2E7196)
Spectra Averaged: 100 (USB2E7196)
Boxcar Smoothing: 10 (USB2E7196)
Correct for Electrical Dark: No (USB2E7196)
Strobe/Lamp Enabled: No (USB2E7196)
Correct for Detector Non-linearity: No (USB2E7196)
Correct for Stray Light: No (USB2E7196)
Number of Pixels in Processed Spectrum: 2048
>>>>>Begin Processed Spectral Data<<<<<
339.09	0.00
339.48	201.99
339.86	203.45
340.24	205.48
340.63	206.48
341.01	211.27
341.39	210.17
341.78	211.32
342.16	212.64
342.54	212.27
342.93	201.69
343.31	211.88
343.69	212.43
344.07	212.90
344.46	213.36
344.84	213.76
345.22	213.91
345.60	214.17
345.99	214.39
346.37	214.51
346.75	214.64
347.13	214.69
347.52	214.76
347.90	214.85
348.28	214.89
348.66	215.00
349.05	214.96
349.43	215.03
349.81	215.11
350.19	215.16
350.57	215.23
350.96	215.35
351.34	215.45
351.72	215.54
352.10	215.66
352.48	215.71
352.87	215.76
353.25	215.83
353.63	215.87
354.01	215.91
354.39	215.99
354.77	216.08
355.15	216.24
355.54	216.29
355.92	216.30
356.30	216.38
356.68	216.60
357.06	216.69
357.44	216.74
357.82	216.81
358.20	216.90
358.58	216.99
358.97	217.02
359.35	217.13
359.73	217.28
360.11	217.35
360.49	217.44
360.87	217.50
361.25	217.58
361.63	217.70
362.01	217.74
362.39	217.78
362.77	217.81
363.15	217.83
363.53	217.87
363.91	217.95
364.29	217.98
364.67	217.81
365.05	217.85
365.43	217.90
365.81	217.93
366.19	218.02
366.57	218.13
366.95	218.13
367.33	218.07
367.71	218.04
368.09	218.08
368.47	218.05
368.85	218.06
369.23	218.09
369.61	218.00
369.99	218.06
370.37	218.06
370.75	218.18
371.13	218.12
371.51	218.10
371.89	218.09
372.27	218.05
372.65	218.04
373.03	217.97
373.41	217.90
373.78	217.86
374.16	217.74
374.54	217.60
374.92	217.54
375.30	217.54
375.68	217.47
376.06	217.45
376.44	217.39
376.82	217.37
377.19	217.34
377.57	217.32
377.95	217.21
378.33	217.17
378.71	216.96
379.09	216.96
379.47	216.94
379.84	216.84
380.22	216.78
380.60	216.72
380.98	216.71
381.36	216.65
381.73	216.57
382.11	216.59
382.49	216.54
382.87	216.52
383.25	216.45
383.62	216.66
384.00	216.58
384.38	216.55
384.76	216.54
385.13	216.56
385.51	216.51
385.89	216.45
386.27	216.45
386.64	216.45
387.02	216.35
387.40	216.30
387.78	216.29
388.15	216.29
388.53	216.22
388.91	216.20
389.29	216.16
389.66	216.18
390.04	216.09
390.42	216.14
390.79	216.12
391.17	216.13
391.55	215.88
391.92	215.87
392.30	215.93
392.68	215.88
393.05	215.85
393.43	215.84
393.81	215.86
394.18	215.81
394.56	215.82
394.94	215.89
395.31	215.85
395.69	215.89
396.06	215.91
396.44	215.94
396.82	215.93
397.19	216.07
397.57	216.06
397.95	216.15
398.32	216.12
398.70	216.14
399.07	216.22
399.45	216.24
399.82	216.26
400.20	216.22
400.58	216.30
400.95	216.28
401.33	216.40
401.70	216.58
402.08	216.67
402.45	216.79
402.83	216.93
403.20	217.07
403.58	217.16
403.95	217.31
404.33	217.48
404.71	217.62
405.08	217.90
405.46	218.08
405.83	218.23
406.21	218.40
406.58	218.64
406.96	218.81
407.33	219.09
407.70	219.40
408.08	219.88
408.45	220.20
408.83	220.58
409.20	220.90
409.58	221.18
409.95	221.63
410.33	222.06
410.70	222.44
411.08	222.97
411.45	223.53
411.82	224.10
412.20	224.76
412.57	225.58
412.95	226.09
413.32	226.88
413.69	227.70
414.07	228.58
414.44	229.55
414.82	230.57
415.19	231.70
415.56	232.88
415.94	233.99
416.31	235.35
416.68	236.71
417.06	238.25
417.43	239.71
417.81	241.35
418.18	243.07
418.55	244.94
418.93	246.92
419.30	248.94
419.67	251.08
420.04	253.30
420.42	255.58
420.79	258.31
421.16	261.01
421.54	263.87
421.91	266.80
422.28	269.82
422.66	273.02
423.03	276.16
423.40	279.37
423.77	282.83
424.15	286.35
424.52	290.02
424.89	294.08
425.26	298.03
425.64	301.85
426.01	306.01
426.38	310.37
426.75	314.71
427.13	319.27
427.50	324.01
427.87	329.00
428.24	334.01
428.61	338.85
428.99	344.15
429.36	349.94
429.73	355.58
430.10	361.25
430.47	367.06
430.85	373.11
431.22	379.60
431.59	386.51
431.96	393.10
432.33	400.43
432.70	407.39
433.08	415.57
433.45	423.29
433.82	431.03
434.19	439.63
434.56	448.08
434.93	456.17
435.30	464.20
435.68	473.02
436.05	481.70
436.42	490.24
436.79	498.09
437.16	506.48
437.53	515.42
437.90	524.22
438.27	532.86
438.64	541.75
439.01	549.98
439.38	557.26
439.75	564.38
440.13	572.41
440.50	580.10
440.87	586.31
441.24	592.77
441.61	599.85
441.98	605.00
442.35	611.03
442.72	617.08
443.09	622.86
443.46	626.38
443.83	628.73
444.20	630.89
444.57	633.87
444.94	635.20
445.31	636.57
445.68	637.85
446.05	638.46
446.42	637.66
446.79	636.69
447.16	635.61
447.53	634.70
447.90	631.54
448.27	628.29
448.64	623.85
449.01	620.56
449.37	614.84
449.74	609.29
450.11	602.62
450.48	595.52
450.85	588.35
451.22	582.17
451.59	576.27
451.96	570.61
452.33	563.05
452.70	556.29
453.07	548.09
453.43	539.86
453.80	531.89
454.17	524.24
454.54	516.95
454.91	509.12
455.28	501.57
455.65	494.45
456.02	487.30
456.38	481.18
456.75	473.63
457.12	467.32
457.49	461.11
457.86	455.20
458.23	450.04
458.59	444.37
458.96	438.61
459.33	433.55
459.70	428.38
460.07	424.31
460.43	419.63
460.80	415.28
461.17	411.42
461.54	407.34
461.91	403.45
462.27	399.57
462.64	396.28
463.01	392.66
463.38	389.04
463.74	385.47
464.11	382.35
464.48	379.67
464.85	376.64
465.21	374.26
465.58	371.72
465.95	368.72
466.32	366.18
466.68	363.68
467.05	361.21
467.42	358.77
467.78	356.25
468.15	353.81
468.52	351.96
468.88	349.55
469.25	347.46
469.62	345.74
469.98	343.87
470.35	342.11
470.72	340.44
471.08	338.73
471.45	337.31
471.82	335.89
472.18	334.27
472.55	333.17
472.92	331.90
473.28	330.76
473.65	329.62
474.02	328.64
474.38	327.79
474.75	327.10
475.11	326.34
475.48	325.77
475.85	325.32
476.21	324.84
476.58	324.54
476.94	324.34
477.31	324.10
477.67	323.90
478.04	323.80
478.41	323.81
478.77	324.03
479.14	324.02
479.50	324.15
479.87	324.45
480.23	324.79
480.60	325.03
480.96	325.37
481.33	326.02
481.69	326.59
482.06	327.13
482.42	327.59
482.79	328.20
483.15	328.98
483.52	329.98
483.88	330.94
484.25	331.86
484.61	332.86
484.98	333.90
485.34	335.18
485.71	336.52
486.07	337.94
486.44	339.24
486.80	340.90
487.17	342.56
487.53	344.43
487.90	346.27
488.26	348.32
488.62	350.46
488.99	352.52
489.35	354.69
489.72	357.04
490.08	359.57
490.44	362.12
490.81	364.87
491.17	367.55
491.54	370.55
491.90	373.59
492.26	376.85
492.63	380.28
492.99	383.76
493.36	387.47
493.72	391.40
494.08	395.37
494.45	399.55
494.81	403.91
495.17	408.32
495.54	413.08
495.90	417.90
496.26	422.84
496.63	428.02
496.99	433.35
497.35	438.97
497.72	444.80
498.08	450.69
498.44	456.73
498.80	463.15
499.17	469.54
499.53	476.20
499.89	483.10
500.26	490.03
500.62	497.06
500.98	504.43
501.34	511.82
501.71	519.60
502.07	527.37
502.43	535.29
502.79	543.43
503.16	551.78
503.52	560.24
503.88	568.83
504.24	577.75
504.60	586.82
504.97	596.01
505.33	605.22
505.69	615.13
506.05	625.03
506.41	634.87
506.78	644.96
507.14	655.20
507.50	665.60
507.86	676.25
508.22	687.00
508.59	697.63
508.95	708.64
509.31	719.92
509.67	731.32
510.03	742.73
510.39	754.47
510.75	766.22
511.12	778.04
511.48	790.13
511.84	802.31
512.20	814.55
512.56	827.13
512.92	839.84
513.28	852.39
513.64	865.01
514.00	877.65
514.37	890.50
514.73	903.47
515.09	916.31
515.45	929.07
515.81	942.04
516.17	955.24
516.53	968.36
516.89	981.22
517.25	994.24
517.61	1007.68
517.97	1020.91
518.33	1033.92
518.69	1047.40
519.05	1060.90
519.41	1074.33
519.77	1088.07
520.13	1101.21
520.49	1114.31
520.85	1127.51
521.21	1140.59
521.57	1154.15
521.93	1167.08
522.29	1180.71
522.65	1194.15
523.01	1207.60
523.37	1220.53
523.73	1233.59
524.09	1246.60
524.45	1259.74
524.81	1273.01
525.17	1286.06
525.53	1298.84
525.89	1311.87
526.25	1324.77
526.61	1337.38
526.97	1350.22
527.33	1362.80
527.68	1376.03
528.04	1389.14
528.40	1401.92
528.76	1414.95
529.12	1427.47
529.48	1440.40
529.84	1452.50
530.20	1464.92
530.56	1477.33
530.91	1490.37
531.27	1502.95
531.63	1515.39
531.99	1528.03
532.35	1539.86
532.71	1552.06
533.07	1564.69
533.42	1576.65
533.78	1588.47
534.14	1600.23
534.50	1611.21
534.86	1622.55
535.21	1633.00
535.57	1644.08
535.93	1655.19
536.29	1666.14
536.65	1677.34
537.00	1688.09
537.36	1699.11
537.72	1709.83
538.08	1720.79
538.44	1731.35
538.79	1742.11
539.15	1752.62
539.51	1762.85
539.87	1773.92
540.22	1784.27
540.58	1794.85
540.94	1805.44
541.29	1815.28
541.65	1824.82
542.01	1835.08
542.37	1844.84
542.72	1854.74
543.08	1864.34
543.44	1874.38
543.79	1883.24
544.15	1892.43
544.51	1902.07
544.87	1911.54
545.22	1920.35
545.58	1928.90
545.94	1937.51
546.29	1945.79
546.65	1954.03
547.01	1962.04
547.36	1969.45
547.72	1977.06
548.07	1984.49
548.43	1992.02
548.79	1999.77
549.14	2007.56
549.50	2015.68
549.86	2023.21
550.21	2030.44
550.57	2037.86
550.92	2044.43
551.28	2051.73
551.64	2058.72
551.99	2065.97
552.35	2072.91
552.70	2079.49
553.06	2086.10
553.41	2092.17
553.77	2098.41
554.13	2104.63
554.48	2111.60
554.84	2118.57
555.19	2124.88
555.55	2131.22
555.90	2137.33
556.26	2143.88
556.61	2149.84
556.97	2154.60
557.32	2160.38
557.68	2166.71
558.03	2172.27
558.39	2177.55
558.74	2183.47
559.10	2189.00
559.45	2194.59
559.81	2200.10
560.16	2205.73
560.52	2211.68
560.87	2218.16
561.23	2224.25
561.58	2230.80
561.94	2235.89
562.29	2240.72
562.64	2246.95
563.00	2252.44
563.35	2258.08
563.71	2264.06
564.06	2269.65
564.42	2275.74
564.77	2280.93
565.12	2285.97
565.48	2291.40
565.83	2297.06
566.19	2302.78
566.54	2308.33
566.89	2313.02
567.25	2317.79
567.60	2323.64
567.96	2328.69
568.31	2333.27
568.66	2337.60
569.02	2341.48
569.37	2345.35
569.72	2349.77
570.08	2353.29
570.43	2356.55
570.78	2359.65
571.14	2362.33
571.49	2365.56
571.84	2369.11
572.20	2372.02
572.55	2375.39
572.90	2377.67
573.26	2380.66
573.61	2383.11
573.96	2385.29
574.31	2387.30
574.67	2389.24
575.02	2390.26
575.37	2391.83
575.72	2392.76
576.08	2394.36
576.43	2394.83
576.78	2395.65
577.13	2397.64
577.49	2398.87
577.84	2400.34
578.19	2402.07
578.54	2402.84
578.90	2404.04
579.25	2404.12
579.60	2404.51
579.95	2403.92
580.30	2404.39
580.66	2403.85
581.01	2402.25
581.36	2400.32
581.71	2399.30
582.06	2398.46
582.42	2397.94
582.77	2396.02
583.12	2394.59
583.47	2393.57
583.82	2393.17
584.17	2391.97
584.53	2389.80
584.88	2387.97
585.23	2386.19
585.58	2384.01
585.93	2381.90
586.28	2379.93
586.63	2377.80
586.98	2375.71
587.34	2374.10
587.69	2371.93
588.04	2370.03
588.39	2368.90
588.74	2366.55
589.09	2364.11
589.44	2361.19
589.79	2358.86
590.14	2357.27
590.49	2354.64
590.84	2351.07
591.19	2348.17
591.54	2345.16
591.89	2341.27
592.25	2338.30
592.60	2334.26
592.95	2330.25
593.30	2326.36
593.65	2322.09
594.00	2317.64
594.35	2314.67
594.70	2310.04
595.05	2305.46
595.40	2300.11
595.75	2294.63
596.10	2291.11
596.45	2286.31
596.80	2281.94
597.15	2276.71
597.50	2270.88
597.85	2265.96
598.19	2260.62
598.54	2254.97
598.89	2250.06
599.24	2245.71
599.59	2239.69
599.94	2234.19
600.29	2228.35
600.64	2222.68
600.99	2216.01
601.34	2210.80
601.69	2203.88
602.04	2197.48
602.39	2190.98
602.74	2185.21
603.08	2179.74
603.43	2173.17
603.78	2166.48
604.13	2159.16
604.48	2152.03
604.83	2145.94
605.18	2139.73
605.53	2132.88
605.87	2125.79
606.22	2119.03
606.57	2111.16
606.92	2103.38
607.27	2096.41
607.62	2090.00
607.96	2083.00
608.31	2076.56
608.66	2068.76
609.01	2061.20
609.36	2054.29
609.70	2046.58
610.05	2038.84
610.40	2030.68
610.75	2022.59
611.10	2015.12
611.44	2006.71
611.79	1998.12
612.14	1988.04
612.49	1977.68
612.83	1968.40
613.18	1959.46
613.53	1950.01
613.88	1940.53
614.22	1931.90
614.57	1921.90
614.92	1911.36
615.27	1901.25
615.61	1891.35
615.96	1881.70
616.31	1872.23
616.65	1862.94
617.00	1853.15
617.35	1843.39
617.70	1833.61
618.04	1823.51
618.39	1812.92
618.74	1803.18
619.08	1793.49
619.43	1784.89
619.78	1776.66
620.12	1767.99
620.47	1758.13
620.82	1747.88
621.16	1738.16
621.51	1728.22
621.85	1718.44
622.20	1707.88
622.55	1697.25
622.89	1687.31
623.24	1677.70
623.59	1667.93
623.93	1657.73
624.28	1648.10
624.62	1638.15
624.97	1627.77
625.32	1618.15
625.66	1609.47
626.01	1600.54
626.35	1591.12
626.70	1580.90
627.04	1570.70
627.39	1560.74
627.73	1551.39
628.08	1542.34
628.43	1532.70
628.77	1523.42
629.12	1514.60
629.46	1506.73
629.81	1498.20
630.15	1488.63
630.50	1478.82
630.84	1468.30
631.19	1458.46
631.53	1448.99
631.88	1438.66
632.22	1428.64
632.57	1419.19
632.91	1408.96
633.26	1399.05
633.60	1389.42
633.95	1380.18
634.29	1370.73
634.64	1361.33
634.98	1351.52
635.32	1342.31
635.67	1333.65
636.01	1324.45
636.36	1314.53
636.70	1305.06
637.05	1295.71
637.39	1286.61
637.73	1277.83
638.08	1270.29
638.42	1261.92
638.77	1253.19
639.11	1244.82
639.45	1236.93
639.80	1228.31
640.14	1219.67
640.49	1210.90
640.83	1202.20
641.17	1194.11
641.52	1185.89
641.86	1177.16
642.20	1169.33
642.55	1160.69
642.89	1151.82
643.23	1143.06
643.58	1135.00
643.92	1125.93
644.26	1117.38
644.61	1108.93
644.95	1100.27
645.29	1090.90
645.64	1081.73
645.98	1073.35
646.32	1065.50
646.66	1057.03
647.01	1048.59
647.35	1040.49
647.69	1031.96
648.04	1023.60
648.38	1014.64
648.72	1005.87
649.06	997.49
649.41	989.28
649.75	981.26
650.09	973.47
650.43	965.43
650.78	957.18
651.12	949.53
651.46	942.12
651.80	934.88
652.14	927.55
652.49	920.12
652.83	912.87
653.17	905.08
653.51	897.44
653.85	890.19
654.20	882.96
654.54	875.29
654.88	868.32
655.22	861.13
655.56	854.18
655.90	847.43
656.25	840.84
656.59	833.81
656.93	826.81
657.27	819.73
657.61	812.96
657.95	806.91
658.29	801.05
658.64	794.87
658.98	788.48
659.32	782.00
659.66	775.83
660.00	769.44
660.34	763.50
660.68	757.46
661.02	751.26
661.36	745.40
661.70	739.77
662.05	734.10
662.39	728.64
662.73	723.32
663.07	718.00
663.41	712.48
663.75	706.93
664.09	701.33
664.43	696.00
664.77	690.56
665.11	684.69
665.45	678.83
665.79	673.11
666.13	667.51
666.47	662.03
666.81	656.63
667.15	651.34
667.49	646.14
667.83	640.96
668.17	635.80
668.51	630.75
668.85	625.87
669.19	620.96
669.53	616.03
669.87	610.96
670.21	606.19
670.55	601.52
670.89	597.17
671.23	593.01
671.57	588.65
671.91	584.37
672.25	580.41
672.58	576.32
672.92	572.31
673.26	568.41
673.60	564.64
673.94	560.88
674.28	557.26
674.62	553.51
674.96	549.80
675.30	546.26
675.64	542.70
675.97	539.15
676.31	535.58
676.65	531.98
676.99	528.61
677.33	524.86
677.67	521.24
678.01	517.39
678.34	513.76
678.68	510.29
679.02	506.75
679.36	503.06
679.70	499.47
680.04	496.00
680.37	492.61
680.71	489.32
681.05	486.16
681.39	483.02
681.73	479.93
682.06	476.99
682.40	473.97
682.74	470.78
683.08	467.59
683.42	464.51
683.75	461.64
684.09	458.64
684.43	455.90
684.77	453.01
685.10	450.23
685.44	447.34
685.78	444.48
686.12	441.81
686.45	439.17
686.79	436.57
687.13	434.07
687.46	431.48
687.80	428.85
688.14	426.08
688.48	423.52
688.81	420.88
689.15	418.32
689.49	415.72
689.82	413.27
690.16	410.76
690.50	408.37
690.83	405.85
691.17	403.35
691.51	400.97
691.84	398.78
692.18	396.62
692.52	394.42
692.85	392.30
693.19	390.16
693.52	387.97
693.86	385.76
694.20	383.59
694.53	381.55
694.87	379.40
695.21	377.35
695.54	375.23
695.88	373.14
696.21	370.98
696.55	368.93
696.88	366.89
697.22	364.97
697.56	363.11
697.89	361.28
698.23	359.60
698.56	357.82
698.90	356.04
699.23	354.15
699.57	352.35
699.90	350.57
700.24	348.84
700.58	347.13
700.91	345.59
701.25	344.09
701.58	342.45
701.92	340.89
702.25	339.31
702.59	337.74
702.92	336.29
703.26	334.79
703.59	333.37
703.93	332.12
704.26	330.72
704.60	329.22
704.93	327.80
705.26	326.33
705.60	324.87
705.93	323.45
706.27	322.17
706.60	320.96
706.94	319.79
707.27	318.42
707.61	317.14
707.94	315.78
708.27	314.30
708.61	312.91
708.94	311.58
709.28	310.32
709.61	309.11
709.94	307.90
710.28	306.70
710.61	305.51
710.95	304.13
711.28	303.09
711.61	301.94
711.95	300.84
712.28	299.68
712.61	298.53
712.95	297.51
713.28	296.55
713.61	295.41
713.95	294.22
714.28	293.22
714.61	292.18
714.95	291.19
715.28	290.20
715.61	289.20
715.95	288.29
716.28	287.35
716.61	286.43
716.95	285.43
717.28	284.58
717.61	283.66
717.94	282.82
718.28	281.83
718.61	281.01
718.94	280.11
719.27	279.27
719.61	278.48
719.94	277.60
720.27	276.63
720.60	275.84
720.94	275.11
721.27	274.39
721.60	273.75
721.93	273.07
722.27	272.45
722.60	271.84
722.93	271.17
723.26	270.53
723.59	269.81
723.93	269.21
724.26	268.55
724.59	267.95
724.92	267.37
725.25	266.87
725.59	266.29
725.92	265.77
726.25	265.22
726.58	264.65
726.91	264.11
727.24	263.59
727.57	263.04
727.91	262.43
728.24	261.92
728.57	261.34
728.90	260.79
729.23	260.16
729.56	259.75
729.89	259.20
730.22	258.64
730.55	258.14
730.89	257.65
731.22	257.16
731.55	256.64
731.88	256.13
732.21	255.54
732.54	255.00
732.87	254.53
733.20	254.05
733.53	253.59
733.86	253.16
734.19	252.66
734.52	252.26
734.85	252.02
735.18	251.55
735.51	251.16
735.84	250.77
736.17	250.44
736.50	249.91
736.83	249.80
737.16	249.43
737.49	249.03
737.82	248.64
738.15	248.27
738.48	247.89
738.81	247.51
739.14	247.11
739.47	246.73
739.80	246.38
740.13	246.07
740.46	245.67
740.79	245.26
741.12	244.94
741.45	244.56
741.78	244.06
742.11	243.77
742.44	243.41
742.77	243.09
743.10	242.75
743.43	242.39
743.75	241.81
744.08	241.73
744.41	241.42
744.74	241.07
745.07	240.73
745.40	240.44
745.73	240.20
746.06	239.93
746.39	239.69
746.71	239.33
747.04	238.98
747.37	238.66
747.70	238.40
748.03	238.11
748.36	237.82
748.68	237.53
749.01	237.20
749.34	236.92
749.67	236.63
750.00	236.34
750.33	236.25
750.65	235.99
750.98	235.51
751.31	235.28
751.64	235.09
751.97	234.93
752.29	234.70
752.62	234.36
752.95	234.11
753.28	233.86
753.60	233.66
753.93	233.47
754.26	233.31
754.59	233.09
754.91	232.84
755.24	232.64
755.57	232.39
755.90	232.14
756.22	231.92
756.55	231.70
756.88	231.47
757.20	231.12
757.53	230.89
757.86	230.68
758.19	230.49
758.51	230.27
758.84	229.97
759.17	229.76
759.49	229.63
759.82	229.53
760.15	229.34
760.47	229.15
760.80	228.92
761.13	228.77
761.45	228.52
761.78	228.36
762.11	228.18
762.43	228.01
762.76	227.85
763.08	227.72
763.41	227.56
763.74	227.43
764.06	227.29
764.39	227.12
764.71	226.95
765.04	226.79
765.37	226.64
765.69	226.51
766.02	226.36
766.34	226.19
766.67	226.00
767.00	225.91
767.32	225.87
767.65	225.91
767.97	225.75
768.30	225.65
768.62	225.54
768.95	225.44
769.27	225.35
769.60	225.27
769.92	225.09
770.25	224.93
770.57	224.75
770.90	224.65
771.22	224.53
771.55	224.42
771.87	224.32
772.20	224.17
772.52	224.24
772.85	224.37
773.17	224.27
773.50	224.15
773.82	224.01
774.15	223.81
774.47	223.55
774.80	223.43
775.12	223.36
775.45	223.25
775.77	223.12
776.09	223.06
776.42	222.98
776.74	222.98
777.07	222.88
777.39	222.89
777.72	222.79
778.04	222.74
778.36	222.63
778.69	222.58
779.01	222.55
779.33	222.32
779.66	222.01
779.98	221.91
780.31	221.86
780.63	221.85
780.95	221.82
781.28	221.78
781.60	221.72
781.92	221.65
782.25	221.58
782.57	221.51
782.89	221.42
783.22	221.34
783.54	221.23
783.86	221.20
784.19	221.08
784.51	221.04
784.83	220.96
785.16	220.97
785.48	220.88
785.80	220.80
786.12	220.72
786.45	220.69
786.77	220.67
787.09	220.60
787.42	220.49
787.74	220.43
788.06	220.36
788.38	220.30
788.71	220.22
789.03	220.21
789.35	220.22
789.67	220.14
789.99	220.12
790.32	220.04
790.64	220.01
790.96	220.13
791.28	220.01
791.61	219.95
791.93	219.89
792.25	219.80
792.57	219.91
792.89	219.82
793.21	219.79
793.54	219.73
793.86	219.66
794.18	219.64
794.50	219.58
794.82	219.55
795.14	219.51
795.47	219.51
795.79	219.45
796.11	219.35
796.43	219.32
796.75	219.24
797.07	219.19
797.39	219.12
797.71	218.94
798.04	218.92
798.36	218.91
798.68	218.87
799.00	218.89
799.32	218.77
799.64	218.76
799.96	218.72
800.28	218.71
800.60	218.66
800.92	218.63
801.24	218.60
801.56	218.56
801.89	218.51
802.21	218.46
802.53	218.40
802.85	218.41
803.17	218.48
803.49	218.42
803.81	218.41
804.13	218.40
804.45	218.32
804.77	218.34
805.09	218.30
805.41	218.24
805.73	218.15
806.05	218.07
806.37	218.05
806.69	218.02
807.01	218.01
807.33	218.02
807.65	217.95
807.97	218.00
808.28	217.97
808.60	217.98
808.92	217.97
809.24	218.07
809.56	218.00
809.88	217.87
810.20	217.87
810.52	217.87
810.84	217.80
811.16	217.78
811.48	217.74
811.80	217.76
812.12	217.74
812.43	217.75
812.75	217.75
813.07	217.72
813.39	217.66
813.71	217.56
814.03	217.47
814.35	217.42
814.67	217.28
814.98	217.24
815.30	217.18
815.62	217.09
815.94	216.94
816.26	216.95
816.58	216.90
816.89	216.91
817.21	216.84
817.53	216.85
817.85	216.82
818.17	216.80
818.48	216.71
818.80	216.72
819.12	216.69
819.44	216.61
819.76	216.56
820.07	216.59
820.39	216.59
820.71	216.60
821.03	216.58
821.34	216.59
821.66	216.60
821.98	216.62
822.30	216.61
822.61	216.72
822.93	216.67
823.25	216.69
823.57	216.63
823.88	216.68
824.20	216.68
824.52	216.73
824.83	216.69
825.15	216.69
825.47	216.66
825.79	216.66
826.10	216.65
826.42	216.61
826.74	216.60
827.05	216.60
827.37	216.62
827.69	216.63
828.00	216.64
828.32	216.64
828.64	216.61
828.95	216.71
829.27	216.64
829.58	216.64
829.90	216.63
830.22	216.62
830.53	216.53
830.85	216.48
831.17	216.41
831.48	216.40
831.80	216.38
832.11	216.40
832.43	216.34
832.75	216.33
833.06	216.46
833.38	216.38
833.69	216.35
834.01	216.38
834.32	216.34
834.64	216.30
834.96	216.27
835.27	216.28
835.59	216.19
835.90	216.15
836.22	216.13
836.53	216.11
836.85	216.10
837.16	216.35
837.48	216.32
837.79	216.40
838.11	216.42
838.42	216.39
838.74	216.37
839.05	216.37
839.37	216.39
839.68	216.24
840.00	216.24
840.31	216.26
840.63	216.20
840.94	216.18
841.26	216.16
841.57	216.15
841.88	216.12
842.20	216.06
842.51	216.03
842.83	216.01
843.14	216.16
843.46	216.18
843.77	216.02
844.08	216.03
844.40	215.92
844.71	215.89
845.03	215.89
845.34	215.89
845.65	215.86
845.97	215.84
846.28	215.87
846.60	215.88
846.91	215.83
847.22	215.81
847.54	215.84
847.85	215.84
848.16	215.79
848.48	215.76
848.79	215.84
849.10	215.86
849.42	215.88
849.73	215.69
850.04	215.63
850.36	215.55
850.67	215.57
850.98	215.59
851.30	215.58
851.61	215.58
851.92	215.60
852.23	215.64
852.55	215.64
852.86	215.62
853.17	215.63
853.49	215.70
853.80	215.73
854.11	215.74
854.42	215.79
854.74	215.78
855.05	215.77
855.36	215.70
855.67	215.73
855.99	215.70
856.30	215.96
856.61	216.01
856.92	216.01
857.23	216.01
857.55	215.99
857.86	215.96
858.17	215.99
858.48	215.93
858.79	215.93
859.11	215.95
859.42	215.94
859.73	215.92
860.04	215.87
860.35	215.82
860.66	215.74
860.98	215.71
861.29	215.72
861.60	215.72
861.91	215.76
862.22	215.69
862.53	215.67
862.84	215.43
863.16	215.44
863.47	215.43
863.78	215.38
864.09	215.40
864.40	215.44
864.71	215.42
865.02	215.41
865.33	215.37
865.64	215.33
865.95	215.33
866.27	215.47
866.58	215.49
866.89	215.52
867.20	215.53
867.51	215.47
867.82	215.49
868.13	215.55
868.44	215.50
868.75	215.55
869.06	215.57
869.37	215.58
869.68	215.49
869.99	215.49
870.30	215.52
870.61	215.53
870.92	215.50
871.23	215.49
871.54	215.52
871.85	215.54
872.16	215.56
872.47	215.51
872.78	215.38
873.09	215.39
873.40	215.36
873.71	215.39
874.02	215.41
874.33	215.36
874.64	215.31
874.95	215.32
875.26	215.26
875.56	215.23
875.87	215.25
876.18	215.28
876.49	215.46
876.80	215.44
877.11	215.42
877.42	215.43
877.73	215.42
878.04	215.38
878.35	215.40
878.66	215.41
878.96	215.41
879.27	215.38
879.58	215.33
879.89	215.35
880.20	215.39
880.51	215.39
880.82	215.39
881.12	215.41
881.43	215.39
881.74	215.35
882.05	215.33
882.36	215.32
882.67	215.34
882.97	215.14
883.28	215.12
883.59	215.10
883.90	215.11
884.21	215.12
884.51	215.14
884.82	215.10
885.13	215.10
885.44	215.12
885.74	215.14
886.05	215.14
886.36	215.13
886.67	215.07
886.98	215.17
887.28	215.20
887.59	215.18
887.90	215.19
888.20	215.22
888.51	215.29
888.82	215.28
889.13	215.29
889.43	215.47
889.74	215.44
890.05	215.46
890.35	215.43
890.66	215.38
890.97	215.36
891.28	215.37
891.58	215.38
891.89	215.39
892.20	215.40
892.50	215.37
892.81	215.37
893.12	215.38
893.42	215.27
893.73	215.28
894.04	215.29
894.34	215.30
894.65	215.30
894.95	215.27
895.26	215.27
895.57	215.31
895.87	215.12
896.18	215.15
896.48	215.16
896.79	215.18
897.10	215.23
897.40	215.22
897.71	215.23
898.01	215.21
898.32	215.23
898.63	215.21
898.93	215.26
899.24	215.24
899.54	215.19
899.85	215.20
900.15	215.17
900.46	215.19
900.76	215.17
901.07	215.19
901.38	215.17
901.68	215.17
901.99	215.11
902.29	215.11
902.60	215.08
902.90	215.07
903.21	215.05
903.51	215.04
903.82	215.06
904.12	215.04
904.43	215.05
904.73	215.01
905.03	215.03
905.34	215.21
905.64	215.21
905.95	215.23
906.25	215.23
906.56	215.23
906.86	215.22
907.17	215.24
907.47	215.23
907.77	215.22
908.08	215.22
908.38	215.22
908.69	215.25
908.99	215.29
909.30	215.29
909.60	215.30
909.90	215.27
910.21	215.23
910.51	215.18
910.81	215.19
911.12	215.23
911.42	215.21
911.73	215.02
912.03	215.02
912.33	215.07
912.64	215.06
912.94	215.02
913.24	214.98
913.55	214.98
913.85	214.97
914.15	215.00
914.46	215.03
914.76	215.02
915.06	214.97
915.37	214.96
915.67	214.94
915.97	214.97
916.27	214.98
916.58	215.00
916.88	215.02
917.18	214.99
917.49	215.10
917.79	215.07
918.09	215.06
918.39	215.08
918.70	215.07
919.00	215.07
919.30	215.17
919.60	215.15
919.91	215.08
920.21	215.10
920.51	215.04
920.81	215.00
921.12	215.03
921.42	215.08
921.72	215.07
922.02	215.10
922.32	215.09
922.63	215.09
922.93	215.19
923.23	215.21
923.53	215.21
923.83	215.09
924.13	215.11
924.44	215.13
924.74	215.20
925.04	215.26
925.34	215.27
925.64	215.19
925.94	215.16
926.24	215.29
926.55	215.25
926.85	215.29
927.15	215.27
927.45	215.27
927.75	215.22
928.05	215.22
928.35	215.19
928.65	215.23
928.95	215.22
929.26	215.16
929.56	215.18
929.86	215.17
930.16	215.14
930.46	215.13
930.76	215.14
931.06	215.04
931.36	214.99
931.66	215.01
931.96	215.06
932.26	215.11
932.56	215.04
932.86	215.07
933.16	215.07
933.46	215.06
933.76	215.06
934.06	215.13
934.36	215.19
934.66	215.21
934.96	215.18
935.26	215.18
935.56	215.17
935.86	215.13
936.16	215.12
936.46	215.11
936.76	215.12
937.06	215.07
937.36	215.05
937.66	215.07
937.96	215.05
938.26	215.00
938.56	214.98
938.86	214.99
939.16	215.03
939.46	215.03
939.76	215.06
940.06	215.04
940.35	214.99
940.65	214.89
940.95	214.91
941.25	214.85
941.55	214.85
941.85	214.85
942.15	214.87
942.45	214.93
942.75	214.93
943.04	214.94
943.34	214.98
943.64	214.97
943.94	214.91
944.24	214.89
944.54	214.90
944.84	214.89
945.13	214.84
945.43	214.80
945.73	214.77
946.03	214.76
946.33	214.71
946.62	214.69
946.92	214.69
947.22	214.68
947.52	214.71
947.82	214.73
948.11	214.69
948.41	214.65
948.71	214.57
949.01	214.58
949.31	214.52
949.60	214.51
949.90	214.55
950.20	214.56
950.50	214.57
950.79	214.56
951.09	214.60
951.39	214.62
951.69	214.62
951.98	214.67
952.28	214.67
952.58	214.68
952.87	214.67
953.17	214.70
953.47	214.69
953.76	214.67
954.06	214.63
954.36	214.61
954.66	214.64
954.95	214.71
955.25	214.70
955.55	214.73
955.84	214.71
956.14	214.69
956.44	214.67
956.73	214.63
957.03	214.63
957.32	214.62
957.62	214.58
957.92	214.59
958.21	214.57
958.51	214.80
958.81	214.83
959.10	214.86
959.40	214.86
959.69	214.89
959.99	214.96
960.29	214.96
960.58	214.99
960.88	215.05
961.17	215.02
961.47	215.02
961.76	215.01
962.06	215.04
962.36	215.06
962.65	215.12
962.95	215.13
963.24	215.10
963.54	215.12
963.83	215.16
964.13	215.14
964.42	215.12
964.72	214.95
965.01	214.94
965.31	214.92
965.60	214.89
965.90	215.00
966.19	214.95
966.49	214.96
966.78	214.93
967.08	214.91
967.37	214.93
967.67	214.89
967.96	214.92
968.26	214.92
968.55	214.95
968.85	214.92
969.14	214.93
969.43	214.93
969.73	214.91
970.02	214.87
970.32	214.87
970.61	214.85
970.91	214.82
971.20	214.82
971.49	214.79
971.79	214.84
972.08	214.72
972.38	214.70
972.67	214.69
972.96	214.73
973.26	214.70
973.55	214.76
973.85	214.78
974.14	214.77
974.43	214.79
974.73	214.75
975.02	214.77
975.31	214.77
975.61	214.79
975.90	214.80
976.19	214.80
976.49	214.80
976.78	214.80
977.07	214.80
977.37	214.77
977.66	214.82
977.95	214.79
978.24	214.79
978.54	214.84
978.83	214.81
979.12	214.80
979.42	214.79
979.71	214.74
980.00	214.76
980.29	214.78
980.59	214.73
980.88	214.78
981.17	214.76
981.46	214.78
981.76	214.76
982.05	214.82
982.34	214.85
982.63	214.84
982.93	214.86
983.22	214.88
983.51	214.88
983.80	214.90
984.09	214.91
984.39	214.90
984.68	214.89
984.97	214.92
985.26	214.92
985.55	214.93
985.85	214.89
986.14	214.92
986.43	214.94
986.72	214.95
987.01	214.87
987.30	214.86
987.59	214.81
987.89	214.80
988.18	214.73
988.47	214.72
988.76	214.72
989.05	214.69
989.34	214.68
989.63	214.75
989.92	214.72
990.22	214.71
990.51	214.68
990.80	214.66
991.09	214.67
991.38	214.69
991.67	214.68
991.96	214.68
992.25	214.68
992.54	214.62
992.83	214.59
993.12	214.63
993.41	214.66
993.70	214.77
993.99	214.80
994.28	214.81
994.58	214.81
994.87	214.78
995.16	214.83
995.45	214.79
995.74	214.73
996.03	214.74
996.32	214.76
996.61	214.81
996.90	214.82
997.19	214.79
997.48	214.75
997.77	214.74
998.06	214.78
998.34	214.76
998.63	214.77
998.92	214.78
999.21	214.78
999.50	214.80
999.79	214.71
1000.08	214.73
1000.37	214.79
1000.66	214.80
1000.95	214.84
1001.24	214.81
1001.53	214.85
1001.82	214.84
1002.11	214.81
1002.40	214.85
1002.68	214.91
1002.97	215.04
1003.26	215.03
1003.55	215.03
1003.84	215.05
1004.13	215.08
1004.42	215.09
1004.71	215.09
1004.99	215.08
1005.28	215.11
1005.57	215.10
1005.86	215.13
1006.15	215.11
1006.44	215.06
1006.72	215.09
1007.01	215.08
1007.30	215.09
1007.59	215.07
1007.88	215.08
1008.17	215.10
1008.45	215.04
1008.74	214.96
1009.03	214.85
1009.32	214.85
1009.60	214.88
1009.89	214.84
1010.18	214.77
1010.47	214.75
1010.76	214.75
1011.04	214.75
1011.33	214.88
1011.62	214.86
1011.91	214.83
1012.19	214.85
1012.48	214.84
1012.77	214.83
1013.05	214.90
1013.34	214.91
1013.63	214.88
1013.92	214.89
1014.20	214.85
1014.49	214.88
1014.78	214.91
1015.06	214.87
1015.35	214.89
1015.64	214.89
1015.92	214.92
1016.21	214.91
1016.50	214.91
1016.78	214.93
1017.07	214.96
1017.36	214.80
1017.64	214.78
1017.93	214.82
1018.22	214.80
1018.50	214.80
1018.79	214.78
1019.08	214.71
1019.36	214.71
1019.65	214.70
1019.93	214.78
1020.22	214.83
1020.51	214.91
1020.79	214.85
1021.08	215.04
1021.36	214.47
1021.65	214.69
1021.94	214.92
1022.22	214.90
1022.51	213.91
1022.79	216.24
1023.08	215.10
1023.36	217.02
1023.65	214.10
>>>>>End Processed Spectral Data<<<<<
