SpectraSuite Data File
++++++++++++++++++++++++++++++++++++
Date: Tue Jan 29 16:47:32 EST 2013
User: group
Dark Spectrum Present: No
Reference Spectrum Present: No
Number of Sampled Component Spectra: 1
Spectrometers: USB2E7196
Integration Time (usec): 65000 (USB2E7196)
Spectra Averaged: 100 (USB2E7196)
Boxcar Smoothing: 10 (USB2E7196)
Correct for Electrical Dark: No (USB2E7196)
Strobe/Lamp Enabled: No (USB2E7196)
Correct for Detector Non-linearity: No (USB2E7196)
Correct for Stray Light: No (USB2E7196)
Number of Pixels in Processed Spectrum: 2048
>>>>>Begin Processed Spectral Data<<<<<
339.09	0.00
339.48	201.63
339.86	203.17
340.24	204.30
340.63	206.04
341.01	209.98
341.39	208.51
341.78	209.47
342.16	211.60
342.54	211.78
342.93	200.88
343.31	211.03
343.69	211.57
344.07	212.02
344.46	212.47
344.84	212.84
345.22	213.06
345.60	213.35
345.99	213.60
346.37	213.72
346.75	213.84
347.13	213.92
347.52	214.00
347.90	214.15
348.28	214.19
348.66	214.28
349.05	214.23
349.43	214.31
349.81	214.37
350.19	214.41
350.57	214.49
350.96	214.58
351.34	214.68
351.72	214.79
352.10	214.90
352.48	214.98
352.87	215.06
353.25	215.11
353.63	215.14
354.01	215.18
354.39	215.27
354.77	215.33
355.15	215.47
355.54	215.50
355.92	215.46
356.30	215.52
356.68	215.70
357.06	215.81
357.44	215.84
357.82	215.91
358.20	216.00
358.58	216.02
358.97	216.07
359.35	216.20
359.73	216.30
360.11	216.33
360.49	216.41
360.87	216.44
361.25	216.49
361.63	216.63
362.01	216.69
362.39	216.71
362.77	216.77
363.15	216.78
363.53	216.84
363.91	216.91
364.29	216.93
364.67	216.76
365.05	216.79
365.43	216.83
365.81	216.87
366.19	216.95
366.57	217.05
366.95	217.06
367.33	216.99
367.71	216.98
368.09	217.02
368.47	217.04
368.85	217.03
369.23	217.08
369.61	216.98
369.99	217.02
370.37	217.06
370.75	217.16
371.13	217.11
371.51	217.05
371.89	217.03
372.27	217.06
372.65	217.06
373.03	217.03
373.41	216.99
373.78	216.92
374.16	216.79
374.54	216.69
374.92	216.66
375.30	216.62
375.68	216.55
376.06	216.55
376.44	216.49
376.82	216.47
377.19	216.41
377.57	216.38
377.95	216.26
378.33	216.16
378.71	215.97
379.09	215.98
379.47	215.93
379.84	215.87
380.22	215.78
380.60	215.70
380.98	215.63
381.36	215.59
381.73	215.54
382.11	215.56
382.49	215.52
382.87	215.45
383.25	215.42
383.62	215.59
384.00	215.50
384.38	215.44
384.76	215.43
385.13	215.53
385.51	215.46
385.89	215.43
386.27	215.44
386.64	215.43
387.02	215.35
387.40	215.33
387.78	215.29
388.15	215.32
388.53	215.28
388.91	215.27
389.29	215.21
389.66	215.21
390.04	215.15
390.42	215.19
390.79	215.16
391.17	215.14
391.55	214.91
391.92	214.90
392.30	214.94
392.68	214.90
393.05	214.83
393.43	214.85
393.81	214.83
394.18	214.80
394.56	214.84
394.94	214.91
395.31	214.87
395.69	214.94
396.06	214.96
396.44	214.98
396.82	214.99
397.19	215.11
397.57	215.13
397.95	215.19
398.32	215.12
398.70	215.18
399.07	215.30
399.45	215.34
399.82	215.39
400.20	215.42
400.58	215.46
400.95	215.42
401.33	215.52
401.70	215.76
402.08	215.84
402.45	215.92
402.83	216.04
403.20	216.20
403.58	216.30
403.95	216.45
404.33	216.65
404.71	216.83
405.08	217.10
405.46	217.26
405.83	217.43
406.21	217.67
406.58	217.91
406.96	218.11
407.33	218.40
407.70	218.71
408.08	219.17
408.45	219.56
408.83	219.97
409.20	220.34
409.58	220.60
409.95	221.08
410.33	221.56
410.70	221.99
411.08	222.52
411.45	223.06
411.82	223.63
412.20	224.29
412.57	225.12
412.95	225.68
413.32	226.54
413.69	227.41
414.07	228.34
414.44	229.33
414.82	230.34
415.19	231.50
415.56	232.67
415.94	233.86
416.31	235.28
416.68	236.70
417.06	238.27
417.43	239.84
417.81	241.60
418.18	243.42
418.55	245.38
418.93	247.40
419.30	249.52
419.67	251.76
420.04	254.08
420.42	256.47
420.79	259.32
421.16	262.14
421.54	265.03
421.91	267.98
422.28	271.10
422.66	274.43
423.03	277.70
423.40	281.07
423.77	284.69
424.15	288.35
424.52	292.22
424.89	296.47
425.26	300.56
425.64	304.43
426.01	308.70
426.38	313.18
426.75	317.74
427.13	322.54
427.50	327.57
427.87	332.75
428.24	338.02
428.61	343.00
428.99	348.48
429.36	354.50
429.73	360.44
430.10	366.33
430.47	372.40
430.85	378.77
431.22	385.52
431.59	392.66
431.96	399.48
432.33	407.02
432.70	414.25
433.08	422.79
433.45	430.89
433.82	438.96
434.19	447.86
434.56	456.65
434.93	464.95
435.30	473.26
435.68	482.50
436.05	491.48
436.42	500.41
436.79	508.65
437.16	517.48
437.53	526.82
437.90	535.96
438.27	544.89
438.64	554.14
439.01	562.70
439.38	570.25
439.75	577.61
440.13	586.04
440.50	594.04
440.87	600.53
441.24	607.24
441.61	614.64
441.98	620.08
442.35	626.37
442.72	632.76
443.09	638.84
443.46	642.60
443.83	645.17
444.20	647.44
444.57	650.59
444.94	652.07
445.31	653.57
445.68	655.06
446.05	655.74
446.42	654.99
446.79	654.05
447.16	653.06
447.53	652.39
447.90	649.09
448.27	645.83
448.64	641.17
449.01	637.82
449.37	631.91
449.74	626.21
450.11	619.34
450.48	611.92
450.85	604.45
451.22	597.94
451.59	591.75
451.96	585.84
452.33	577.95
452.70	570.79
453.07	562.27
453.43	553.59
453.80	545.27
454.17	537.18
454.54	529.65
454.91	521.39
455.28	513.32
455.65	505.81
456.02	498.28
456.38	491.90
456.75	484.03
457.12	477.36
457.49	470.85
457.86	464.59
458.23	459.18
458.59	453.19
458.96	447.10
459.33	441.73
459.70	436.39
460.07	432.12
460.43	427.20
460.80	422.56
461.17	418.55
461.54	414.34
461.91	410.33
462.27	406.12
462.64	402.71
463.01	398.89
463.38	395.21
463.74	391.47
464.11	388.23
464.48	385.35
464.85	382.24
465.21	379.77
465.58	377.13
465.95	373.97
466.32	371.31
466.68	368.71
467.05	366.12
467.42	363.50
467.78	360.78
468.15	358.18
468.52	356.25
468.88	353.75
469.25	351.51
469.62	349.69
469.98	347.73
470.35	345.87
470.72	344.16
471.08	342.32
471.45	340.77
471.82	339.18
472.18	337.44
472.55	336.20
472.92	334.80
473.28	333.62
473.65	332.46
474.02	331.36
474.38	330.45
474.75	329.63
475.11	328.82
475.48	328.22
475.85	327.76
476.21	327.24
476.58	326.85
476.94	326.60
477.31	326.26
477.67	325.98
478.04	325.79
478.41	325.75
478.77	325.93
479.14	325.87
479.50	326.01
479.87	326.34
480.23	326.70
480.60	326.92
480.96	327.16
481.33	327.73
481.69	328.28
482.06	328.79
482.42	329.26
482.79	329.88
483.15	330.66
483.52	331.57
483.88	332.44
484.25	333.38
484.61	334.43
484.98	335.51
485.34	336.87
485.71	338.23
486.07	339.65
486.44	340.92
486.80	342.58
487.17	344.30
487.53	346.11
487.90	347.97
488.26	350.03
488.62	352.20
488.99	354.26
489.35	356.41
489.72	358.80
490.08	361.38
490.44	363.91
490.81	366.62
491.17	369.35
491.54	372.35
491.90	375.36
492.26	378.57
492.63	381.95
492.99	385.43
493.36	389.15
493.72	393.05
494.08	397.05
494.45	401.24
494.81	405.59
495.17	410.07
495.54	414.76
495.90	419.57
496.26	424.52
496.63	429.75
496.99	435.17
497.35	440.75
497.72	446.55
498.08	452.48
498.44	458.61
498.80	465.09
499.17	471.57
499.53	478.30
499.89	485.22
500.26	492.22
500.62	499.24
500.98	506.58
501.34	514.02
501.71	521.84
502.07	529.65
502.43	537.62
502.79	545.74
503.16	554.14
503.52	562.78
503.88	571.47
504.24	580.42
504.60	589.49
504.97	598.73
505.33	607.98
505.69	617.89
506.05	627.68
506.41	637.48
506.78	647.51
507.14	657.77
507.50	668.20
507.86	678.91
508.22	689.65
508.59	700.34
508.95	711.38
509.31	722.53
509.67	733.90
510.03	745.25
510.39	756.91
510.75	768.77
511.12	780.66
511.48	792.78
511.84	804.91
512.20	817.21
512.56	829.78
512.92	842.62
513.28	855.26
513.64	868.06
514.00	880.95
514.37	893.95
514.73	907.04
515.09	920.10
515.45	933.02
515.81	946.08
516.17	959.42
516.53	972.71
516.89	985.83
517.25	999.13
517.61	1012.69
517.97	1026.16
518.33	1039.24
518.69	1052.77
519.05	1066.40
519.41	1080.14
519.77	1094.13
520.13	1107.44
520.49	1120.62
520.85	1133.93
521.21	1147.25
521.57	1160.87
521.93	1173.96
522.29	1187.70
522.65	1201.36
523.01	1215.02
523.37	1228.33
523.73	1241.75
524.09	1254.95
524.45	1268.53
524.81	1282.04
525.17	1295.62
525.53	1308.83
525.89	1322.24
526.25	1335.40
526.61	1348.30
526.97	1361.46
527.33	1374.40
527.68	1387.97
528.04	1401.53
528.40	1414.81
528.76	1428.36
529.12	1441.44
529.48	1454.87
529.84	1467.15
530.20	1479.85
530.56	1492.45
530.91	1505.73
531.27	1518.53
531.63	1531.28
531.99	1543.98
532.35	1556.25
532.71	1568.53
533.07	1581.68
533.42	1593.82
533.78	1606.10
534.14	1618.28
534.50	1629.61
534.86	1641.24
535.21	1652.10
535.57	1663.64
535.93	1674.91
536.29	1685.99
536.65	1697.51
537.00	1708.44
537.36	1720.08
537.72	1731.18
538.08	1742.74
538.44	1753.90
538.79	1765.23
539.15	1776.37
539.51	1787.38
539.87	1798.76
540.22	1809.73
540.58	1820.52
540.94	1831.70
541.29	1841.98
541.65	1851.89
542.01	1862.47
542.37	1872.60
542.72	1882.90
543.08	1892.73
543.44	1903.46
543.79	1912.81
544.15	1922.29
544.51	1932.44
544.87	1942.32
545.22	1951.68
545.58	1960.61
545.94	1969.47
546.29	1977.93
546.65	1986.26
547.01	1994.59
547.36	2002.40
547.72	2010.18
548.07	2017.89
548.43	2025.70
548.79	2033.67
549.14	2041.88
549.50	2050.30
549.86	2058.29
550.21	2065.77
550.57	2073.54
550.92	2080.23
551.28	2087.74
551.64	2094.99
551.99	2102.43
552.35	2109.69
552.70	2116.61
553.06	2123.30
553.41	2129.60
553.77	2135.97
554.13	2142.43
554.48	2149.40
554.84	2156.52
555.19	2163.17
555.55	2169.60
555.90	2175.90
556.26	2182.66
556.61	2188.81
556.97	2193.71
557.32	2199.47
557.68	2205.97
558.03	2211.76
558.39	2217.17
558.74	2223.18
559.10	2228.72
559.45	2234.32
559.81	2239.79
560.16	2245.29
560.52	2251.18
560.87	2257.53
561.23	2263.55
561.58	2270.20
561.94	2275.41
562.29	2280.06
562.64	2285.98
563.00	2291.64
563.35	2297.17
563.71	2302.81
564.06	2308.30
564.42	2314.20
564.77	2319.17
565.12	2324.41
565.48	2329.35
565.83	2334.71
566.19	2340.01
566.54	2345.26
566.89	2349.85
567.25	2354.30
567.60	2359.88
567.96	2364.88
568.31	2369.38
568.66	2373.70
569.02	2377.46
569.37	2381.05
569.72	2385.41
570.08	2388.82
570.43	2391.85
570.78	2394.87
571.14	2397.20
571.49	2400.29
571.84	2403.81
572.20	2406.68
572.55	2409.51
572.90	2411.72
573.26	2414.41
573.61	2416.90
573.96	2418.99
574.31	2420.87
574.67	2422.65
575.02	2423.26
575.37	2424.65
575.72	2425.25
576.08	2426.47
576.43	2426.58
576.78	2426.85
577.13	2428.00
577.49	2429.03
577.84	2429.87
578.19	2430.92
578.54	2431.62
578.90	2432.09
579.25	2431.81
579.60	2431.51
579.95	2430.46
580.30	2430.42
580.66	2429.64
581.01	2427.82
581.36	2425.12
581.71	2423.39
582.06	2422.15
582.42	2421.28
582.77	2418.88
583.12	2417.02
583.47	2415.46
583.82	2414.67
584.17	2413.24
584.53	2411.18
584.88	2409.05
585.23	2406.93
585.58	2404.49
585.93	2402.23
586.28	2399.97
586.63	2397.34
586.98	2395.09
587.34	2393.02
587.69	2390.44
588.04	2388.18
588.39	2386.49
588.74	2384.02
589.09	2381.22
589.44	2377.71
589.79	2374.90
590.14	2372.73
590.49	2369.79
590.84	2365.83
591.19	2362.43
591.54	2359.18
591.89	2355.01
592.25	2351.58
592.60	2347.36
592.95	2343.12
593.30	2338.77
593.65	2334.21
594.00	2329.67
594.35	2326.52
594.70	2321.68
595.05	2316.97
595.40	2311.43
595.75	2305.66
596.10	2301.96
596.45	2297.21
596.80	2292.69
597.15	2287.45
597.50	2281.35
597.85	2276.42
598.19	2271.24
598.54	2265.40
598.89	2259.86
599.24	2255.15
599.59	2248.73
599.94	2242.69
600.29	2236.70
600.64	2230.82
600.99	2223.88
601.34	2218.31
601.69	2211.27
602.04	2204.94
602.39	2198.30
602.74	2192.14
603.08	2186.61
603.43	2180.07
603.78	2173.02
604.13	2165.90
604.48	2158.46
604.83	2152.41
605.18	2146.11
605.53	2139.08
605.87	2132.12
606.22	2125.56
606.57	2117.73
606.92	2109.85
607.27	2103.01
607.62	2096.24
607.96	2089.30
608.31	2082.96
608.66	2075.20
609.01	2067.61
609.36	2060.47
609.70	2052.68
610.05	2044.88
610.40	2036.49
610.75	2028.10
611.10	2020.43
611.44	2011.48
611.79	2002.89
612.14	1992.98
612.49	1982.17
612.83	1972.87
613.18	1963.60
613.53	1954.25
613.88	1944.65
614.22	1936.05
614.57	1926.16
614.92	1915.68
615.27	1905.34
615.61	1895.21
615.96	1885.60
616.31	1876.05
616.65	1866.69
617.00	1857.08
617.35	1847.50
617.70	1837.82
618.04	1827.89
618.39	1817.84
618.74	1808.40
619.08	1798.83
619.43	1790.07
619.78	1782.01
620.12	1773.57
620.47	1764.02
620.82	1753.78
621.16	1744.15
621.51	1734.30
621.85	1724.62
622.20	1714.42
622.55	1703.95
622.89	1694.09
623.24	1684.41
623.59	1674.60
623.93	1664.44
624.28	1654.73
624.62	1644.75
624.97	1634.51
625.32	1624.85
625.66	1615.96
626.01	1607.24
626.35	1598.01
626.70	1588.16
627.04	1578.19
627.39	1568.04
627.73	1558.86
628.08	1549.90
628.43	1540.40
628.77	1531.26
629.12	1522.45
629.46	1514.70
629.81	1506.42
630.15	1497.13
630.50	1487.38
630.84	1477.01
631.19	1467.25
631.53	1458.09
631.88	1447.99
632.22	1438.11
632.57	1428.75
632.91	1418.69
633.26	1408.87
633.60	1399.32
633.95	1390.09
634.29	1380.68
634.64	1371.43
634.98	1361.51
635.32	1352.31
635.67	1343.79
636.01	1334.60
636.36	1325.01
636.70	1315.51
637.05	1306.20
637.39	1297.29
637.73	1288.74
638.08	1281.19
638.42	1273.12
638.77	1264.38
639.11	1256.21
639.45	1248.51
639.80	1240.21
640.14	1231.57
640.49	1222.82
640.83	1214.04
641.17	1205.88
641.52	1197.86
641.86	1189.43
642.20	1181.75
642.55	1173.25
642.89	1164.51
643.23	1155.95
643.58	1147.76
643.92	1138.87
644.26	1130.26
644.61	1121.89
644.95	1113.23
645.29	1104.12
645.64	1095.07
645.98	1086.57
646.32	1078.66
646.66	1070.23
647.01	1061.86
647.35	1053.79
647.69	1045.46
648.04	1037.24
648.38	1028.46
648.72	1019.62
649.06	1011.13
649.41	1002.91
649.75	995.05
650.09	987.23
650.43	979.17
650.78	970.96
651.12	963.19
651.46	955.85
651.80	948.65
652.14	941.37
652.49	933.89
652.83	926.60
653.17	918.95
653.51	911.44
653.85	904.19
654.20	897.00
654.54	889.63
654.88	882.50
655.22	875.37
655.56	868.47
655.90	861.79
656.25	855.19
656.59	848.33
656.93	841.34
657.27	834.26
657.61	827.31
657.95	821.23
658.29	815.35
658.64	809.26
658.98	802.72
659.32	796.24
659.66	790.08
660.00	783.79
660.34	777.77
660.68	771.65
661.02	765.21
661.36	759.20
661.70	753.43
662.05	747.80
662.39	742.28
662.73	736.88
663.07	731.50
663.41	725.83
663.75	720.13
664.09	714.38
664.43	708.94
664.77	703.67
665.11	697.83
665.45	691.97
665.79	686.07
666.13	680.41
666.47	674.87
666.81	669.38
667.15	663.91
667.49	658.69
667.83	653.39
668.17	648.25
668.51	643.16
668.85	638.15
669.19	633.27
669.53	628.22
669.87	623.01
670.21	618.18
670.55	613.53
670.89	609.05
671.23	604.80
671.57	600.37
671.91	596.07
672.25	591.88
672.58	587.76
672.92	583.71
673.26	579.74
673.60	575.83
673.94	571.97
674.28	568.40
674.62	564.66
674.96	560.95
675.30	557.41
675.64	553.69
675.97	550.09
676.31	546.45
676.65	542.88
676.99	539.50
677.33	535.67
677.67	531.97
678.01	528.13
678.34	524.50
678.68	521.03
679.02	517.42
679.36	513.72
679.70	510.08
680.04	506.50
680.37	503.06
680.71	499.72
681.05	496.55
681.39	493.22
681.73	490.00
682.06	486.96
682.40	483.78
682.74	480.59
683.08	477.40
683.42	474.14
683.75	471.09
684.09	467.98
684.43	465.21
684.77	462.22
685.10	459.29
685.44	456.35
685.78	453.37
686.12	450.58
686.45	447.80
686.79	445.07
687.13	442.53
687.46	439.90
687.80	437.21
688.14	434.33
688.48	431.66
688.81	428.97
689.15	426.35
689.49	423.78
689.82	421.20
690.16	418.53
690.50	416.05
690.83	413.48
691.17	410.93
691.51	408.34
691.84	406.07
692.18	403.87
692.52	401.62
692.85	399.44
693.19	397.24
693.52	395.10
693.86	392.85
694.20	390.62
694.53	388.37
694.87	386.14
695.21	383.95
695.54	381.80
695.88	379.60
696.21	377.36
696.55	375.19
696.88	373.12
697.22	371.12
697.56	369.20
697.89	367.30
698.23	365.57
698.56	363.80
698.90	362.00
699.23	360.05
699.57	358.15
699.90	356.27
700.24	354.47
700.58	352.71
700.91	351.01
701.25	349.38
701.58	347.79
701.92	346.19
702.25	344.58
702.59	342.93
702.92	341.37
703.26	339.77
703.59	338.26
703.93	336.98
704.26	335.54
704.60	334.01
704.93	332.53
705.26	330.95
705.60	329.44
705.93	327.88
706.27	326.51
706.60	325.23
706.94	323.97
707.27	322.54
707.61	321.18
707.94	319.84
708.27	318.35
708.61	316.88
708.94	315.49
709.28	314.14
709.61	312.86
709.94	311.64
710.28	310.41
710.61	309.20
710.95	307.75
711.28	306.64
711.61	305.44
711.95	304.31
712.28	303.11
712.61	301.87
712.95	300.84
713.28	299.78
713.61	298.58
713.95	297.40
714.28	296.37
714.61	295.24
714.95	294.17
715.28	293.10
715.61	292.09
715.95	291.11
716.28	290.15
716.61	289.17
716.95	288.15
717.28	287.22
717.61	286.25
717.94	285.35
718.28	284.31
718.61	283.43
718.94	282.51
719.27	281.67
719.61	280.86
719.94	280.00
720.27	279.02
720.60	278.15
720.94	277.32
721.27	276.53
721.60	275.81
721.93	275.09
722.27	274.45
722.60	273.79
722.93	273.05
723.26	272.40
723.59	271.70
723.93	271.03
724.26	270.37
724.59	269.71
724.92	269.08
725.25	268.51
725.59	267.86
725.92	267.30
726.25	266.67
726.58	266.06
726.91	265.41
727.24	264.87
727.57	264.30
727.91	263.68
728.24	263.14
728.57	262.56
728.90	262.02
729.23	261.35
729.56	260.89
729.89	260.36
730.22	259.78
730.55	259.22
730.89	258.69
731.22	258.14
731.55	257.62
731.88	257.09
732.21	256.52
732.54	255.98
732.87	255.46
733.20	254.94
733.53	254.45
733.86	254.00
734.19	253.50
734.52	253.07
734.85	252.81
735.18	252.33
735.51	251.96
735.84	251.51
736.17	251.10
736.50	250.55
736.83	250.40
737.16	250.01
737.49	249.64
737.82	249.19
738.15	248.85
738.48	248.48
738.81	248.11
739.14	247.73
739.47	247.34
739.80	246.95
740.13	246.64
740.46	246.23
740.79	245.80
741.12	245.44
741.45	245.03
741.78	244.55
742.11	244.26
742.44	243.85
742.77	243.54
743.10	243.25
743.43	242.92
743.75	242.32
744.08	242.23
744.41	241.88
744.74	241.52
745.07	241.13
745.40	240.80
745.73	240.54
746.06	240.20
746.39	239.93
746.71	239.60
747.04	239.24
747.37	238.95
747.70	238.68
748.03	238.38
748.36	238.14
748.68	237.83
749.01	237.44
749.34	237.16
749.67	236.87
750.00	236.59
750.33	236.40
750.65	236.13
750.98	235.61
751.31	235.32
751.64	235.15
751.97	234.98
752.29	234.69
752.62	234.34
752.95	234.07
753.28	233.79
753.60	233.54
753.93	233.37
754.26	233.15
754.59	232.89
754.91	232.64
755.24	232.38
755.57	232.17
755.90	231.96
756.22	231.71
756.55	231.46
756.88	231.20
757.20	230.90
757.53	230.65
757.86	230.46
758.19	230.27
758.51	230.01
758.84	229.71
759.17	229.50
759.49	229.32
759.82	229.25
760.15	229.08
760.47	228.91
760.80	228.63
761.13	228.47
761.45	228.27
761.78	228.09
762.11	227.92
762.43	227.73
762.76	227.56
763.08	227.45
763.41	227.29
763.74	227.15
764.06	226.98
764.39	226.82
764.71	226.64
765.04	226.51
765.37	226.36
765.69	226.20
766.02	226.06
766.34	225.89
766.67	225.65
767.00	225.55
767.32	225.52
767.65	225.51
767.97	225.34
768.30	225.22
768.62	225.10
768.95	224.96
769.27	224.81
769.60	224.68
769.92	224.48
770.25	224.34
770.57	224.17
770.90	224.04
771.22	223.89
771.55	223.79
771.87	223.65
772.20	223.55
772.52	223.65
772.85	223.80
773.17	223.68
773.50	223.60
773.82	223.49
774.15	223.27
774.47	223.02
774.80	222.90
775.12	222.80
775.45	222.70
775.77	222.61
776.09	222.55
776.42	222.44
776.74	222.43
777.07	222.35
777.39	222.26
777.72	222.18
778.04	222.13
778.36	222.02
778.69	221.96
779.01	221.89
779.33	221.63
779.66	221.27
779.98	221.20
780.31	221.11
780.63	221.09
780.95	221.05
781.28	220.98
781.60	220.92
781.92	220.86
782.25	220.80
782.57	220.70
782.89	220.60
783.22	220.53
783.54	220.38
783.86	220.31
784.19	220.24
784.51	220.23
784.83	220.14
785.16	220.06
785.48	219.99
785.80	219.92
786.12	219.87
786.45	219.84
786.77	219.80
787.09	219.72
787.42	219.57
787.74	219.53
788.06	219.47
788.38	219.40
788.71	219.31
789.03	219.24
789.35	219.22
789.67	219.15
789.99	219.10
790.32	219.06
790.64	219.02
790.96	219.16
791.28	219.02
791.61	218.95
791.93	218.93
792.25	218.86
792.57	218.91
792.89	218.80
793.21	218.75
793.54	218.66
793.86	218.60
794.18	218.60
794.50	218.51
794.82	218.52
795.14	218.50
795.47	218.51
795.79	218.45
796.11	218.35
796.43	218.31
796.75	218.29
797.07	218.24
797.39	218.18
797.71	217.96
798.04	217.92
798.36	217.91
798.68	217.86
799.00	217.86
799.32	217.76
799.64	217.81
799.96	217.78
800.28	217.80
800.60	217.75
800.92	217.71
801.24	217.64
801.56	217.60
801.89	217.53
802.21	217.53
802.53	217.48
802.85	217.49
803.17	217.53
803.49	217.47
803.81	217.39
804.13	217.33
804.45	217.27
804.77	217.29
805.09	217.25
805.41	217.20
805.73	217.13
806.05	217.04
806.37	216.95
806.69	216.89
807.01	216.88
807.33	216.85
807.65	216.72
807.97	216.78
808.28	216.72
808.60	216.71
808.92	216.59
809.24	216.69
809.56	216.66
809.88	216.58
810.20	216.55
810.52	216.60
810.84	216.57
811.16	216.55
811.48	216.51
811.80	216.56
812.12	216.51
812.43	216.51
812.75	216.50
813.07	216.47
813.39	216.47
813.71	216.37
814.03	216.35
814.35	216.38
814.67	216.32
814.98	216.28
815.30	216.25
815.62	216.22
815.94	216.05
816.26	216.01
816.58	215.95
816.89	215.95
817.21	215.85
817.53	215.84
817.85	215.81
818.17	215.78
818.48	215.70
818.80	215.76
819.12	215.74
819.44	215.67
819.76	215.64
820.07	215.62
820.39	215.60
820.71	215.62
821.03	215.60
821.34	215.54
821.66	215.56
821.98	215.55
822.30	215.55
822.61	215.69
822.93	215.65
823.25	215.66
823.57	215.62
823.88	215.68
824.20	215.65
824.52	215.69
824.83	215.66
825.15	215.63
825.47	215.59
825.79	215.59
826.10	215.58
826.42	215.51
826.74	215.52
827.05	215.54
827.37	215.51
827.69	215.49
828.00	215.52
828.32	215.47
828.64	215.45
828.95	215.55
829.27	215.48
829.58	215.45
829.90	215.48
830.22	215.51
830.53	215.42
830.85	215.41
831.17	215.34
831.48	215.32
831.80	215.29
832.11	215.28
832.43	215.21
832.75	215.20
833.06	215.38
833.38	215.32
833.69	215.26
834.01	215.26
834.32	215.24
834.64	215.19
834.96	215.18
835.27	215.15
835.59	215.07
835.90	215.00
836.22	215.03
836.53	214.95
836.85	214.89
837.16	215.11
837.48	215.11
837.79	215.18
838.11	215.20
838.42	215.22
838.74	215.23
839.05	215.23
839.37	215.20
839.68	215.04
840.00	215.03
840.31	215.07
840.63	215.02
840.94	214.98
841.26	214.96
841.57	214.97
841.88	214.98
842.20	214.92
842.51	214.89
842.83	214.87
843.14	215.05
843.46	215.08
843.77	214.97
844.08	214.97
844.40	214.91
844.71	214.87
845.03	214.84
845.34	214.78
845.65	214.79
845.97	214.79
846.28	214.77
846.60	214.77
846.91	214.70
847.22	214.74
847.54	214.78
847.85	214.81
848.16	214.74
848.48	214.73
848.79	214.83
849.10	214.85
849.42	214.83
849.73	214.61
850.04	214.58
850.36	214.47
850.67	214.48
850.98	214.48
851.30	214.49
851.61	214.48
851.92	214.50
852.23	214.54
852.55	214.54
852.86	214.55
853.17	214.57
853.49	214.66
853.80	214.65
854.11	214.68
854.42	214.71
854.74	214.71
855.05	214.72
855.36	214.62
855.67	214.65
855.99	214.65
856.30	214.93
856.61	214.91
856.92	214.96
857.23	214.97
857.55	214.95
857.86	214.91
858.17	214.91
858.48	214.86
858.79	214.83
859.11	214.85
859.42	214.86
859.73	214.80
860.04	214.78
860.35	214.76
860.66	214.68
860.98	214.65
861.29	214.68
861.60	214.66
861.91	214.73
862.22	214.68
862.53	214.63
862.84	214.39
863.16	214.43
863.47	214.33
863.78	214.30
864.09	214.32
864.40	214.32
864.71	214.37
865.02	214.38
865.33	214.30
865.64	214.26
865.95	214.25
866.27	214.41
866.58	214.35
866.89	214.35
867.20	214.33
867.51	214.28
867.82	214.26
868.13	214.33
868.44	214.22
868.75	214.25
869.06	214.28
869.37	214.29
869.68	214.25
869.99	214.31
870.30	214.33
870.61	214.31
870.92	214.30
871.23	214.27
871.54	214.34
871.85	214.41
872.16	214.47
872.47	214.46
872.78	214.32
873.09	214.35
873.40	214.36
873.71	214.37
874.02	214.42
874.33	214.39
874.64	214.32
874.95	214.39
875.26	214.34
875.56	214.33
875.87	214.33
876.18	214.32
876.49	214.52
876.80	214.50
877.11	214.51
877.42	214.52
877.73	214.50
878.04	214.44
878.35	214.45
878.66	214.44
878.96	214.45
879.27	214.43
879.58	214.41
879.89	214.41
880.20	214.49
880.51	214.49
880.82	214.53
881.12	214.53
881.43	214.48
881.74	214.48
882.05	214.49
882.36	214.51
882.67	214.50
882.97	214.29
883.28	214.26
883.59	214.23
883.90	214.23
884.21	214.27
884.51	214.27
884.82	214.23
885.13	214.23
885.44	214.21
885.74	214.25
886.05	214.23
886.36	214.22
886.67	214.11
886.98	214.20
887.28	214.20
887.59	214.18
887.90	214.19
888.20	214.18
888.51	214.23
888.82	214.20
889.13	214.25
889.43	214.42
889.74	214.41
890.05	214.40
890.35	214.43
890.66	214.38
890.97	214.37
891.28	214.38
891.58	214.36
891.89	214.37
892.20	214.33
892.50	214.31
892.81	214.30
893.12	214.33
893.42	214.24
893.73	214.22
894.04	214.26
894.34	214.27
894.65	214.26
894.95	214.21
895.26	214.21
895.57	214.26
895.87	214.06
896.18	214.12
896.48	214.14
896.79	214.09
897.10	214.14
897.40	214.15
897.71	214.15
898.01	214.11
898.32	214.10
898.63	214.13
898.93	214.15
899.24	214.16
899.54	214.15
899.85	214.12
900.15	214.13
900.46	214.13
900.76	214.13
901.07	214.13
901.38	214.13
901.68	214.15
901.99	214.07
902.29	214.07
902.60	214.05
902.90	214.01
903.21	214.02
903.51	213.96
903.82	214.01
904.12	214.01
904.43	214.05
904.73	214.05
905.03	214.01
905.34	214.22
905.64	214.19
905.95	214.19
906.25	214.19
906.56	214.22
906.86	214.21
907.17	214.22
907.47	214.23
907.77	214.22
908.08	214.16
908.38	214.14
908.69	214.17
908.99	214.21
909.30	214.26
909.60	214.27
909.90	214.29
910.21	214.21
910.51	214.18
910.81	214.17
911.12	214.19
911.42	214.24
911.73	214.05
912.03	214.05
912.33	214.09
912.64	214.08
912.94	214.02
913.24	213.96
913.55	213.92
913.85	213.92
914.15	213.93
914.46	213.93
914.76	213.93
915.06	213.91
915.37	213.87
915.67	213.84
915.97	213.84
916.27	213.82
916.58	213.83
916.88	213.83
917.18	213.79
917.49	213.92
917.79	213.90
918.09	213.93
918.39	213.98
918.70	213.95
919.00	213.96
919.30	214.06
919.60	214.06
919.91	214.07
920.21	214.04
920.51	214.00
920.81	214.00
921.12	214.04
921.42	214.06
921.72	214.03
922.02	214.03
922.32	214.06
922.63	214.05
922.93	214.15
923.23	214.16
923.53	214.18
923.83	214.06
924.13	214.09
924.44	214.06
924.74	214.07
925.04	214.14
925.34	214.14
925.64	214.05
925.94	214.04
926.24	214.15
926.55	214.16
926.85	214.21
927.15	214.22
927.45	214.21
927.75	214.16
928.05	214.19
928.35	214.18
928.65	214.20
928.95	214.24
929.26	214.14
929.56	214.19
929.86	214.22
930.16	214.20
930.46	214.12
930.76	214.15
931.06	214.09
931.36	214.01
931.66	214.05
931.96	214.09
932.26	214.12
932.56	214.04
932.86	214.05
933.16	214.06
933.46	214.03
933.76	214.02
934.06	214.09
934.36	214.16
934.66	214.17
934.96	214.12
935.26	214.10
935.56	214.13
935.86	214.07
936.16	214.06
936.46	214.00
936.76	214.03
937.06	213.99
937.36	214.00
937.66	214.02
937.96	213.98
938.26	213.90
938.56	213.90
938.86	213.88
939.16	213.93
939.46	213.94
939.76	213.97
940.06	213.95
940.35	213.89
940.65	213.77
940.95	213.77
941.25	213.70
941.55	213.68
941.85	213.69
942.15	213.73
942.45	213.79
942.75	213.83
943.04	213.84
943.34	213.88
943.64	213.87
943.94	213.83
944.24	213.83
944.54	213.86
944.84	213.82
945.13	213.79
945.43	213.74
945.73	213.71
946.03	213.69
946.33	213.69
946.62	213.67
946.92	213.70
947.22	213.73
947.52	213.78
947.82	213.83
948.11	213.79
948.41	213.76
948.71	213.71
949.01	213.73
949.31	213.71
949.60	213.66
949.90	213.70
950.20	213.70
950.50	213.71
950.79	213.72
951.09	213.77
951.39	213.79
951.69	213.82
951.98	213.86
952.28	213.88
952.58	213.86
952.87	213.90
953.17	213.90
953.47	213.88
953.76	213.88
954.06	213.84
954.36	213.82
954.66	213.82
954.95	213.88
955.25	213.90
955.55	213.94
955.84	213.92
956.14	213.91
956.44	213.94
956.73	213.89
957.03	213.91
957.32	213.88
957.62	213.87
957.92	213.88
958.21	213.89
958.51	214.12
958.81	214.14
959.10	214.16
959.40	214.20
959.69	214.22
959.99	214.22
960.29	214.25
960.58	214.20
960.88	214.28
961.17	214.22
961.47	214.23
961.76	214.20
962.06	214.28
962.36	214.28
962.65	214.30
962.95	214.33
963.24	214.28
963.54	214.29
963.83	214.33
964.13	214.30
964.42	214.24
964.72	214.06
965.01	214.04
965.31	214.02
965.60	213.99
965.90	214.07
966.19	214.04
966.49	214.03
966.78	214.04
967.08	214.02
967.37	214.03
967.67	213.99
967.96	214.06
968.26	214.02
968.55	214.02
968.85	214.00
969.14	214.00
969.43	214.03
969.73	214.02
970.02	214.00
970.32	213.99
970.61	213.97
970.91	213.90
971.20	213.89
971.49	213.87
971.79	213.89
972.08	213.79
972.38	213.82
972.67	213.80
972.96	213.82
973.26	213.77
973.55	213.83
973.85	213.80
974.14	213.73
974.43	213.76
974.73	213.74
975.02	213.72
975.31	213.71
975.61	213.69
975.90	213.70
976.19	213.70
976.49	213.74
976.78	213.78
977.07	213.82
977.37	213.84
977.66	213.87
977.95	213.84
978.24	213.82
978.54	213.86
978.83	213.85
979.12	213.86
979.42	213.84
979.71	213.80
980.00	213.80
980.29	213.83
980.59	213.76
980.88	213.83
981.17	213.82
981.46	213.81
981.76	213.80
982.05	213.86
982.34	213.88
982.63	213.85
982.93	213.82
983.22	213.85
983.51	213.85
983.80	213.85
984.09	213.89
984.39	213.91
984.68	213.86
984.97	213.85
985.26	213.82
985.55	213.85
985.85	213.83
986.14	213.88
986.43	213.87
986.72	213.88
987.01	213.83
987.30	213.80
987.59	213.81
987.89	213.81
988.18	213.77
988.47	213.73
988.76	213.70
989.05	213.70
989.34	213.67
989.63	213.73
989.92	213.71
990.22	213.66
990.51	213.68
990.80	213.69
991.09	213.75
991.38	213.79
991.67	213.76
991.96	213.72
992.25	213.72
992.54	213.67
992.83	213.66
993.12	213.64
993.41	213.71
993.70	213.77
993.99	213.82
994.28	213.83
994.58	213.87
994.87	213.86
995.16	213.84
995.45	213.82
995.74	213.77
996.03	213.77
996.32	213.81
996.61	213.79
996.90	213.80
997.19	213.74
997.48	213.73
997.77	213.78
998.06	213.79
998.34	213.78
998.63	213.77
998.92	213.77
999.21	213.79
999.50	213.77
999.79	213.72
1000.08	213.69
1000.37	213.65
1000.66	213.61
1000.95	213.69
1001.24	213.70
1001.53	213.72
1001.82	213.70
1002.11	213.66
1002.40	213.68
1002.68	213.75
1002.97	213.88
1003.26	213.85
1003.55	213.80
1003.84	213.77
1004.13	213.84
1004.42	213.81
1004.71	213.84
1004.99	213.86
1005.28	213.89
1005.57	213.89
1005.86	213.85
1006.15	213.83
1006.44	213.82
1006.72	213.86
1007.01	213.81
1007.30	213.82
1007.59	213.81
1007.88	213.81
1008.17	213.81
1008.45	213.77
1008.74	213.69
1009.03	213.62
1009.32	213.67
1009.60	213.68
1009.89	213.67
1010.18	213.55
1010.47	213.56
1010.76	213.54
1011.04	213.52
1011.33	213.55
1011.62	213.57
1011.91	213.57
1012.19	213.59
1012.48	213.62
1012.77	213.63
1013.05	213.74
1013.34	213.72
1013.63	213.70
1013.92	213.71
1014.20	213.71
1014.49	213.73
1014.78	213.74
1015.06	213.65
1015.35	213.63
1015.64	213.66
1015.92	213.68
1016.21	213.71
1016.50	213.69
1016.78	213.75
1017.07	213.74
1017.36	213.70
1017.64	213.65
1017.93	213.68
1018.22	213.66
1018.50	213.63
1018.79	213.60
1019.08	213.48
1019.36	213.51
1019.65	213.47
1019.93	213.51
1020.22	213.56
1020.51	213.65
1020.79	213.60
1021.08	213.43
1021.36	213.17
1021.65	213.44
1021.94	213.37
1022.22	213.84
1022.51	212.61
1022.79	214.44
1023.08	214.06
1023.36	215.82
1023.65	213.13
>>>>>End Processed Spectral Data<<<<<
