SpectraSuite Data File
++++++++++++++++++++++++++++++++++++
Date: Tue Jan 29 16:03:14 EST 2013
User: group
Dark Spectrum Present: No
Reference Spectrum Present: No
Number of Sampled Component Spectra: 1
Spectrometers: USB2E7196
Integration Time (usec): 65000 (USB2E7196)
Spectra Averaged: 100 (USB2E7196)
Boxcar Smoothing: 10 (USB2E7196)
Correct for Electrical Dark: No (USB2E7196)
Strobe/Lamp Enabled: No (USB2E7196)
Correct for Detector Non-linearity: No (USB2E7196)
Correct for Stray Light: No (USB2E7196)
Number of Pixels in Processed Spectrum: 2048
>>>>>Begin Processed Spectral Data<<<<<
339.09	0.00
339.48	203.15
339.86	203.95
340.24	205.72
340.63	207.27
341.01	211.95
341.39	209.55
341.78	211.35
342.16	213.06
342.54	213.47
342.93	202.01
343.31	212.20
343.69	212.76
344.07	213.26
344.46	213.72
344.84	214.12
345.22	214.24
345.60	214.52
345.99	214.74
346.37	214.83
346.75	214.89
347.13	214.98
347.52	215.06
347.90	215.16
348.28	215.18
348.66	215.25
349.05	215.21
349.43	215.24
349.81	215.33
350.19	215.40
350.57	215.45
350.96	215.54
351.34	215.66
351.72	215.71
352.10	215.80
352.48	215.87
352.87	215.92
353.25	216.04
353.63	216.07
354.01	216.11
354.39	216.22
354.77	216.33
355.15	216.47
355.54	216.50
355.92	216.50
356.30	216.57
356.68	216.77
357.06	216.84
357.44	216.90
357.82	216.95
358.20	217.00
358.58	217.04
358.97	217.11
359.35	217.21
359.73	217.33
360.11	217.36
360.49	217.39
360.87	217.42
361.25	217.46
361.63	217.58
362.01	217.64
362.39	217.69
362.77	217.74
363.15	217.75
363.53	217.78
363.91	217.86
364.29	217.87
364.67	217.73
365.05	217.76
365.43	217.82
365.81	217.88
366.19	218.00
366.57	218.10
366.95	218.11
367.33	218.04
367.71	218.00
368.09	218.07
368.47	218.08
368.85	218.10
369.23	218.13
369.61	218.07
369.99	218.15
370.37	218.11
370.75	218.16
371.13	218.11
371.51	218.07
371.89	218.04
372.27	218.07
372.65	218.04
373.03	218.03
373.41	217.96
373.78	217.92
374.16	217.77
374.54	217.70
374.92	217.61
375.30	217.60
375.68	217.56
376.06	217.50
376.44	217.40
376.82	217.37
377.19	217.33
377.57	217.29
377.95	217.15
378.33	217.10
378.71	216.94
379.09	216.92
379.47	216.93
379.84	216.87
380.22	216.80
380.60	216.72
380.98	216.66
381.36	216.63
381.73	216.55
382.11	216.56
382.49	216.52
382.87	216.48
383.25	216.46
383.62	216.66
384.00	216.61
384.38	216.61
384.76	216.59
385.13	216.61
385.51	216.54
385.89	216.50
386.27	216.47
386.64	216.48
387.02	216.43
387.40	216.37
387.78	216.36
388.15	216.33
388.53	216.30
388.91	216.27
389.29	216.23
389.66	216.23
390.04	216.19
390.42	216.17
390.79	216.20
391.17	216.18
391.55	215.94
391.92	215.91
392.30	215.92
392.68	215.90
393.05	215.90
393.43	215.91
393.81	215.93
394.18	215.93
394.56	215.94
394.94	216.00
395.31	216.00
395.69	216.03
396.06	216.08
396.44	216.12
396.82	216.14
397.19	216.28
397.57	216.29
397.95	216.36
398.32	216.36
398.70	216.38
399.07	216.44
399.45	216.48
399.82	216.53
400.20	216.55
400.58	216.59
400.95	216.54
401.33	216.65
401.70	216.84
402.08	216.92
402.45	217.00
402.83	217.10
403.20	217.23
403.58	217.34
403.95	217.51
404.33	217.64
404.71	217.79
405.08	218.03
405.46	218.18
405.83	218.32
406.21	218.50
406.58	218.72
406.96	218.96
407.33	219.21
407.70	219.51
408.08	219.97
408.45	220.34
408.83	220.75
409.20	221.07
409.58	221.33
409.95	221.78
410.33	222.24
410.70	222.66
411.08	223.16
411.45	223.73
411.82	224.23
412.20	224.93
412.57	225.72
412.95	226.27
413.32	227.08
413.69	227.92
414.07	228.79
414.44	229.73
414.82	230.71
415.19	231.83
415.56	232.98
415.94	234.09
416.31	235.42
416.68	236.76
417.06	238.31
417.43	239.79
417.81	241.46
418.18	243.20
418.55	245.10
418.93	247.08
419.30	249.10
419.67	251.29
420.04	253.50
420.42	255.79
420.79	258.51
421.16	261.18
421.54	263.99
421.91	266.91
422.28	269.93
422.66	273.09
423.03	276.25
423.40	279.45
423.77	283.00
424.15	286.55
424.52	290.30
424.89	294.32
425.26	298.26
425.64	301.99
426.01	306.14
426.38	310.43
426.75	314.81
427.13	319.38
427.50	324.15
427.87	329.11
428.24	334.14
428.61	338.97
428.99	344.35
429.36	350.12
429.73	355.74
430.10	361.48
430.47	367.37
430.85	373.47
431.22	379.96
431.59	386.75
431.96	393.27
432.33	400.44
432.70	407.43
433.08	415.69
433.45	423.48
433.82	431.15
434.19	439.65
434.56	448.07
434.93	456.13
435.30	464.07
435.68	472.86
436.05	481.55
436.42	490.11
436.79	497.96
437.16	506.41
437.53	515.44
437.90	524.20
438.27	532.83
438.64	541.67
439.01	549.92
439.38	557.22
439.75	564.33
440.13	572.51
440.50	580.22
440.87	586.41
441.24	592.81
441.61	599.86
441.98	605.12
442.35	611.17
442.72	617.15
443.09	623.01
443.46	626.53
443.83	628.87
444.20	630.96
444.57	634.01
444.94	635.37
445.31	636.69
445.68	637.99
446.05	638.51
446.42	637.79
446.79	636.79
447.16	635.76
447.53	635.03
447.90	631.75
448.27	628.47
448.64	623.98
449.01	620.76
449.37	615.07
449.74	609.52
450.11	602.89
450.48	595.82
450.85	588.62
451.22	582.43
451.59	576.56
451.96	570.93
452.33	563.35
452.70	556.51
453.07	548.29
453.43	540.03
453.80	532.08
454.17	524.35
454.54	517.10
454.91	509.25
455.28	501.59
455.65	494.53
456.02	487.36
456.38	481.29
456.75	473.76
457.12	467.48
457.49	461.32
457.86	455.33
458.23	450.18
458.59	444.51
458.96	438.82
459.33	433.74
459.70	428.60
460.07	424.47
460.43	419.81
460.80	415.43
461.17	411.55
461.54	407.53
461.91	403.67
462.27	399.75
462.64	396.41
463.01	392.74
463.38	389.11
463.74	385.56
464.11	382.44
464.48	379.69
464.85	376.70
465.21	374.33
465.58	371.82
465.95	368.81
466.32	366.29
466.68	363.76
467.05	361.24
467.42	358.78
467.78	356.24
468.15	353.79
468.52	351.97
468.88	349.58
469.25	347.46
469.62	345.77
469.98	343.93
470.35	342.22
470.72	340.58
471.08	338.90
471.45	337.50
471.82	335.99
472.18	334.38
472.55	333.23
472.92	331.91
473.28	330.75
473.65	329.66
474.02	328.63
474.38	327.81
474.75	327.14
475.11	326.40
475.48	325.85
475.85	325.43
476.21	325.03
476.58	324.76
476.94	324.55
477.31	324.26
477.67	324.05
478.04	323.93
478.41	323.91
478.77	324.13
479.14	324.05
479.50	324.20
479.87	324.56
480.23	324.91
480.60	325.17
480.96	325.48
481.33	326.12
481.69	326.69
482.06	327.22
482.42	327.71
482.79	328.30
483.15	329.09
483.52	330.05
483.88	330.90
484.25	331.83
484.61	332.85
484.98	333.90
485.34	335.17
485.71	336.56
486.07	338.06
486.44	339.34
486.80	341.00
487.17	342.67
487.53	344.49
487.90	346.38
488.26	348.44
488.62	350.57
488.99	352.55
489.35	354.73
489.72	357.14
490.08	359.65
490.44	362.19
490.81	364.92
491.17	367.61
491.54	370.57
491.90	373.59
492.26	376.80
492.63	380.19
492.99	383.70
493.36	387.34
493.72	391.15
494.08	395.21
494.45	399.39
494.81	403.78
495.17	408.25
495.54	412.90
495.90	417.69
496.26	422.64
496.63	427.86
496.99	433.23
497.35	438.71
497.72	444.46
498.08	450.41
498.44	456.50
498.80	462.90
499.17	469.43
499.53	476.15
499.89	483.08
500.26	490.05
500.62	497.05
500.98	504.39
501.34	511.90
501.71	519.59
502.07	527.37
502.43	535.28
502.79	543.32
503.16	551.66
503.52	560.23
503.88	568.87
504.24	577.77
504.60	586.80
504.97	596.05
505.33	605.35
505.69	615.21
506.05	625.01
506.41	634.82
506.78	644.89
507.14	655.10
507.50	665.49
507.86	676.07
508.22	686.86
508.59	697.55
508.95	708.46
509.31	719.75
509.67	731.15
510.03	742.55
510.39	754.33
510.75	766.17
511.12	778.03
511.48	790.12
511.84	802.25
512.20	814.56
512.56	827.14
512.92	839.85
513.28	852.35
513.64	865.04
514.00	877.86
514.37	890.59
514.73	903.61
515.09	916.50
515.45	929.31
515.81	942.21
516.17	955.47
516.53	968.57
516.89	981.50
517.25	994.52
517.61	1007.89
517.97	1021.07
518.33	1033.99
518.69	1047.35
519.05	1060.83
519.41	1074.43
519.77	1088.10
520.13	1101.22
520.49	1114.18
520.85	1127.45
521.21	1140.59
521.57	1154.09
521.93	1167.12
522.29	1180.65
522.65	1194.08
523.01	1207.59
523.37	1220.60
523.73	1233.53
524.09	1246.39
524.45	1259.50
524.81	1272.75
525.17	1285.86
525.53	1298.76
525.89	1311.91
526.25	1324.72
526.61	1337.31
526.97	1350.07
527.33	1362.62
527.68	1375.80
528.04	1388.93
528.40	1401.82
528.76	1414.87
529.12	1427.48
529.48	1440.42
529.84	1452.42
530.20	1464.87
530.56	1477.18
530.91	1490.17
531.27	1502.86
531.63	1515.52
531.99	1528.11
532.35	1540.06
532.71	1552.15
533.07	1564.71
533.42	1576.60
533.78	1588.38
534.14	1600.25
534.50	1611.20
534.86	1622.63
535.21	1633.23
535.57	1644.47
535.93	1655.42
536.29	1666.28
536.65	1677.34
537.00	1688.12
537.36	1699.10
537.72	1709.69
538.08	1720.65
538.44	1731.24
538.79	1741.91
539.15	1752.28
539.51	1762.54
539.87	1773.70
540.22	1784.14
540.58	1794.78
540.94	1805.30
541.29	1815.41
541.65	1824.85
542.01	1835.11
542.37	1844.77
542.72	1854.65
543.08	1864.30
543.44	1874.37
543.79	1883.48
544.15	1892.65
544.51	1902.36
544.87	1911.94
545.22	1920.87
545.58	1929.46
545.94	1938.04
546.29	1946.43
546.65	1954.75
547.01	1962.80
547.36	1970.22
547.72	1977.95
548.07	1985.40
548.43	1992.98
548.79	2000.56
549.14	2008.41
549.50	2016.56
549.86	2024.27
550.21	2031.35
550.57	2038.63
550.92	2045.27
551.28	2052.55
551.64	2059.55
551.99	2066.64
552.35	2073.72
552.70	2080.43
553.06	2086.90
553.41	2092.97
553.77	2099.25
554.13	2105.45
554.48	2112.33
554.84	2119.07
555.19	2125.31
555.55	2131.48
555.90	2137.64
556.26	2144.13
556.61	2149.91
556.97	2154.59
557.32	2160.31
557.68	2166.70
558.03	2172.43
558.39	2177.52
558.74	2183.19
559.10	2188.74
559.45	2194.35
559.81	2199.74
560.16	2205.26
560.52	2211.31
560.87	2217.81
561.23	2223.76
561.58	2230.43
561.94	2235.51
562.29	2240.38
562.64	2246.58
563.00	2252.10
563.35	2257.65
563.71	2263.68
564.06	2269.40
564.42	2275.41
564.77	2280.65
565.12	2285.74
565.48	2290.98
565.83	2296.73
566.19	2302.48
566.54	2308.01
566.89	2312.60
567.25	2317.31
567.60	2323.22
567.96	2328.33
568.31	2332.89
568.66	2337.16
569.02	2340.87
569.37	2344.71
569.72	2349.14
570.08	2352.68
570.43	2355.99
570.78	2359.11
571.14	2361.84
571.49	2365.25
571.84	2368.88
572.20	2371.60
572.55	2374.94
572.90	2377.25
573.26	2380.22
573.61	2382.68
573.96	2384.92
574.31	2387.15
574.67	2389.19
575.02	2390.18
575.37	2391.67
575.72	2392.62
576.08	2394.25
576.43	2394.81
576.78	2395.83
577.13	2397.83
577.49	2398.95
577.84	2400.41
578.19	2402.05
578.54	2402.84
578.90	2403.90
579.25	2404.01
579.60	2404.36
579.95	2403.86
580.30	2404.38
580.66	2403.80
581.01	2402.37
581.36	2400.39
581.71	2399.22
582.06	2398.26
582.42	2397.62
582.77	2395.72
583.12	2394.41
583.47	2393.40
583.82	2393.14
584.17	2391.94
584.53	2389.82
584.88	2388.13
585.23	2386.31
585.58	2384.32
585.93	2382.21
586.28	2380.23
586.63	2378.21
586.98	2376.30
587.34	2374.44
587.69	2372.21
588.04	2370.38
588.39	2368.94
588.74	2366.58
589.09	2364.17
589.44	2361.34
589.79	2359.04
590.14	2357.34
590.49	2354.70
590.84	2351.13
591.19	2348.25
591.54	2344.94
591.89	2341.17
592.25	2338.14
592.60	2334.15
592.95	2330.16
593.30	2326.33
593.65	2321.89
594.00	2317.63
594.35	2314.49
594.70	2310.06
595.05	2305.49
595.40	2300.14
595.75	2294.82
596.10	2291.28
596.45	2286.45
596.80	2282.01
597.15	2276.83
597.50	2271.00
597.85	2266.08
598.19	2260.82
598.54	2255.12
598.89	2250.37
599.24	2245.88
599.59	2239.83
599.94	2234.39
600.29	2228.67
600.64	2222.77
600.99	2216.50
601.34	2211.08
601.69	2204.19
602.04	2197.97
602.39	2191.65
602.74	2185.94
603.08	2180.50
603.43	2174.21
603.78	2167.44
604.13	2160.37
604.48	2153.22
604.83	2147.29
605.18	2141.07
605.53	2134.09
605.87	2126.96
606.22	2120.20
606.57	2112.34
606.92	2104.52
607.27	2097.45
607.62	2090.78
607.96	2083.77
608.31	2077.08
608.66	2069.33
609.01	2061.88
609.36	2054.73
609.70	2047.00
610.05	2039.30
610.40	2030.99
610.75	2022.69
611.10	2015.23
611.44	2006.65
611.79	1997.97
612.14	1987.92
612.49	1977.52
612.83	1968.52
613.18	1959.58
613.53	1950.26
613.88	1940.72
614.22	1932.18
614.57	1922.24
614.92	1911.85
615.27	1901.84
615.61	1891.87
615.96	1882.28
616.31	1872.84
616.65	1863.52
617.00	1853.74
617.35	1843.91
617.70	1834.25
618.04	1824.12
618.39	1813.73
618.74	1804.01
619.08	1794.44
619.43	1785.85
619.78	1777.54
620.12	1768.77
620.47	1758.80
620.82	1748.43
621.16	1738.73
621.51	1728.69
621.85	1718.93
622.20	1708.34
622.55	1697.72
622.89	1687.90
623.24	1678.12
623.59	1668.25
623.93	1658.08
624.28	1648.36
624.62	1638.20
624.97	1627.84
625.32	1618.17
625.66	1609.33
626.01	1600.32
626.35	1590.90
626.70	1580.68
627.04	1570.50
627.39	1560.44
627.73	1551.22
628.08	1542.32
628.43	1532.67
628.77	1523.53
629.12	1514.60
629.46	1506.74
629.81	1498.29
630.15	1488.57
630.50	1478.66
630.84	1468.27
631.19	1458.33
631.53	1448.74
631.88	1438.60
632.22	1428.63
632.57	1419.25
632.91	1409.16
633.26	1399.45
633.60	1389.89
633.95	1380.66
634.29	1371.36
634.64	1361.90
634.98	1352.01
635.32	1342.56
635.67	1333.94
636.01	1324.61
636.36	1314.83
636.70	1305.29
637.05	1296.03
637.39	1287.15
637.73	1278.67
638.08	1271.07
638.42	1262.77
638.77	1253.99
639.11	1245.82
639.45	1237.88
639.80	1229.18
640.14	1220.37
640.49	1211.40
640.83	1202.59
641.17	1194.41
641.52	1186.11
641.86	1177.55
642.20	1169.61
642.55	1161.02
642.89	1152.19
643.23	1143.51
643.58	1135.35
643.92	1126.29
644.26	1117.60
644.61	1109.02
644.95	1100.15
645.29	1090.81
645.64	1081.73
645.98	1073.45
646.32	1065.45
646.66	1056.91
647.01	1048.55
647.35	1040.42
647.69	1032.02
648.04	1023.63
648.38	1014.72
648.72	1005.93
649.06	997.47
649.41	989.26
649.75	981.30
650.09	973.46
650.43	965.43
650.78	957.22
651.12	949.67
651.46	942.32
651.80	935.16
652.14	927.77
652.49	920.28
652.83	912.91
653.17	905.12
653.51	897.44
653.85	890.22
654.20	882.98
654.54	875.43
654.88	868.34
655.22	861.18
655.56	854.27
655.90	847.54
656.25	840.92
656.59	833.97
656.93	827.03
657.27	820.00
657.61	813.12
657.95	807.03
658.29	801.11
658.64	794.88
658.98	788.42
659.32	782.04
659.66	775.92
660.00	769.65
660.34	763.66
660.68	757.62
661.02	751.37
661.36	745.51
661.70	739.84
662.05	734.16
662.39	728.72
662.73	723.36
663.07	717.99
663.41	712.47
663.75	706.86
664.09	701.26
664.43	695.91
664.77	690.63
665.11	684.85
665.45	678.97
665.79	673.28
666.13	667.69
666.47	662.21
666.81	656.75
667.15	651.48
667.49	646.36
667.83	641.12
668.17	635.98
668.51	630.92
668.85	626.08
669.19	621.23
669.53	616.24
669.87	611.19
670.21	606.51
670.55	601.86
670.89	597.61
671.23	593.39
671.57	588.97
671.91	584.70
672.25	580.65
672.58	576.51
672.92	572.51
673.26	568.55
673.60	564.74
673.94	560.98
674.28	557.40
674.62	553.65
674.96	550.01
675.30	546.53
675.64	542.94
675.97	539.39
676.31	535.88
676.65	532.35
676.99	528.91
677.33	525.11
677.67	521.49
678.01	517.62
678.34	513.94
678.68	510.52
679.02	506.96
679.36	503.25
679.70	499.75
680.04	496.31
680.37	493.00
680.71	489.71
681.05	486.59
681.39	483.38
681.73	480.31
682.06	477.34
682.40	474.30
682.74	471.14
683.08	467.98
683.42	464.83
683.75	461.93
684.09	458.99
684.43	456.19
684.77	453.31
685.10	450.54
685.44	447.73
685.78	444.81
686.12	442.11
686.45	439.51
686.79	436.83
687.13	434.31
687.46	431.66
687.80	429.02
688.14	426.23
688.48	423.65
688.81	421.00
689.15	418.50
689.49	415.97
689.82	413.46
690.16	410.96
690.50	408.57
690.83	406.06
691.17	403.58
691.51	401.25
691.84	399.03
692.18	396.87
692.52	394.73
692.85	392.66
693.19	390.58
693.52	388.42
693.86	386.28
694.20	384.15
694.53	382.09
694.87	379.93
695.21	377.85
695.54	375.72
695.88	373.63
696.21	371.42
696.55	369.33
696.88	367.36
697.22	365.38
697.56	363.49
697.89	361.64
698.23	359.90
698.56	358.12
698.90	356.38
699.23	354.45
699.57	352.58
699.90	350.72
700.24	348.90
700.58	347.19
700.91	345.53
701.25	344.01
701.58	342.46
701.92	340.91
702.25	339.38
702.59	337.83
702.92	336.32
703.26	334.83
703.59	333.41
703.93	332.16
704.26	330.80
704.60	329.34
704.93	327.93
705.26	326.50
705.60	325.08
705.93	323.65
706.27	322.41
706.60	321.22
706.94	320.01
707.27	318.66
707.61	317.38
707.94	316.07
708.27	314.58
708.61	313.15
708.94	311.83
709.28	310.54
709.61	309.33
709.94	308.17
710.28	307.00
710.61	305.80
710.95	304.40
711.28	303.35
711.61	302.19
711.95	301.09
712.28	299.92
712.61	298.73
712.95	297.66
713.28	296.64
713.61	295.48
713.95	294.39
714.28	293.42
714.61	292.36
714.95	291.37
715.28	290.37
715.61	289.39
715.95	288.47
716.28	287.55
716.61	286.60
716.95	285.63
717.28	284.72
717.61	283.79
717.94	282.96
718.28	281.94
718.61	281.11
718.94	280.22
719.27	279.39
719.61	278.58
719.94	277.74
720.27	276.77
720.60	275.95
720.94	275.16
721.27	274.44
721.60	273.76
721.93	273.07
722.27	272.46
722.60	271.80
722.93	271.10
723.26	270.46
723.59	269.78
723.93	269.18
724.26	268.53
724.59	267.88
724.92	267.29
725.25	266.74
725.59	266.16
725.92	265.64
726.25	265.08
726.58	264.53
726.91	263.97
727.24	263.50
727.57	262.97
727.91	262.38
728.24	261.86
728.57	261.29
728.90	260.78
729.23	260.16
729.56	259.73
729.89	259.22
730.22	258.63
730.55	258.09
730.89	257.56
731.22	257.08
731.55	256.62
731.88	256.09
732.21	255.60
732.54	255.10
732.87	254.59
733.20	254.13
733.53	253.69
733.86	253.25
734.19	252.76
734.52	252.35
734.85	252.11
735.18	251.62
735.51	251.25
735.84	250.81
736.17	250.47
736.50	249.95
736.83	249.81
737.16	249.46
737.49	249.11
737.82	248.71
738.15	248.34
738.48	248.00
738.81	247.62
739.14	247.21
739.47	246.85
739.80	246.51
740.13	246.16
740.46	245.76
740.79	245.37
741.12	245.06
741.45	244.68
741.78	244.23
742.11	243.95
742.44	243.58
742.77	243.30
743.10	242.96
743.43	242.62
743.75	242.07
744.08	241.99
744.41	241.62
744.74	241.28
745.07	240.94
745.40	240.62
745.73	240.40
746.06	240.10
746.39	239.79
746.71	239.43
747.04	239.07
747.37	238.77
747.70	238.46
748.03	238.15
748.36	237.90
748.68	237.59
749.01	237.29
749.34	237.01
749.67	236.72
750.00	236.45
750.33	236.34
750.65	236.11
750.98	235.64
751.31	235.41
751.64	235.21
751.97	235.06
752.29	234.78
752.62	234.47
752.95	234.22
753.28	233.96
753.60	233.76
753.93	233.64
754.26	233.43
754.59	233.21
754.91	232.95
755.24	232.72
755.57	232.53
755.90	232.28
756.22	232.09
756.55	231.84
756.88	231.58
757.20	231.25
757.53	230.98
757.86	230.76
758.19	230.58
758.51	230.37
758.84	230.09
759.17	229.89
759.49	229.71
759.82	229.65
760.15	229.48
760.47	229.30
760.80	229.05
761.13	228.90
761.45	228.71
761.78	228.54
762.11	228.37
762.43	228.19
762.76	228.05
763.08	227.87
763.41	227.74
763.74	227.60
764.06	227.44
764.39	227.29
764.71	227.14
765.04	226.98
765.37	226.83
765.69	226.66
766.02	226.54
766.34	226.36
766.67	226.16
767.00	226.09
767.32	226.05
767.65	226.05
767.97	225.90
768.30	225.78
768.62	225.70
768.95	225.53
769.27	225.38
769.60	225.29
769.92	225.13
770.25	224.98
770.57	224.83
770.90	224.69
771.22	224.58
771.55	224.48
771.87	224.40
772.20	224.28
772.52	224.38
772.85	224.52
773.17	224.41
773.50	224.27
773.82	224.13
774.15	223.92
774.47	223.67
774.80	223.57
775.12	223.48
775.45	223.35
775.77	223.30
776.09	223.22
776.42	223.10
776.74	223.08
777.07	222.96
777.39	222.90
777.72	222.83
778.04	222.77
778.36	222.67
778.69	222.56
779.01	222.51
779.33	222.26
779.66	221.94
779.98	221.86
780.31	221.78
780.63	221.80
780.95	221.77
781.28	221.74
781.60	221.67
781.92	221.60
782.25	221.56
782.57	221.45
782.89	221.39
783.22	221.34
783.54	221.20
783.86	221.19
784.19	221.16
784.51	221.14
784.83	221.05
785.16	220.98
785.48	220.95
785.80	220.90
786.12	220.84
786.45	220.81
786.77	220.79
787.09	220.73
787.42	220.60
787.74	220.56
788.06	220.53
788.38	220.46
788.71	220.35
789.03	220.33
789.35	220.30
789.67	220.24
789.99	220.21
790.32	220.16
790.64	220.12
790.96	220.23
791.28	220.15
791.61	220.09
791.93	220.05
792.25	219.98
792.57	220.05
792.89	219.97
793.21	219.92
793.54	219.84
793.86	219.80
794.18	219.76
794.50	219.68
794.82	219.60
795.14	219.59
795.47	219.63
795.79	219.57
796.11	219.52
796.43	219.45
796.75	219.37
797.07	219.37
797.39	219.32
797.71	219.12
798.04	219.10
798.36	219.08
798.68	219.06
799.00	219.06
799.32	218.92
799.64	218.93
799.96	218.88
800.28	218.88
800.60	218.82
800.92	218.77
801.24	218.74
801.56	218.73
801.89	218.70
802.21	218.68
802.53	218.61
802.85	218.62
803.17	218.70
803.49	218.67
803.81	218.60
804.13	218.57
804.45	218.49
804.77	218.46
805.09	218.44
805.41	218.37
805.73	218.28
806.05	218.24
806.37	218.17
806.69	218.13
807.01	218.10
807.33	218.09
807.65	218.00
807.97	218.04
808.28	218.00
808.60	217.97
808.92	217.90
809.24	218.01
809.56	217.96
809.88	217.85
810.20	217.83
810.52	217.85
810.84	217.78
811.16	217.73
811.48	217.66
811.80	217.70
812.12	217.69
812.43	217.71
812.75	217.66
813.07	217.63
813.39	217.61
813.71	217.53
814.03	217.49
814.35	217.50
814.67	217.39
814.98	217.37
815.30	217.34
815.62	217.28
815.94	217.13
816.26	217.11
816.58	217.07
816.89	217.08
817.21	217.03
817.53	217.04
817.85	217.06
818.17	217.04
818.48	216.95
818.80	216.97
819.12	216.91
819.44	216.90
819.76	216.87
820.07	216.86
820.39	216.85
820.71	216.82
821.03	216.79
821.34	216.80
821.66	216.78
821.98	216.81
822.30	216.78
822.61	216.88
822.93	216.86
823.25	216.83
823.57	216.77
823.88	216.79
824.20	216.79
824.52	216.81
824.83	216.79
825.15	216.75
825.47	216.73
825.79	216.75
826.10	216.70
826.42	216.69
826.74	216.73
827.05	216.72
827.37	216.75
827.69	216.75
828.00	216.71
828.32	216.73
828.64	216.66
828.95	216.78
829.27	216.70
829.58	216.70
829.90	216.73
830.22	216.71
830.53	216.66
830.85	216.59
831.17	216.54
831.48	216.54
831.80	216.54
832.11	216.53
832.43	216.51
832.75	216.50
833.06	216.64
833.38	216.54
833.69	216.56
834.01	216.56
834.32	216.53
834.64	216.53
834.96	216.51
835.27	216.51
835.59	216.41
835.90	216.33
836.22	216.31
836.53	216.28
836.85	216.27
837.16	216.44
837.48	216.46
837.79	216.52
838.11	216.53
838.42	216.51
838.74	216.51
839.05	216.49
839.37	216.47
839.68	216.34
840.00	216.32
840.31	216.32
840.63	216.28
840.94	216.26
841.26	216.22
841.57	216.23
841.88	216.20
842.20	216.16
842.51	216.19
842.83	216.17
843.14	216.32
843.46	216.31
843.77	216.19
844.08	216.19
844.40	216.10
844.71	216.05
845.03	216.05
845.34	216.02
845.65	215.99
845.97	215.98
846.28	216.00
846.60	216.00
846.91	215.94
847.22	215.95
847.54	216.01
847.85	216.00
848.16	215.97
848.48	215.95
848.79	216.02
849.10	216.03
849.42	216.08
849.73	215.90
850.04	215.88
850.36	215.83
850.67	215.83
850.98	215.84
851.30	215.85
851.61	215.84
851.92	215.82
852.23	215.90
852.55	215.90
852.86	215.88
853.17	215.89
853.49	215.94
853.80	215.97
854.11	215.94
854.42	215.96
854.74	215.95
855.05	215.95
855.36	215.85
855.67	215.82
855.99	215.77
856.30	216.01
856.61	215.98
856.92	215.99
857.23	215.98
857.55	215.97
857.86	216.00
858.17	216.01
858.48	216.00
858.79	215.94
859.11	215.95
859.42	215.94
859.73	215.90
860.04	215.90
860.35	215.83
860.66	215.80
860.98	215.79
861.29	215.78
861.60	215.77
861.91	215.83
862.22	215.81
862.53	215.81
862.84	215.56
863.16	215.65
863.47	215.59
863.78	215.56
864.09	215.56
864.40	215.56
864.71	215.54
865.02	215.54
865.33	215.50
865.64	215.47
865.95	215.48
866.27	215.62
866.58	215.60
866.89	215.64
867.20	215.64
867.51	215.61
867.82	215.60
868.13	215.66
868.44	215.60
868.75	215.65
869.06	215.62
869.37	215.65
869.68	215.53
869.99	215.56
870.30	215.60
870.61	215.61
870.92	215.55
871.23	215.56
871.54	215.60
871.85	215.63
872.16	215.65
872.47	215.63
872.78	215.53
873.09	215.55
873.40	215.50
873.71	215.49
874.02	215.49
874.33	215.47
874.64	215.42
874.95	215.45
875.26	215.40
875.56	215.42
875.87	215.37
876.18	215.40
876.49	215.59
876.80	215.57
877.11	215.55
877.42	215.55
877.73	215.56
878.04	215.52
878.35	215.55
878.66	215.55
878.96	215.53
879.27	215.51
879.58	215.47
879.89	215.48
880.20	215.55
880.51	215.57
880.82	215.59
881.12	215.60
881.43	215.56
881.74	215.52
882.05	215.52
882.36	215.58
882.67	215.58
882.97	215.37
883.28	215.35
883.59	215.36
883.90	215.39
884.21	215.40
884.51	215.41
884.82	215.36
885.13	215.35
885.44	215.34
885.74	215.31
886.05	215.32
886.36	215.33
886.67	215.24
886.98	215.33
887.28	215.36
887.59	215.35
887.90	215.36
888.20	215.37
888.51	215.39
888.82	215.34
889.13	215.38
889.43	215.56
889.74	215.57
890.05	215.55
890.35	215.52
890.66	215.47
890.97	215.44
891.28	215.46
891.58	215.49
891.89	215.51
892.20	215.49
892.50	215.48
892.81	215.43
893.12	215.45
893.42	215.33
893.73	215.32
894.04	215.34
894.34	215.38
894.65	215.37
894.95	215.33
895.26	215.34
895.57	215.40
895.87	215.21
896.18	215.23
896.48	215.22
896.79	215.22
897.10	215.23
897.40	215.23
897.71	215.24
898.01	215.22
898.32	215.25
898.63	215.24
898.93	215.26
899.24	215.30
899.54	215.30
899.85	215.31
900.15	215.28
900.46	215.25
900.76	215.26
901.07	215.28
901.38	215.26
901.68	215.29
901.99	215.17
902.29	215.21
902.60	215.16
902.90	215.15
903.21	215.16
903.51	215.17
903.82	215.20
904.12	215.18
904.43	215.18
904.73	215.17
905.03	215.21
905.34	215.36
905.64	215.34
905.95	215.32
906.25	215.31
906.56	215.33
906.86	215.32
907.17	215.30
907.47	215.30
907.77	215.33
908.08	215.30
908.38	215.34
908.69	215.32
908.99	215.38
909.30	215.37
909.60	215.39
909.90	215.42
910.21	215.37
910.51	215.34
910.81	215.34
911.12	215.34
911.42	215.34
911.73	215.14
912.03	215.12
912.33	215.16
912.64	215.16
912.94	215.14
913.24	215.12
913.55	215.12
913.85	215.13
914.15	215.14
914.46	215.18
914.76	215.16
915.06	215.14
915.37	215.07
915.67	215.09
915.97	215.08
916.27	215.01
916.58	215.01
916.88	215.02
917.18	215.01
917.49	215.14
917.79	215.12
918.09	215.16
918.39	215.25
918.70	215.25
919.00	215.22
919.30	215.30
919.60	215.26
919.91	215.23
920.21	215.22
920.51	215.14
920.81	215.10
921.12	215.14
921.42	215.14
921.72	215.16
922.02	215.18
922.32	215.22
922.63	215.23
922.93	215.34
923.23	215.35
923.53	215.33
923.83	215.20
924.13	215.25
924.44	215.27
924.74	215.29
925.04	215.30
925.34	215.35
925.64	215.30
925.94	215.31
926.24	215.40
926.55	215.38
926.85	215.42
927.15	215.44
927.45	215.44
927.75	215.44
928.05	215.44
928.35	215.43
928.65	215.45
928.95	215.46
929.26	215.39
929.56	215.43
929.86	215.47
930.16	215.48
930.46	215.46
930.76	215.46
931.06	215.35
931.36	215.30
931.66	215.33
931.96	215.33
932.26	215.38
932.56	215.32
932.86	215.35
933.16	215.37
933.46	215.34
933.76	215.31
934.06	215.37
934.36	215.44
934.66	215.42
934.96	215.36
935.26	215.38
935.56	215.36
935.86	215.29
936.16	215.26
936.46	215.23
936.76	215.21
937.06	215.14
937.36	215.17
937.66	215.18
937.96	215.16
938.26	215.12
938.56	215.08
938.86	215.09
939.16	215.10
939.46	215.09
939.76	215.16
940.06	215.17
940.35	215.07
940.65	214.98
940.95	215.01
941.25	215.00
941.55	214.98
941.85	214.99
942.15	215.01
942.45	215.06
942.75	215.04
943.04	215.03
943.34	215.10
943.64	215.11
943.94	215.10
944.24	215.09
944.54	215.14
944.84	215.13
945.13	215.10
945.43	215.07
945.73	215.07
946.03	214.98
946.33	214.93
946.62	214.93
946.92	214.94
947.22	214.96
947.52	214.96
947.82	214.95
948.11	214.93
948.41	214.90
948.71	214.84
949.01	214.86
949.31	214.84
949.60	214.82
949.90	214.84
950.20	214.83
950.50	214.83
950.79	214.80
951.09	214.86
951.39	214.87
951.69	214.85
951.98	214.87
952.28	214.93
952.58	214.94
952.87	214.96
953.17	214.94
953.47	214.89
953.76	214.87
954.06	214.85
954.36	214.83
954.66	214.84
954.95	214.89
955.25	214.87
955.55	214.88
955.84	214.81
956.14	214.84
956.44	214.84
956.73	214.82
957.03	214.82
957.32	214.79
957.62	214.77
957.92	214.84
958.21	214.82
958.51	215.03
958.81	215.06
959.10	215.13
959.40	215.21
959.69	215.21
959.99	215.26
960.29	215.28
960.58	215.28
960.88	215.33
961.17	215.32
961.47	215.35
961.76	215.38
962.06	215.44
962.36	215.39
962.65	215.40
962.95	215.39
963.24	215.37
963.54	215.35
963.83	215.37
964.13	215.32
964.42	215.26
964.72	215.08
965.01	215.11
965.31	215.06
965.60	215.02
965.90	215.15
966.19	215.12
966.49	215.15
966.78	215.13
967.08	215.15
967.37	215.15
967.67	215.11
967.96	215.13
968.26	215.12
968.55	215.16
968.85	215.15
969.14	215.17
969.43	215.19
969.73	215.18
970.02	215.19
970.32	215.21
970.61	215.21
970.91	215.15
971.20	215.09
971.49	215.08
971.79	215.11
972.08	214.95
972.38	214.99
972.67	214.96
972.96	215.01
973.26	214.96
973.55	215.01
973.85	215.00
974.14	214.98
974.43	214.97
974.73	214.93
975.02	214.90
975.31	214.89
975.61	214.89
975.90	214.87
976.19	214.86
976.49	214.87
976.78	214.89
977.07	214.88
977.37	214.89
977.66	214.89
977.95	214.84
978.24	214.85
978.54	214.86
978.83	214.84
979.12	214.82
979.42	214.80
979.71	214.77
980.00	214.80
980.29	214.80
980.59	214.79
980.88	214.83
981.17	214.84
981.46	214.84
981.76	214.86
982.05	214.94
982.34	214.94
982.63	214.95
982.93	214.98
983.22	215.06
983.51	215.04
983.80	215.06
984.09	215.10
984.39	215.12
984.68	215.08
984.97	215.11
985.26	215.09
985.55	215.12
985.85	215.06
986.14	215.11
986.43	215.13
986.72	215.12
987.01	215.05
987.30	215.05
987.59	215.04
987.89	215.04
988.18	214.96
988.47	214.95
988.76	214.91
989.05	214.86
989.34	214.81
989.63	214.91
989.92	214.90
990.22	214.87
990.51	214.85
990.80	214.85
991.09	214.86
991.38	214.91
991.67	214.89
991.96	214.90
992.25	214.88
992.54	214.84
992.83	214.82
993.12	214.83
993.41	214.86
993.70	214.95
993.99	214.92
994.28	214.98
994.58	215.01
994.87	215.00
995.16	215.01
995.45	214.99
995.74	214.94
996.03	214.96
996.32	215.01
996.61	215.04
996.90	215.03
997.19	215.01
997.48	215.01
997.77	215.00
998.06	215.02
998.34	215.01
998.63	215.02
998.92	215.04
999.21	215.07
999.50	215.07
999.79	214.98
1000.08	215.01
1000.37	214.99
1000.66	214.95
1000.95	215.03
1001.24	215.05
1001.53	215.10
1001.82	215.06
1002.11	215.02
1002.40	215.02
1002.68	215.05
1002.97	215.18
1003.26	215.17
1003.55	215.14
1003.84	215.12
1004.13	215.18
1004.42	215.17
1004.71	215.13
1004.99	215.12
1005.28	215.15
1005.57	215.14
1005.86	215.11
1006.15	215.09
1006.44	215.07
1006.72	215.07
1007.01	215.02
1007.30	215.02
1007.59	214.97
1007.88	214.99
1008.17	214.99
1008.45	214.94
1008.74	214.88
1009.03	214.82
1009.32	214.81
1009.60	214.79
1009.89	214.80
1010.18	214.72
1010.47	214.66
1010.76	214.71
1011.04	214.69
1011.33	214.71
1011.62	214.70
1011.91	214.72
1012.19	214.78
1012.48	214.78
1012.77	214.78
1013.05	214.89
1013.34	214.87
1013.63	214.86
1013.92	214.87
1014.20	214.85
1014.49	214.87
1014.78	214.88
1015.06	214.80
1015.35	214.81
1015.64	214.85
1015.92	214.86
1016.21	214.84
1016.50	214.91
1016.78	214.91
1017.07	214.92
1017.36	214.87
1017.64	214.82
1017.93	214.87
1018.22	214.81
1018.50	214.82
1018.79	214.81
1019.08	214.68
1019.36	214.71
1019.65	214.70
1019.93	214.76
1020.22	214.81
1020.51	214.90
1020.79	214.84
1021.08	214.55
1021.36	214.57
1021.65	214.77
1021.94	214.55
1022.22	215.03
1022.51	214.37
1022.79	216.18
1023.08	215.25
1023.36	217.10
1023.65	213.74
>>>>>End Processed Spectral Data<<<<<
