SpectraSuite Data File
++++++++++++++++++++++++++++++++++++
Date: Tue Jan 29 16:06:35 EST 2013
User: group
Dark Spectrum Present: No
Reference Spectrum Present: No
Number of Sampled Component Spectra: 1
Spectrometers: USB2E7196
Integration Time (usec): 65000 (USB2E7196)
Spectra Averaged: 100 (USB2E7196)
Boxcar Smoothing: 10 (USB2E7196)
Correct for Electrical Dark: No (USB2E7196)
Strobe/Lamp Enabled: No (USB2E7196)
Correct for Detector Non-linearity: No (USB2E7196)
Correct for Stray Light: No (USB2E7196)
Number of Pixels in Processed Spectrum: 2048
>>>>>Begin Processed Spectral Data<<<<<
339.09	0.00
339.48	202.60
339.86	204.27
340.24	205.58
340.63	206.87
341.01	211.41
341.39	209.75
341.78	211.85
342.16	213.17
342.54	212.83
342.93	202.01
343.31	212.22
343.69	212.81
344.07	213.29
344.46	213.71
344.84	214.12
345.22	214.31
345.60	214.61
345.99	214.81
346.37	214.91
346.75	215.03
347.13	215.09
347.52	215.20
347.90	215.32
348.28	215.39
348.66	215.47
349.05	215.46
349.43	215.54
349.81	215.61
350.19	215.64
350.57	215.69
350.96	215.80
351.34	215.91
351.72	215.95
352.10	216.05
352.48	216.14
352.87	216.21
353.25	216.28
353.63	216.30
354.01	216.34
354.39	216.42
354.77	216.49
355.15	216.62
355.54	216.64
355.92	216.62
356.30	216.70
356.68	216.91
357.06	216.97
357.44	216.94
357.82	216.99
358.20	217.07
358.58	217.12
358.97	217.13
359.35	217.22
359.73	217.31
360.11	217.34
360.49	217.38
360.87	217.39
361.25	217.44
361.63	217.57
362.01	217.59
362.39	217.59
362.77	217.63
363.15	217.64
363.53	217.66
363.91	217.70
364.29	217.70
364.67	217.49
365.05	217.50
365.43	217.57
365.81	217.61
366.19	217.70
366.57	217.84
366.95	217.83
367.33	217.79
367.71	217.78
368.09	217.83
368.47	217.83
368.85	217.78
369.23	217.80
369.61	217.71
369.99	217.77
370.37	217.80
370.75	217.89
371.13	217.82
371.51	217.79
371.89	217.79
372.27	217.77
372.65	217.79
373.03	217.77
373.41	217.70
373.78	217.63
374.16	217.49
374.54	217.36
374.92	217.28
375.30	217.23
375.68	217.16
376.06	217.13
376.44	217.10
376.82	217.09
377.19	217.01
377.57	216.95
377.95	216.83
378.33	216.78
378.71	216.60
379.09	216.62
379.47	216.59
379.84	216.47
380.22	216.42
380.60	216.33
380.98	216.29
381.36	216.26
381.73	216.21
382.11	216.21
382.49	216.17
382.87	216.15
383.25	216.11
383.62	216.33
384.00	216.23
384.38	216.16
384.76	216.23
385.13	216.31
385.51	216.29
385.89	216.24
386.27	216.20
386.64	216.19
387.02	216.12
387.40	216.08
387.78	216.10
388.15	216.10
388.53	216.10
388.91	216.06
389.29	216.03
389.66	216.04
390.04	215.96
390.42	215.96
390.79	215.94
391.17	215.92
391.55	215.65
391.92	215.64
392.30	215.69
392.68	215.63
393.05	215.60
393.43	215.60
393.81	215.63
394.18	215.60
394.56	215.61
394.94	215.65
395.31	215.67
395.69	215.74
396.06	215.76
396.44	215.78
396.82	215.80
397.19	215.94
397.57	215.95
397.95	216.05
398.32	216.05
398.70	216.10
399.07	216.21
399.45	216.27
399.82	216.34
400.20	216.33
400.58	216.36
400.95	216.32
401.33	216.43
401.70	216.65
402.08	216.75
402.45	216.83
402.83	216.97
403.20	217.09
403.58	217.17
403.95	217.33
404.33	217.50
404.71	217.64
405.08	217.86
405.46	218.03
405.83	218.22
406.21	218.43
406.58	218.65
406.96	218.85
407.33	219.10
407.70	219.38
408.08	219.89
408.45	220.23
408.83	220.65
409.20	221.01
409.58	221.24
409.95	221.66
410.33	222.16
410.70	222.57
411.08	223.11
411.45	223.65
411.82	224.21
412.20	224.86
412.57	225.68
412.95	226.25
413.32	227.05
413.69	227.85
414.07	228.68
414.44	229.66
414.82	230.65
415.19	231.80
415.56	232.94
415.94	234.03
416.31	235.38
416.68	236.70
417.06	238.21
417.43	239.71
417.81	241.40
418.18	243.12
418.55	244.98
418.93	246.91
419.30	248.95
419.67	251.09
420.04	253.25
420.42	255.54
420.79	258.24
421.16	260.91
421.54	263.73
421.91	266.63
422.28	269.62
422.66	272.77
423.03	275.91
423.40	279.20
423.77	282.70
424.15	286.22
424.52	289.91
424.89	293.92
425.26	297.88
425.64	301.65
426.01	305.80
426.38	310.12
426.75	314.57
427.13	319.12
427.50	323.92
427.87	329.00
428.24	334.03
428.61	338.87
428.99	344.23
429.36	350.06
429.73	355.80
430.10	361.47
430.47	367.39
430.85	373.51
431.22	379.94
431.59	386.80
431.96	393.39
432.33	400.60
432.70	407.67
433.08	415.87
433.45	423.61
433.82	431.38
434.19	440.00
434.56	448.34
434.93	456.40
435.30	464.36
435.68	473.19
436.05	481.83
436.42	490.41
436.79	498.33
437.16	506.73
437.53	515.60
437.90	524.41
438.27	533.01
438.64	541.93
439.01	550.20
439.38	557.54
439.75	564.68
440.13	572.81
440.50	580.47
440.87	586.64
441.24	593.05
441.61	600.05
441.98	605.17
442.35	611.28
442.72	617.38
443.09	623.17
443.46	626.67
443.83	629.05
444.20	631.14
444.57	634.09
444.94	635.47
445.31	636.89
445.68	638.21
446.05	638.80
446.42	637.95
446.79	637.02
447.16	635.90
447.53	635.13
447.90	631.92
448.27	628.68
448.64	624.21
449.01	621.01
449.37	615.37
449.74	609.89
450.11	603.17
450.48	596.02
450.85	588.89
451.22	582.68
451.59	576.80
451.96	571.17
452.33	563.62
452.70	556.77
453.07	548.59
453.43	540.32
453.80	532.30
454.17	524.63
454.54	517.32
454.91	509.51
455.28	501.82
455.65	494.72
456.02	487.58
456.38	481.54
456.75	474.00
457.12	467.64
457.49	461.41
457.86	455.57
458.23	450.42
458.59	444.74
458.96	439.00
459.33	433.92
459.70	428.77
460.07	424.65
460.43	419.96
460.80	415.54
461.17	411.67
461.54	407.65
461.91	403.77
462.27	399.83
462.64	396.50
463.01	392.87
463.38	389.32
463.74	385.73
464.11	382.57
464.48	379.80
464.85	376.83
465.21	374.47
465.58	371.84
465.95	368.84
466.32	366.30
466.68	363.76
467.05	361.31
467.42	358.87
467.78	356.34
468.15	353.89
468.52	352.08
468.88	349.71
469.25	347.58
469.62	345.89
469.98	344.07
470.35	342.33
470.72	340.69
471.08	338.94
471.45	337.52
471.82	336.09
472.18	334.52
472.55	333.39
472.92	332.11
473.28	331.02
473.65	329.91
474.02	328.83
474.38	328.00
474.75	327.25
475.11	326.50
475.48	325.93
475.85	325.49
476.21	325.02
476.58	324.68
476.94	324.51
477.31	324.21
477.67	323.97
478.04	323.89
478.41	323.86
478.77	324.06
479.14	324.03
479.50	324.18
479.87	324.51
480.23	324.82
480.60	325.03
480.96	325.34
481.33	325.97
481.69	326.59
482.06	327.14
482.42	327.65
482.79	328.26
483.15	329.10
483.52	330.07
483.88	331.00
484.25	331.98
484.61	333.00
484.98	334.04
485.34	335.34
485.71	336.68
486.07	338.17
486.44	339.49
486.80	341.05
487.17	342.72
487.53	344.53
487.90	346.37
488.26	348.43
488.62	350.57
488.99	352.57
489.35	354.67
489.72	357.05
490.08	359.59
490.44	362.13
490.81	364.79
491.17	367.50
491.54	370.45
491.90	373.46
492.26	376.69
492.63	380.12
492.99	383.57
493.36	387.24
493.72	391.07
494.08	395.05
494.45	399.35
494.81	403.66
495.17	408.14
495.54	412.81
495.90	417.59
496.26	422.54
496.63	427.75
496.99	433.18
497.35	438.74
497.72	444.51
498.08	450.42
498.44	456.47
498.80	462.84
499.17	469.34
499.53	476.02
499.89	482.87
500.26	489.76
500.62	496.79
500.98	504.16
501.34	511.56
501.71	519.32
502.07	527.04
502.43	535.05
502.79	543.15
503.16	551.50
503.52	560.13
503.88	568.74
504.24	577.63
504.60	586.63
504.97	595.83
505.33	605.05
505.69	614.90
506.05	624.75
506.41	634.59
506.78	644.62
507.14	654.86
507.50	665.26
507.86	675.92
508.22	686.76
508.59	697.35
508.95	708.39
509.31	719.55
509.67	730.93
510.03	742.30
510.39	754.03
510.75	765.86
511.12	777.65
511.48	789.79
511.84	801.95
512.20	814.19
512.56	826.76
512.92	839.50
513.28	852.04
513.64	864.72
514.00	877.45
514.37	890.32
514.73	903.28
515.09	916.11
515.45	928.86
515.81	941.68
516.17	954.91
516.53	967.88
516.89	980.84
517.25	993.84
517.61	1007.21
517.97	1020.42
518.33	1033.42
518.69	1046.76
519.05	1060.30
519.41	1073.79
519.77	1087.46
520.13	1100.59
520.49	1113.53
520.85	1126.75
521.21	1139.86
521.57	1153.33
521.93	1166.16
522.29	1179.66
522.65	1193.18
523.01	1206.60
523.37	1219.59
523.73	1232.71
524.09	1245.81
524.45	1259.06
524.81	1272.33
525.17	1285.47
525.53	1298.32
525.89	1311.30
526.25	1324.22
526.61	1336.69
526.97	1349.55
527.33	1362.15
527.68	1375.30
528.04	1388.51
528.40	1401.30
528.76	1414.31
529.12	1426.91
529.48	1439.90
529.84	1451.87
530.20	1464.32
530.56	1476.77
530.91	1489.79
531.27	1502.23
531.63	1514.58
531.99	1526.96
532.35	1538.91
532.71	1550.93
533.07	1563.49
533.42	1575.45
533.78	1587.30
534.14	1599.07
534.50	1610.00
534.86	1621.49
535.21	1632.03
535.57	1643.29
535.93	1654.35
536.29	1665.25
536.65	1676.30
537.00	1687.04
537.36	1698.20
537.72	1708.97
538.08	1719.86
538.44	1730.38
538.79	1741.20
539.15	1751.74
539.51	1762.23
539.87	1773.37
540.22	1783.96
540.58	1794.56
540.94	1805.16
541.29	1815.15
541.65	1824.64
542.01	1834.93
542.37	1844.65
542.72	1854.59
543.08	1864.08
543.44	1874.19
543.79	1883.06
544.15	1892.28
544.51	1902.00
544.87	1911.58
545.22	1920.49
545.58	1929.22
545.94	1937.80
546.29	1946.02
546.65	1954.29
547.01	1962.27
547.36	1969.61
547.72	1977.03
548.07	1984.39
548.43	1991.84
548.79	1999.33
549.14	2007.25
549.50	2015.26
549.86	2022.72
550.21	2029.83
550.57	2037.15
550.92	2043.69
551.28	2051.09
551.64	2058.23
551.99	2065.42
552.35	2072.42
552.70	2079.18
553.06	2085.57
553.41	2091.76
553.77	2098.07
554.13	2104.23
554.48	2111.17
554.84	2118.03
555.19	2124.49
555.55	2130.92
555.90	2137.05
556.26	2143.70
556.61	2149.48
556.97	2154.42
557.32	2160.22
557.68	2166.60
558.03	2172.23
558.39	2177.40
558.74	2183.30
559.10	2188.84
559.45	2194.46
559.81	2199.83
560.16	2205.19
560.52	2211.04
560.87	2217.38
561.23	2223.46
561.58	2230.06
561.94	2235.15
562.29	2240.08
562.64	2246.20
563.00	2251.65
563.35	2257.24
563.71	2263.08
564.06	2268.96
564.42	2274.86
564.77	2280.09
565.12	2285.24
565.48	2290.62
565.83	2296.23
566.19	2301.76
566.54	2307.10
566.89	2311.79
567.25	2316.50
567.60	2322.34
567.96	2327.61
568.31	2332.29
568.66	2336.39
569.02	2340.47
569.37	2344.28
569.72	2348.65
570.08	2352.24
570.43	2355.46
570.78	2358.52
571.14	2361.36
571.49	2364.48
571.84	2368.16
572.20	2371.08
572.55	2374.35
572.90	2376.62
573.26	2379.77
573.61	2382.22
573.96	2384.50
574.31	2386.37
574.67	2388.29
575.02	2389.14
575.37	2390.71
575.72	2391.63
576.08	2393.43
576.43	2393.71
576.78	2394.47
577.13	2396.45
577.49	2397.64
577.84	2398.99
578.19	2400.80
578.54	2401.54
578.90	2402.66
579.25	2402.63
579.60	2402.85
579.95	2402.13
580.30	2402.57
580.66	2401.86
581.01	2400.49
581.36	2398.44
581.71	2397.38
582.06	2396.67
582.42	2395.98
582.77	2393.95
583.12	2392.46
583.47	2391.39
583.82	2390.94
584.17	2389.97
584.53	2387.71
584.88	2385.92
585.23	2384.17
585.58	2382.00
585.93	2379.98
586.28	2377.81
586.63	2375.60
586.98	2373.61
587.34	2371.99
587.69	2369.85
588.04	2368.07
588.39	2366.74
588.74	2364.61
589.09	2362.24
589.44	2359.18
589.79	2356.93
590.14	2355.30
590.49	2352.70
590.84	2349.03
591.19	2346.30
591.54	2343.00
591.89	2339.15
592.25	2336.00
592.60	2331.95
592.95	2327.99
593.30	2324.06
593.65	2319.90
594.00	2315.71
594.35	2312.65
594.70	2308.07
595.05	2303.40
595.40	2297.99
595.75	2292.65
596.10	2288.95
596.45	2284.25
596.80	2279.89
597.15	2274.86
597.50	2268.99
597.85	2264.13
598.19	2259.04
598.54	2253.29
598.89	2248.58
599.24	2244.32
599.59	2238.34
599.94	2232.89
600.29	2227.08
600.64	2221.28
600.99	2214.72
601.34	2209.37
601.69	2202.48
602.04	2196.26
602.39	2190.00
602.74	2184.20
603.08	2178.68
603.43	2172.36
603.78	2165.59
604.13	2158.43
604.48	2151.34
604.83	2145.49
605.18	2139.36
605.53	2132.36
605.87	2125.39
606.22	2118.44
606.57	2110.59
606.92	2102.74
607.27	2095.79
607.62	2089.16
607.96	2082.24
608.31	2075.72
608.66	2068.04
609.01	2060.55
609.36	2053.52
609.70	2045.82
610.05	2038.09
610.40	2029.78
610.75	2021.53
611.10	2013.79
611.44	2005.19
611.79	1996.37
612.14	1986.30
612.49	1975.77
612.83	1966.71
613.18	1957.57
613.53	1948.27
613.88	1938.65
614.22	1930.10
614.57	1920.21
614.92	1909.78
615.27	1899.58
615.61	1889.65
615.96	1880.00
616.31	1870.49
616.65	1861.09
617.00	1851.19
617.35	1841.46
617.70	1831.86
618.04	1821.74
618.39	1811.50
618.74	1801.88
619.08	1792.41
619.43	1783.66
619.78	1775.41
620.12	1766.61
620.47	1756.91
620.82	1746.69
621.16	1737.03
621.51	1727.10
621.85	1717.31
622.20	1706.78
622.55	1696.26
622.89	1686.44
623.24	1676.74
623.59	1667.00
623.93	1656.85
624.28	1647.29
624.62	1637.14
624.97	1626.76
625.32	1617.17
625.66	1608.43
626.01	1599.59
626.35	1590.01
626.70	1579.86
627.04	1569.78
627.39	1559.78
627.73	1550.46
628.08	1541.33
628.43	1531.62
628.77	1522.42
629.12	1513.54
629.46	1505.73
629.81	1497.31
630.15	1487.63
630.50	1477.71
630.84	1467.26
631.19	1457.48
631.53	1447.86
631.88	1437.70
632.22	1427.63
632.57	1418.13
632.91	1407.96
633.26	1398.06
633.60	1388.60
633.95	1379.34
634.29	1369.82
634.64	1360.46
634.98	1350.52
635.32	1341.32
635.67	1332.74
636.01	1323.41
636.36	1313.55
636.70	1304.04
637.05	1294.67
637.39	1285.70
637.73	1277.10
638.08	1269.49
638.42	1261.09
638.77	1252.41
639.11	1244.15
639.45	1236.33
639.80	1227.68
640.14	1219.09
640.49	1210.22
640.83	1201.39
641.17	1193.34
641.52	1185.13
641.86	1176.57
642.20	1168.68
642.55	1160.04
642.89	1151.24
643.23	1142.59
643.58	1134.49
643.92	1125.47
644.26	1116.82
644.61	1108.38
644.95	1099.59
645.29	1090.35
645.64	1081.17
645.98	1072.84
646.32	1064.97
646.66	1056.46
647.01	1048.12
647.35	1039.82
647.69	1031.43
648.04	1023.08
648.38	1014.17
648.72	1005.41
649.06	996.95
649.41	988.83
649.75	980.83
650.09	972.94
650.43	964.92
650.78	956.65
651.12	948.99
651.46	941.56
651.80	934.24
652.14	926.95
652.49	919.43
652.83	912.26
653.17	904.46
653.51	896.92
653.85	889.75
654.20	882.54
654.54	875.00
654.88	867.84
655.22	860.68
655.56	853.75
655.90	847.12
656.25	840.39
656.59	833.37
656.93	826.41
657.27	819.34
657.61	812.49
657.95	806.48
658.29	800.64
658.64	794.56
658.98	788.25
659.32	781.74
659.66	775.55
660.00	769.23
660.34	763.27
660.68	757.13
661.02	750.89
661.36	745.01
661.70	739.42
662.05	733.75
662.39	728.36
662.73	723.04
663.07	717.61
663.41	712.14
663.75	706.67
664.09	701.08
664.43	695.76
664.77	690.45
665.11	684.60
665.45	678.67
665.79	673.00
666.13	667.28
666.47	661.83
666.81	656.54
667.15	651.19
667.49	646.08
667.83	640.88
668.17	635.73
668.51	630.65
668.85	625.68
669.19	620.89
669.53	615.95
669.87	610.88
670.21	606.16
670.55	601.49
670.89	597.12
671.23	592.90
671.57	588.57
671.91	584.31
672.25	580.27
672.58	576.23
672.92	572.17
673.26	568.38
673.60	564.56
673.94	560.76
674.28	557.16
674.62	553.40
674.96	549.75
675.30	546.19
675.64	542.62
675.97	539.17
676.31	535.63
676.65	532.01
676.99	528.54
677.33	524.78
677.67	521.18
678.01	517.32
678.34	513.68
678.68	510.17
679.02	506.64
679.36	502.94
679.70	499.41
680.04	495.98
680.37	492.60
680.71	489.36
681.05	486.19
681.39	483.07
681.73	479.93
682.06	476.88
682.40	473.84
682.74	470.68
683.08	467.54
683.42	464.35
683.75	461.45
684.09	458.52
684.43	455.74
684.77	452.88
685.10	450.13
685.44	447.31
685.78	444.42
686.12	441.72
686.45	439.09
686.79	436.45
687.13	433.91
687.46	431.31
687.80	428.68
688.14	425.88
688.48	423.31
688.81	420.74
689.15	418.32
689.49	415.79
689.82	413.30
690.16	410.73
690.50	408.37
690.83	405.89
691.17	403.40
691.51	401.01
691.84	398.81
692.18	396.65
692.52	394.49
692.85	392.42
693.19	390.27
693.52	388.12
693.86	385.96
694.20	383.84
694.53	381.75
694.87	379.62
695.21	377.56
695.54	375.41
695.88	373.31
696.21	371.09
696.55	369.05
696.88	367.04
697.22	365.13
697.56	363.31
697.89	361.54
698.23	359.82
698.56	358.08
698.90	356.35
699.23	354.45
699.57	352.57
699.90	350.76
700.24	349.11
700.58	347.42
700.91	345.80
701.25	344.24
701.58	342.67
701.92	341.10
702.25	339.57
702.59	337.99
702.92	336.52
703.26	335.00
703.59	333.60
703.93	332.41
704.26	330.99
704.60	329.49
704.93	327.98
705.26	326.49
705.60	325.06
705.93	323.57
706.27	322.26
706.60	321.04
706.94	319.86
707.27	318.40
707.61	317.11
707.94	315.79
708.27	314.32
708.61	312.91
708.94	311.61
709.28	310.37
709.61	309.16
709.94	307.94
710.28	306.76
710.61	305.56
710.95	304.12
711.28	303.09
711.61	301.95
711.95	300.87
712.28	299.74
712.61	298.59
712.95	297.57
713.28	296.58
713.61	295.47
713.95	294.31
714.28	293.35
714.61	292.32
714.95	291.35
715.28	290.40
715.61	289.38
715.95	288.44
716.28	287.50
716.61	286.55
716.95	285.62
717.28	284.75
717.61	283.78
717.94	282.95
718.28	281.97
718.61	281.09
718.94	280.23
719.27	279.43
719.61	278.65
719.94	277.79
720.27	276.87
720.60	276.05
720.94	275.31
721.27	274.57
721.60	273.91
721.93	273.20
722.27	272.60
722.60	271.98
722.93	271.29
723.26	270.64
723.59	269.94
723.93	269.34
724.26	268.69
724.59	268.11
724.92	267.51
725.25	267.01
725.59	266.51
725.92	265.95
726.25	265.37
726.58	264.76
726.91	264.21
727.24	263.66
727.57	263.09
727.91	262.49
728.24	261.96
728.57	261.37
728.90	260.79
729.23	260.16
729.56	259.73
729.89	259.21
730.22	258.63
730.55	258.15
730.89	257.64
731.22	257.14
731.55	256.60
731.88	256.13
732.21	255.53
732.54	254.97
732.87	254.50
733.20	254.04
733.53	253.61
733.86	253.17
734.19	252.71
734.52	252.30
734.85	252.02
735.18	251.53
735.51	251.15
735.84	250.75
736.17	250.39
736.50	249.88
736.83	249.74
737.16	249.39
737.49	249.02
737.82	248.60
738.15	248.25
738.48	247.89
738.81	247.46
739.14	247.12
739.47	246.72
739.80	246.33
740.13	246.02
740.46	245.61
740.79	245.22
741.12	244.91
741.45	244.58
741.78	244.15
742.11	243.90
742.44	243.53
742.77	243.24
743.10	242.90
743.43	242.53
743.75	241.95
744.08	241.88
744.41	241.53
744.74	241.20
745.07	240.78
745.40	240.51
745.73	240.30
746.06	239.97
746.39	239.74
746.71	239.42
747.04	239.06
747.37	238.76
747.70	238.53
748.03	238.21
748.36	237.95
748.68	237.65
749.01	237.28
749.34	237.02
749.67	236.72
750.00	236.50
750.33	236.39
750.65	236.17
750.98	235.65
751.31	235.39
751.64	235.16
751.97	235.06
752.29	234.80
752.62	234.46
752.95	234.22
753.28	233.94
753.60	233.72
753.93	233.58
754.26	233.40
754.59	233.09
754.91	232.85
755.24	232.62
755.57	232.38
755.90	232.17
756.22	231.95
756.55	231.71
756.88	231.43
757.20	231.08
757.53	230.82
757.86	230.64
758.19	230.47
758.51	230.28
758.84	229.98
759.17	229.77
759.49	229.62
759.82	229.52
760.15	229.34
760.47	229.16
760.80	228.88
761.13	228.72
761.45	228.57
761.78	228.37
762.11	228.21
762.43	228.03
762.76	227.87
763.08	227.74
763.41	227.59
763.74	227.45
764.06	227.33
764.39	227.18
764.71	227.03
765.04	226.87
765.37	226.71
765.69	226.58
766.02	226.46
766.34	226.27
766.67	226.08
767.00	225.99
767.32	225.98
767.65	226.00
767.97	225.87
768.30	225.74
768.62	225.64
768.95	225.47
769.27	225.37
769.60	225.28
769.92	225.12
770.25	224.99
770.57	224.84
770.90	224.71
771.22	224.59
771.55	224.47
771.87	224.37
772.20	224.25
772.52	224.30
772.85	224.42
773.17	224.33
773.50	224.20
773.82	224.06
774.15	223.85
774.47	223.64
774.80	223.50
775.12	223.42
775.45	223.31
775.77	223.23
776.09	223.15
776.42	223.07
776.74	223.05
777.07	222.98
777.39	222.91
777.72	222.80
778.04	222.69
778.36	222.59
778.69	222.53
779.01	222.46
779.33	222.20
779.66	221.88
779.98	221.80
780.31	221.74
780.63	221.76
780.95	221.74
781.28	221.62
781.60	221.56
781.92	221.49
782.25	221.43
782.57	221.38
782.89	221.30
783.22	221.22
783.54	221.11
783.86	221.06
784.19	220.99
784.51	220.99
784.83	220.96
785.16	220.89
785.48	220.84
785.80	220.81
786.12	220.77
786.45	220.71
786.77	220.66
787.09	220.57
787.42	220.43
787.74	220.35
788.06	220.34
788.38	220.27
788.71	220.16
789.03	220.13
789.35	220.11
789.67	220.05
789.99	220.04
790.32	219.96
790.64	219.92
790.96	220.00
791.28	219.86
791.61	219.81
791.93	219.78
792.25	219.74
792.57	219.83
792.89	219.73
793.21	219.72
793.54	219.64
793.86	219.59
794.18	219.57
794.50	219.48
794.82	219.43
795.14	219.40
795.47	219.40
795.79	219.39
796.11	219.28
796.43	219.22
796.75	219.14
797.07	219.10
797.39	219.06
797.71	218.90
798.04	218.94
798.36	218.90
798.68	218.86
799.00	218.81
799.32	218.67
799.64	218.69
799.96	218.65
800.28	218.66
800.60	218.61
800.92	218.58
801.24	218.55
801.56	218.53
801.89	218.48
802.21	218.43
802.53	218.35
802.85	218.37
803.17	218.43
803.49	218.37
803.81	218.34
804.13	218.26
804.45	218.20
804.77	218.17
805.09	218.12
805.41	218.07
805.73	217.99
806.05	217.92
806.37	217.88
806.69	217.81
807.01	217.79
807.33	217.81
807.65	217.70
807.97	217.77
808.28	217.71
808.60	217.71
808.92	217.70
809.24	217.78
809.56	217.74
809.88	217.64
810.20	217.65
810.52	217.63
810.84	217.58
811.16	217.54
811.48	217.51
811.80	217.58
812.12	217.57
812.43	217.60
812.75	217.55
813.07	217.52
813.39	217.51
813.71	217.43
814.03	217.38
814.35	217.38
814.67	217.28
814.98	217.22
815.30	217.20
815.62	217.15
815.94	217.02
816.26	216.99
816.58	216.95
816.89	216.94
817.21	216.89
817.53	216.91
817.85	216.92
818.17	216.88
818.48	216.80
818.80	216.82
819.12	216.81
819.44	216.77
819.76	216.75
820.07	216.76
820.39	216.75
820.71	216.75
821.03	216.77
821.34	216.72
821.66	216.73
821.98	216.71
822.30	216.70
822.61	216.82
822.93	216.79
823.25	216.77
823.57	216.72
823.88	216.77
824.20	216.75
824.52	216.77
824.83	216.72
825.15	216.69
825.47	216.64
825.79	216.63
826.10	216.61
826.42	216.59
826.74	216.57
827.05	216.57
827.37	216.58
827.69	216.52
828.00	216.57
828.32	216.59
828.64	216.55
828.95	216.63
829.27	216.53
829.58	216.53
829.90	216.56
830.22	216.56
830.53	216.46
830.85	216.45
831.17	216.40
831.48	216.40
831.80	216.39
832.11	216.36
832.43	216.30
832.75	216.27
833.06	216.37
833.38	216.29
833.69	216.30
834.01	216.29
834.32	216.28
834.64	216.20
834.96	216.16
835.27	216.17
835.59	216.11
835.90	216.05
836.22	216.03
836.53	215.98
836.85	215.96
837.16	216.16
837.48	216.13
837.79	216.19
838.11	216.20
838.42	216.19
838.74	216.22
839.05	216.24
839.37	216.25
839.68	216.12
840.00	216.13
840.31	216.12
840.63	216.08
840.94	216.05
841.26	216.04
841.57	216.04
841.88	216.03
842.20	216.00
842.51	215.99
842.83	215.96
843.14	216.12
843.46	216.12
843.77	216.00
844.08	215.99
844.40	215.90
844.71	215.86
845.03	215.82
845.34	215.80
845.65	215.76
845.97	215.75
846.28	215.76
846.60	215.78
846.91	215.76
847.22	215.73
847.54	215.79
847.85	215.83
848.16	215.81
848.48	215.74
848.79	215.83
849.10	215.85
849.42	215.89
849.73	215.70
850.04	215.69
850.36	215.63
850.67	215.64
850.98	215.62
851.30	215.62
851.61	215.64
851.92	215.64
852.23	215.68
852.55	215.70
852.86	215.69
853.17	215.72
853.49	215.76
853.80	215.79
854.11	215.80
854.42	215.80
854.74	215.76
855.05	215.81
855.36	215.69
855.67	215.69
855.99	215.68
856.30	215.93
856.61	215.91
856.92	215.92
857.23	215.94
857.55	215.97
857.86	215.97
858.17	216.00
858.48	215.96
858.79	215.92
859.11	215.93
859.42	215.92
859.73	215.85
860.04	215.84
860.35	215.79
860.66	215.72
860.98	215.73
861.29	215.76
861.60	215.74
861.91	215.81
862.22	215.79
862.53	215.73
862.84	215.50
863.16	215.56
863.47	215.52
863.78	215.48
864.09	215.50
864.40	215.52
864.71	215.51
865.02	215.52
865.33	215.52
865.64	215.46
865.95	215.46
866.27	215.63
866.58	215.57
866.89	215.61
867.20	215.62
867.51	215.57
867.82	215.56
868.13	215.62
868.44	215.53
868.75	215.55
869.06	215.58
869.37	215.58
869.68	215.48
869.99	215.49
870.30	215.52
870.61	215.50
870.92	215.49
871.23	215.45
871.54	215.48
871.85	215.52
872.16	215.57
872.47	215.55
872.78	215.42
873.09	215.45
873.40	215.42
873.71	215.41
874.02	215.43
874.33	215.42
874.64	215.39
874.95	215.42
875.26	215.38
875.56	215.37
875.87	215.34
876.18	215.35
876.49	215.58
876.80	215.54
877.11	215.51
877.42	215.49
877.73	215.49
878.04	215.46
878.35	215.44
878.66	215.43
878.96	215.44
879.27	215.42
879.58	215.39
879.89	215.39
880.20	215.45
880.51	215.43
880.82	215.39
881.12	215.39
881.43	215.36
881.74	215.35
882.05	215.31
882.36	215.34
882.67	215.34
882.97	215.12
883.28	215.11
883.59	215.10
883.90	215.14
884.21	215.16
884.51	215.14
884.82	215.12
885.13	215.09
885.44	215.06
885.74	215.07
886.05	215.07
886.36	215.05
886.67	214.95
886.98	215.02
887.28	215.07
887.59	215.07
887.90	215.09
888.20	215.11
888.51	215.16
888.82	215.10
889.13	215.11
889.43	215.30
889.74	215.26
890.05	215.27
890.35	215.24
890.66	215.21
890.97	215.19
891.28	215.18
891.58	215.19
891.89	215.18
892.20	215.17
892.50	215.17
892.81	215.16
893.12	215.19
893.42	215.13
893.73	215.14
894.04	215.12
894.34	215.13
894.65	215.11
894.95	215.09
895.26	215.10
895.57	215.21
895.87	214.98
896.18	215.04
896.48	215.06
896.79	215.06
897.10	215.08
897.40	215.12
897.71	215.12
898.01	215.11
898.32	215.15
898.63	215.13
898.93	215.11
899.24	215.11
899.54	215.12
899.85	215.08
900.15	215.07
900.46	215.08
900.76	215.10
901.07	215.08
901.38	215.07
901.68	215.10
901.99	214.96
902.29	214.98
902.60	214.96
902.90	214.93
903.21	214.92
903.51	214.91
903.82	214.93
904.12	214.96
904.43	214.96
904.73	214.96
905.03	214.96
905.34	215.18
905.64	215.20
905.95	215.18
906.25	215.21
906.56	215.18
906.86	215.15
907.17	215.07
907.47	215.09
907.77	215.07
908.08	215.05
908.38	215.09
908.69	215.11
908.99	215.15
909.30	215.16
909.60	215.17
909.90	215.19
910.21	215.14
910.51	215.09
910.81	215.12
911.12	215.13
911.42	215.16
911.73	214.94
912.03	214.91
912.33	214.98
912.64	214.96
912.94	214.93
913.24	214.91
913.55	214.96
913.85	214.95
914.15	215.03
914.46	215.05
914.76	215.03
915.06	215.02
915.37	215.00
915.67	214.99
915.97	214.98
916.27	214.92
916.58	214.93
916.88	214.95
917.18	214.93
917.49	215.05
917.79	215.02
918.09	215.08
918.39	215.15
918.70	215.10
919.00	215.12
919.30	215.23
919.60	215.23
919.91	215.17
920.21	215.18
920.51	215.10
920.81	215.09
921.12	215.11
921.42	215.09
921.72	215.06
922.02	215.09
922.32	215.11
922.63	215.14
922.93	215.21
923.23	215.19
923.53	215.14
923.83	214.97
924.13	215.02
924.44	214.98
924.74	214.99
925.04	215.02
925.34	215.01
925.64	214.94
925.94	214.95
926.24	215.10
926.55	215.05
926.85	215.09
927.15	215.07
927.45	215.08
927.75	215.08
928.05	215.08
928.35	215.06
928.65	215.09
928.95	215.12
929.26	215.06
929.56	215.09
929.86	215.15
930.16	215.16
930.46	215.12
930.76	215.14
931.06	215.06
931.36	215.02
931.66	215.04
931.96	215.10
932.26	215.13
932.56	215.05
932.86	215.12
933.16	215.12
933.46	215.15
933.76	215.11
934.06	215.17
934.36	215.23
934.66	215.23
934.96	215.16
935.26	215.17
935.56	215.20
935.86	215.17
936.16	215.15
936.46	215.14
936.76	215.13
937.06	215.10
937.36	215.09
937.66	215.12
937.96	215.08
938.26	215.01
938.56	214.97
938.86	214.98
939.16	214.98
939.46	214.99
939.76	215.01
940.06	215.04
940.35	215.01
940.65	214.91
940.95	214.96
941.25	214.92
941.55	214.86
941.85	214.84
942.15	214.88
942.45	214.90
942.75	214.88
943.04	214.91
943.34	214.94
943.64	214.95
943.94	214.93
944.24	214.96
944.54	214.96
944.84	214.95
945.13	214.92
945.43	214.88
945.73	214.86
946.03	214.80
946.33	214.76
946.62	214.72
946.92	214.74
947.22	214.72
947.52	214.75
947.82	214.80
948.11	214.78
948.41	214.72
948.71	214.68
949.01	214.70
949.31	214.66
949.60	214.65
949.90	214.69
950.20	214.66
950.50	214.66
950.79	214.65
951.09	214.69
951.39	214.68
951.69	214.66
951.98	214.70
952.28	214.74
952.58	214.75
952.87	214.72
953.17	214.76
953.47	214.73
953.76	214.71
954.06	214.68
954.36	214.67
954.66	214.69
954.95	214.77
955.25	214.79
955.55	214.80
955.84	214.77
956.14	214.77
956.44	214.77
956.73	214.72
957.03	214.75
957.32	214.76
957.62	214.77
957.92	214.82
958.21	214.79
958.51	215.05
958.81	215.07
959.10	215.12
959.40	215.16
959.69	215.18
959.99	215.22
960.29	215.21
960.58	215.21
960.88	215.27
961.17	215.23
961.47	215.24
961.76	215.26
962.06	215.29
962.36	215.27
962.65	215.31
962.95	215.33
963.24	215.31
963.54	215.31
963.83	215.31
964.13	215.29
964.42	215.27
964.72	215.06
965.01	215.09
965.31	215.08
965.60	215.01
965.90	215.14
966.19	215.10
966.49	215.09
966.78	215.09
967.08	215.05
967.37	215.07
967.67	215.03
967.96	215.07
968.26	215.04
968.55	215.04
968.85	215.03
969.14	215.02
969.43	215.02
969.73	214.97
970.02	214.95
970.32	214.93
970.61	214.94
970.91	214.91
971.20	214.83
971.49	214.81
971.79	214.84
972.08	214.70
972.38	214.71
972.67	214.74
972.96	214.79
973.26	214.75
973.55	214.80
973.85	214.81
974.14	214.80
974.43	214.82
974.73	214.82
975.02	214.79
975.31	214.77
975.61	214.74
975.90	214.75
976.19	214.70
976.49	214.71
976.78	214.72
977.07	214.69
977.37	214.72
977.66	214.76
977.95	214.72
978.24	214.73
978.54	214.78
978.83	214.77
979.12	214.74
979.42	214.74
979.71	214.67
980.00	214.65
980.29	214.64
980.59	214.61
980.88	214.64
981.17	214.66
981.46	214.68
981.76	214.66
982.05	214.71
982.34	214.79
982.63	214.83
982.93	214.81
983.22	214.89
983.51	214.92
983.80	214.95
984.09	215.01
984.39	215.01
984.68	214.96
984.97	214.97
985.26	214.93
985.55	214.98
985.85	214.95
986.14	214.97
986.43	214.99
986.72	215.01
987.01	214.96
987.30	214.97
987.59	214.96
987.89	215.01
988.18	214.98
988.47	214.95
988.76	214.92
989.05	214.91
989.34	214.88
989.63	214.88
989.92	214.81
990.22	214.76
990.51	214.75
990.80	214.76
991.09	214.76
991.38	214.81
991.67	214.77
991.96	214.77
992.25	214.78
992.54	214.72
992.83	214.68
993.12	214.67
993.41	214.73
993.70	214.81
993.99	214.81
994.28	214.82
994.58	214.85
994.87	214.83
995.16	214.85
995.45	214.84
995.74	214.82
996.03	214.88
996.32	214.90
996.61	214.93
996.90	214.93
997.19	214.91
997.48	214.91
997.77	214.90
998.06	214.91
998.34	214.89
998.63	214.93
998.92	214.99
999.21	215.04
999.50	215.00
999.79	214.92
1000.08	214.96
1000.37	214.97
1000.66	214.93
1000.95	214.99
1001.24	214.98
1001.53	215.01
1001.82	214.97
1002.11	214.90
1002.40	214.95
1002.68	214.97
1002.97	215.09
1003.26	215.07
1003.55	215.02
1003.84	215.05
1004.13	215.15
1004.42	215.15
1004.71	215.13
1004.99	215.10
1005.28	215.13
1005.57	215.13
1005.86	215.13
1006.15	215.10
1006.44	215.05
1006.72	215.08
1007.01	215.05
1007.30	215.06
1007.59	215.00
1007.88	215.01
1008.17	215.01
1008.45	214.95
1008.74	214.89
1009.03	214.82
1009.32	214.83
1009.60	214.82
1009.89	214.78
1010.18	214.68
1010.47	214.71
1010.76	214.69
1011.04	214.67
1011.33	214.68
1011.62	214.70
1011.91	214.71
1012.19	214.68
1012.48	214.68
1012.77	214.68
1013.05	214.79
1013.34	214.78
1013.63	214.79
1013.92	214.83
1014.20	214.82
1014.49	214.82
1014.78	214.86
1015.06	214.80
1015.35	214.82
1015.64	214.86
1015.92	214.88
1016.21	214.89
1016.50	214.86
1016.78	214.91
1017.07	214.93
1017.36	214.87
1017.64	214.79
1017.93	214.80
1018.22	214.83
1018.50	214.81
1018.79	214.80
1019.08	214.68
1019.36	214.70
1019.65	214.68
1019.93	214.70
1020.22	214.77
1020.51	214.87
1020.79	214.83
1021.08	214.71
1021.36	214.05
1021.65	214.78
1021.94	214.52
1022.22	215.03
1022.51	214.34
1022.79	215.53
1023.08	215.37
1023.36	217.04
1023.65	214.18
>>>>>End Processed Spectral Data<<<<<
