SpectraSuite Data File
++++++++++++++++++++++++++++++++++++
Date: Tue Jan 29 16:25:00 EST 2013
User: group
Dark Spectrum Present: No
Reference Spectrum Present: No
Number of Sampled Component Spectra: 1
Spectrometers: USB2E7196
Integration Time (usec): 65000 (USB2E7196)
Spectra Averaged: 100 (USB2E7196)
Boxcar Smoothing: 10 (USB2E7196)
Correct for Electrical Dark: No (USB2E7196)
Strobe/Lamp Enabled: No (USB2E7196)
Correct for Detector Non-linearity: No (USB2E7196)
Correct for Stray Light: No (USB2E7196)
Number of Pixels in Processed Spectrum: 2048
>>>>>Begin Processed Spectral Data<<<<<
339.09	0.00
339.48	202.26
339.86	203.44
340.24	204.95
340.63	206.31
341.01	211.29
341.39	209.51
341.78	210.19
342.16	211.72
342.54	212.16
342.93	201.31
343.31	211.47
343.69	212.00
344.07	212.51
344.46	212.96
344.84	213.36
345.22	213.51
345.60	213.77
345.99	213.99
346.37	214.14
346.75	214.25
347.13	214.33
347.52	214.41
347.90	214.55
348.28	214.60
348.66	214.67
349.05	214.65
349.43	214.74
349.81	214.82
350.19	214.91
350.57	214.98
350.96	215.11
351.34	215.23
351.72	215.34
352.10	215.42
352.48	215.51
352.87	215.59
353.25	215.66
353.63	215.72
354.01	215.78
354.39	215.87
354.77	215.95
355.15	216.06
355.54	216.12
355.92	216.13
356.30	216.23
356.68	216.44
357.06	216.52
357.44	216.58
357.82	216.63
358.20	216.71
358.58	216.75
358.97	216.81
359.35	216.92
359.73	217.02
360.11	217.08
360.49	217.11
360.87	217.13
361.25	217.21
361.63	217.29
362.01	217.38
362.39	217.38
362.77	217.45
363.15	217.44
363.53	217.47
363.91	217.46
364.29	217.48
364.67	217.31
365.05	217.34
365.43	217.37
365.81	217.41
366.19	217.53
366.57	217.65
366.95	217.65
367.33	217.60
367.71	217.58
368.09	217.61
368.47	217.63
368.85	217.65
369.23	217.68
369.61	217.64
369.99	217.67
370.37	217.71
370.75	217.81
371.13	217.76
371.51	217.73
371.89	217.76
372.27	217.76
372.65	217.73
373.03	217.71
373.41	217.65
373.78	217.60
374.16	217.45
374.54	217.32
374.92	217.26
375.30	217.22
375.68	217.12
376.06	217.11
376.44	217.05
376.82	217.03
377.19	216.98
377.57	216.91
377.95	216.80
378.33	216.73
378.71	216.55
379.09	216.56
379.47	216.53
379.84	216.45
380.22	216.36
380.60	216.30
380.98	216.21
381.36	216.16
381.73	216.08
382.11	216.07
382.49	216.03
382.87	215.99
383.25	215.95
383.62	216.19
384.00	216.11
384.38	216.07
384.76	216.08
385.13	216.12
385.51	216.10
385.89	216.07
386.27	216.05
386.64	216.03
387.02	215.96
387.40	215.88
387.78	215.85
388.15	215.86
388.53	215.82
388.91	215.81
389.29	215.80
389.66	215.84
390.04	215.78
390.42	215.82
390.79	215.81
391.17	215.80
391.55	215.56
391.92	215.55
392.30	215.57
392.68	215.50
393.05	215.47
393.43	215.50
393.81	215.49
394.18	215.45
394.56	215.47
394.94	215.52
395.31	215.50
395.69	215.61
396.06	215.61
396.44	215.63
396.82	215.66
397.19	215.79
397.57	215.78
397.95	215.85
398.32	215.82
398.70	215.87
399.07	215.96
399.45	215.98
399.82	215.99
400.20	216.02
400.58	216.06
400.95	216.05
401.33	216.12
401.70	216.33
402.08	216.43
402.45	216.50
402.83	216.63
403.20	216.81
403.58	216.86
403.95	217.05
404.33	217.23
404.71	217.34
405.08	217.58
405.46	217.75
405.83	217.95
406.21	218.13
406.58	218.36
406.96	218.56
407.33	218.85
407.70	219.15
408.08	219.62
408.45	219.97
408.83	220.31
409.20	220.64
409.58	220.89
409.95	221.29
410.33	221.77
410.70	222.18
411.08	222.71
411.45	223.29
411.82	223.86
412.20	224.51
412.57	225.35
412.95	225.93
413.32	226.74
413.69	227.53
414.07	228.43
414.44	229.40
414.82	230.41
415.19	231.58
415.56	232.78
415.94	233.95
416.31	235.36
416.68	236.76
417.06	238.38
417.43	239.97
417.81	241.72
418.18	243.48
418.55	245.41
418.93	247.44
419.30	249.52
419.67	251.72
420.04	253.99
420.42	256.38
420.79	259.16
421.16	261.97
421.54	264.88
421.91	267.86
422.28	270.97
422.66	274.22
423.03	277.44
423.40	280.74
423.77	284.30
424.15	287.95
424.52	291.82
424.89	295.90
425.26	299.94
425.64	303.87
426.01	308.12
426.38	312.60
426.75	317.08
427.13	321.78
427.50	326.77
427.87	331.94
428.24	337.11
428.61	342.06
428.99	347.56
429.36	353.51
429.73	359.42
430.10	365.29
430.47	371.30
430.85	377.59
431.22	384.29
431.59	391.38
431.96	398.14
432.33	405.60
432.70	412.86
433.08	421.35
433.45	429.39
433.82	437.46
434.19	446.26
434.56	454.98
434.93	463.34
435.30	471.52
435.68	480.61
436.05	489.50
436.42	498.37
436.79	506.54
437.16	515.32
437.53	524.51
437.90	533.61
438.27	542.57
438.64	551.75
439.01	560.26
439.38	567.81
439.75	575.20
440.13	583.55
440.50	591.51
440.87	597.91
441.24	604.49
441.61	611.78
441.98	617.14
442.35	623.38
442.72	629.61
443.09	635.68
443.46	639.41
443.83	641.93
444.20	644.10
444.57	647.15
444.94	648.54
445.31	649.96
445.68	651.30
446.05	651.91
446.42	651.10
446.79	650.16
447.16	649.11
447.53	648.31
447.90	644.98
448.27	641.72
448.64	637.05
449.01	633.70
449.37	627.73
449.74	622.09
450.11	615.24
450.48	607.90
450.85	600.47
451.22	594.00
451.59	587.92
451.96	582.15
452.33	574.30
452.70	567.22
453.07	558.76
453.43	550.14
453.80	541.90
454.17	533.92
454.54	526.35
454.91	518.17
455.28	510.18
455.65	502.82
456.02	495.26
456.38	489.00
456.75	481.22
457.12	474.72
457.49	468.26
457.86	462.11
458.23	456.80
458.59	450.90
458.96	444.97
459.33	439.67
459.70	434.31
460.07	430.13
460.43	425.35
460.80	420.82
461.17	416.92
461.54	412.75
461.91	408.79
462.27	404.68
462.64	401.28
463.01	397.51
463.38	393.82
463.74	390.21
464.11	386.98
464.48	384.16
464.85	381.09
465.21	378.63
465.58	375.99
465.95	372.81
466.32	370.17
466.68	367.56
467.05	364.99
467.42	362.45
467.78	359.78
468.15	357.21
468.52	355.38
468.88	352.90
469.25	350.69
469.62	348.92
469.98	347.03
470.35	345.25
470.72	343.57
471.08	341.76
471.45	340.22
471.82	338.70
472.18	337.01
472.55	335.82
472.92	334.46
473.28	333.27
473.65	332.17
474.02	331.08
474.38	330.21
474.75	329.44
475.11	328.65
475.48	328.04
475.85	327.57
476.21	327.03
476.58	326.71
476.94	326.46
477.31	326.13
477.67	325.88
478.04	325.69
478.41	325.65
478.77	325.85
479.14	325.83
479.50	326.00
479.87	326.30
480.23	326.61
480.60	326.86
480.96	327.14
481.33	327.68
481.69	328.24
482.06	328.73
482.42	329.20
482.79	329.77
483.15	330.59
483.52	331.49
483.88	332.37
484.25	333.31
484.61	334.35
484.98	335.45
485.34	336.81
485.71	338.23
486.07	339.69
486.44	341.03
486.80	342.65
487.17	344.30
487.53	346.15
487.90	348.04
488.26	350.09
488.62	352.28
488.99	354.38
489.35	356.57
489.72	359.03
490.08	361.61
490.44	364.21
490.81	366.94
491.17	369.68
491.54	372.67
491.90	375.69
492.26	379.00
492.63	382.40
492.99	385.85
493.36	389.52
493.72	393.39
494.08	397.40
494.45	401.61
494.81	406.01
495.17	410.46
495.54	415.18
495.90	420.06
496.26	425.03
496.63	430.24
496.99	435.66
497.35	441.28
497.72	447.06
498.08	453.01
498.44	459.14
498.80	465.61
499.17	472.15
499.53	478.95
499.89	485.86
500.26	492.92
500.62	500.03
500.98	507.46
501.34	514.96
501.71	522.82
502.07	530.72
502.43	538.68
502.79	546.89
503.16	555.35
503.52	563.90
503.88	572.68
504.24	581.68
504.60	590.74
504.97	600.09
505.33	609.45
505.69	619.34
506.05	629.30
506.41	639.20
506.78	649.34
507.14	659.65
507.50	670.18
507.86	680.94
508.22	691.78
508.59	702.55
508.95	713.70
509.31	725.00
509.67	736.51
510.03	748.05
510.39	759.90
510.75	771.83
511.12	783.89
511.48	795.99
511.84	808.32
512.20	820.80
512.56	833.41
512.92	846.31
513.28	859.11
513.64	871.97
514.00	884.95
514.37	898.13
514.73	911.29
515.09	924.39
515.45	937.35
515.81	950.47
516.17	963.98
516.53	977.37
516.89	990.58
517.25	1003.90
517.61	1017.54
517.97	1030.99
518.33	1044.25
518.69	1057.94
519.05	1071.91
519.41	1085.78
519.77	1099.81
520.13	1113.23
520.49	1126.57
520.85	1140.00
521.21	1153.49
521.57	1167.36
521.93	1180.41
522.29	1194.27
522.65	1208.01
523.01	1221.80
523.37	1235.15
523.73	1248.51
524.09	1261.87
524.45	1275.37
524.81	1288.92
525.17	1302.42
525.53	1315.74
525.89	1329.21
526.25	1342.50
526.61	1355.48
526.97	1368.64
527.33	1381.58
527.68	1395.19
528.04	1408.81
528.40	1422.21
528.76	1435.68
529.12	1448.64
529.48	1462.00
529.84	1474.36
530.20	1487.17
530.56	1499.83
530.91	1513.20
531.27	1526.20
531.63	1538.97
531.99	1551.86
532.35	1564.22
532.71	1576.82
533.07	1589.80
533.42	1602.10
533.78	1614.24
534.14	1626.36
534.50	1637.86
534.86	1649.68
535.21	1660.63
535.57	1672.27
535.93	1683.57
536.29	1694.66
536.65	1706.19
537.00	1717.41
537.36	1728.96
537.72	1740.15
538.08	1751.65
538.44	1762.66
538.79	1773.92
539.15	1785.00
539.51	1795.82
539.87	1807.24
540.22	1817.95
540.58	1828.93
540.94	1839.99
541.29	1850.43
541.65	1860.28
542.01	1870.75
542.37	1880.97
542.72	1891.27
543.08	1900.97
543.44	1911.52
543.79	1920.92
544.15	1930.45
544.51	1940.49
544.87	1950.44
545.22	1959.68
545.58	1968.64
545.94	1977.71
546.29	1986.25
546.65	1994.73
547.01	2003.12
547.36	2010.78
547.72	2018.79
548.07	2026.47
548.43	2034.21
548.79	2042.10
549.14	2050.26
549.50	2058.73
549.86	2066.65
550.21	2074.18
550.57	2081.99
550.92	2088.80
551.28	2096.25
551.64	2103.55
551.99	2111.09
552.35	2118.24
552.70	2125.16
553.06	2131.78
553.41	2138.19
553.77	2144.73
554.13	2151.14
554.48	2158.20
554.84	2165.51
555.19	2172.01
555.55	2178.56
555.90	2184.86
556.26	2191.71
556.61	2197.87
556.97	2202.76
557.32	2208.44
557.68	2214.84
558.03	2220.72
558.39	2226.07
558.74	2232.17
559.10	2237.70
559.45	2243.30
559.81	2248.89
560.16	2254.53
560.52	2260.57
560.87	2266.92
561.23	2272.81
561.58	2279.48
561.94	2284.91
562.29	2289.58
562.64	2295.79
563.00	2301.52
563.35	2307.16
563.71	2312.91
564.06	2318.55
564.42	2324.64
564.77	2329.84
565.12	2335.15
565.48	2340.31
565.83	2345.91
566.19	2351.45
566.54	2356.97
566.89	2361.62
567.25	2366.32
567.60	2372.04
567.96	2377.24
568.31	2381.90
568.66	2386.38
569.02	2390.27
569.37	2393.99
569.72	2398.57
570.08	2402.03
570.43	2405.18
570.78	2408.40
571.14	2410.99
571.49	2414.29
571.84	2417.89
572.20	2420.86
572.55	2423.86
572.90	2426.14
573.26	2428.98
573.61	2431.56
573.96	2433.77
574.31	2435.91
574.67	2437.88
575.02	2438.72
575.37	2440.24
575.72	2440.91
576.08	2442.29
576.43	2442.49
576.78	2442.83
577.13	2444.40
577.49	2445.78
577.84	2446.91
578.19	2448.19
578.54	2448.75
578.90	2449.41
579.25	2449.27
579.60	2449.22
579.95	2448.44
580.30	2448.51
580.66	2447.92
581.01	2446.23
581.36	2443.93
581.71	2442.58
582.06	2441.45
582.42	2440.65
582.77	2438.35
583.12	2436.73
583.47	2435.47
583.82	2434.95
584.17	2433.88
584.53	2431.79
584.88	2429.52
585.23	2427.59
585.58	2425.40
585.93	2423.63
586.28	2421.44
586.63	2419.08
586.98	2416.92
587.34	2415.03
587.69	2412.56
588.04	2410.57
588.39	2409.35
588.74	2406.80
589.09	2404.05
589.44	2400.75
589.79	2398.26
590.14	2396.46
590.49	2393.74
590.84	2389.96
591.19	2386.81
591.54	2383.61
591.89	2379.55
592.25	2376.36
592.60	2372.02
592.95	2367.89
593.30	2363.59
593.65	2359.33
594.00	2354.82
594.35	2351.84
594.70	2347.38
595.05	2342.96
595.40	2337.40
595.75	2331.45
596.10	2327.84
596.45	2322.98
596.80	2318.50
597.15	2313.34
597.50	2307.28
597.85	2302.30
598.19	2296.94
598.54	2291.09
598.89	2285.85
599.24	2281.24
599.59	2275.01
599.94	2269.26
600.29	2263.21
600.64	2257.22
600.99	2250.23
601.34	2244.73
601.69	2237.56
602.04	2231.01
602.39	2224.28
602.74	2218.14
603.08	2212.55
603.43	2206.09
603.78	2199.20
604.13	2192.12
604.48	2184.61
604.83	2178.54
605.18	2172.32
605.53	2165.33
605.87	2158.26
606.22	2151.43
606.57	2143.58
606.92	2135.58
607.27	2128.66
607.62	2122.11
607.96	2115.29
608.31	2108.95
608.66	2101.18
609.01	2093.76
609.36	2086.54
609.70	2078.83
610.05	2071.12
610.40	2062.74
610.75	2054.29
611.10	2046.51
611.44	2037.53
611.79	2028.85
612.14	2018.85
612.49	2008.09
612.83	1998.79
613.18	1989.42
613.53	1980.01
613.88	1970.15
614.22	1961.52
614.57	1951.56
614.92	1940.81
615.27	1930.23
615.61	1919.99
615.96	1910.24
616.31	1900.34
616.65	1890.87
617.00	1880.94
617.35	1871.14
617.70	1861.28
618.04	1851.28
618.39	1841.08
618.74	1831.28
619.08	1821.56
619.43	1812.66
619.78	1804.32
620.12	1795.58
620.47	1785.93
620.82	1775.43
621.16	1765.66
621.51	1755.66
621.85	1745.77
622.20	1735.30
622.55	1724.72
622.89	1714.67
623.24	1704.82
623.59	1694.98
623.93	1684.77
624.28	1675.04
624.62	1664.90
624.97	1654.61
625.32	1644.54
625.66	1635.44
626.01	1626.66
626.35	1617.15
626.70	1607.07
627.04	1596.80
627.39	1586.64
627.73	1577.36
628.08	1568.32
628.43	1558.74
628.77	1549.38
629.12	1540.37
629.46	1532.51
629.81	1524.01
630.15	1514.51
630.50	1504.50
630.84	1493.94
631.19	1483.91
631.53	1474.52
631.88	1464.21
632.22	1454.08
632.57	1444.66
632.91	1434.59
633.26	1424.60
633.60	1415.04
633.95	1405.63
634.29	1396.08
634.64	1386.76
634.98	1376.68
635.32	1367.30
635.67	1358.71
636.01	1349.33
636.36	1339.46
636.70	1329.74
637.05	1320.43
637.39	1311.34
637.73	1302.80
638.08	1295.08
638.42	1286.89
638.77	1277.98
639.11	1269.65
639.45	1261.75
639.80	1253.11
640.14	1244.24
640.49	1235.31
640.83	1226.30
641.17	1218.01
641.52	1209.75
641.86	1200.96
642.20	1193.00
642.55	1184.17
642.89	1175.12
643.23	1166.46
643.58	1158.31
643.92	1149.25
644.26	1140.41
644.61	1131.89
644.95	1122.94
645.29	1113.65
645.64	1104.29
645.98	1095.67
646.32	1087.62
646.66	1078.96
647.01	1070.63
647.35	1062.32
647.69	1053.86
648.04	1045.47
648.38	1036.46
648.72	1027.61
649.06	1019.08
649.41	1010.71
649.75	1002.75
650.09	994.76
650.43	986.58
650.78	978.17
651.12	970.30
651.46	962.73
651.80	955.40
652.14	948.01
652.49	940.38
652.83	932.96
653.17	925.13
653.51	917.48
653.85	910.19
654.20	902.84
654.54	895.28
654.88	887.91
655.22	880.59
655.56	873.59
655.90	866.68
656.25	859.79
656.59	852.82
656.93	845.72
657.27	838.54
657.61	831.44
657.95	825.15
658.29	819.18
658.64	813.05
658.98	806.52
659.32	799.86
659.66	793.59
660.00	787.20
660.34	781.05
660.68	774.77
661.02	768.34
661.36	762.22
661.70	756.36
662.05	750.68
662.39	745.14
662.73	739.71
663.07	734.31
663.41	728.68
663.75	722.88
664.09	717.04
664.43	711.53
664.77	706.15
665.11	700.35
665.45	694.34
665.79	688.36
666.13	682.55
666.47	676.93
666.81	671.35
667.15	665.90
667.49	660.67
667.83	655.41
668.17	650.07
668.51	644.90
668.85	639.89
669.19	634.91
669.53	629.80
669.87	624.49
670.21	619.62
670.55	614.86
670.89	610.37
671.23	606.03
671.57	601.54
671.91	597.23
672.25	592.96
672.58	588.73
672.92	584.65
673.26	580.65
673.60	576.79
673.94	572.97
674.28	569.30
674.62	565.53
674.96	561.67
675.30	558.16
675.64	554.38
675.97	550.74
676.31	547.07
676.65	543.42
676.99	540.01
677.33	536.13
677.67	532.45
678.01	528.60
678.34	524.93
678.68	521.38
679.02	517.70
679.36	513.98
679.70	510.28
680.04	506.67
680.37	503.16
680.71	499.71
681.05	496.44
681.39	493.07
681.73	489.79
682.06	486.75
682.40	483.50
682.74	480.28
683.08	477.04
683.42	473.83
683.75	470.81
684.09	467.72
684.43	464.90
684.77	461.95
685.10	459.03
685.44	456.06
685.78	453.12
686.12	450.33
686.45	447.59
686.79	444.94
687.13	442.37
687.46	439.72
687.80	437.07
688.14	434.20
688.48	431.54
688.81	428.84
689.15	426.23
689.49	423.67
689.82	421.11
690.16	418.48
690.50	416.02
690.83	413.45
691.17	410.92
691.51	408.38
691.84	406.05
692.18	403.81
692.52	401.60
692.85	399.42
693.19	397.17
693.52	394.96
693.86	392.70
694.20	390.46
694.53	388.30
694.87	386.08
695.21	383.94
695.54	381.80
695.88	379.61
696.21	377.42
696.55	375.23
696.88	373.16
697.22	371.17
697.56	369.20
697.89	367.30
698.23	365.48
698.56	363.65
698.90	361.87
699.23	359.95
699.57	358.03
699.90	356.15
700.24	354.36
700.58	352.59
700.91	350.89
701.25	349.36
701.58	347.72
701.92	346.11
702.25	344.48
702.59	342.86
702.92	341.31
703.26	339.67
703.59	338.21
703.93	336.91
704.26	335.48
704.60	333.98
704.93	332.50
705.26	331.00
705.60	329.51
705.93	327.95
706.27	326.56
706.60	325.24
706.94	323.97
707.27	322.55
707.61	321.19
707.94	319.89
708.27	318.33
708.61	316.85
708.94	315.46
709.28	314.17
709.61	312.88
709.94	311.65
710.28	310.43
710.61	309.21
710.95	307.77
711.28	306.65
711.61	305.45
711.95	304.32
712.28	303.12
712.61	301.93
712.95	300.88
713.28	299.86
713.61	298.76
713.95	297.62
714.28	296.61
714.61	295.51
714.95	294.41
715.28	293.39
715.61	292.36
715.95	291.41
716.28	290.40
716.61	289.44
716.95	288.42
717.28	287.46
717.61	286.48
717.94	285.56
718.28	284.49
718.61	283.61
718.94	282.69
719.27	281.81
719.61	280.95
719.94	280.07
720.27	279.08
720.60	278.18
720.94	277.33
721.27	276.54
721.60	275.85
721.93	275.10
722.27	274.45
722.60	273.80
722.93	273.03
723.26	272.33
723.59	271.61
723.93	271.00
724.26	270.36
724.59	269.72
724.92	269.12
725.25	268.57
725.59	267.96
725.92	267.42
726.25	266.84
726.58	266.30
726.91	265.69
727.24	265.17
727.57	264.62
727.91	263.99
728.24	263.46
728.57	262.87
728.90	262.34
729.23	261.68
729.56	261.27
729.89	260.76
730.22	260.21
730.55	259.66
730.89	259.08
731.22	258.55
731.55	258.04
731.88	257.50
732.21	256.93
732.54	256.39
732.87	255.85
733.20	255.36
733.53	254.86
733.86	254.40
734.19	253.88
734.52	253.48
734.85	253.23
735.18	252.70
735.51	252.35
735.84	251.93
736.17	251.58
736.50	251.00
736.83	250.86
737.16	250.48
737.49	250.13
737.82	249.72
738.15	249.36
738.48	248.96
738.81	248.58
739.14	248.18
739.47	247.81
739.80	247.41
740.13	247.06
740.46	246.66
740.79	246.29
741.12	245.91
741.45	245.52
741.78	245.03
742.11	244.78
742.44	244.34
742.77	244.02
743.10	243.68
743.43	243.33
743.75	242.71
744.08	242.63
744.41	242.24
744.74	241.89
745.07	241.53
745.40	241.20
745.73	240.97
746.06	240.67
746.39	240.34
746.71	240.01
747.04	239.69
747.37	239.36
747.70	239.06
748.03	238.77
748.36	238.51
748.68	238.21
749.01	237.82
749.34	237.55
749.67	237.25
750.00	236.97
750.33	236.84
750.65	236.58
750.98	236.03
751.31	235.81
751.64	235.57
751.97	235.41
752.29	235.15
752.62	234.80
752.95	234.54
753.28	234.29
753.60	234.03
753.93	233.83
754.26	233.63
754.59	233.34
754.91	233.10
755.24	232.81
755.57	232.57
755.90	232.39
756.22	232.15
756.55	231.91
756.88	231.64
757.20	231.27
757.53	231.06
757.86	230.89
758.19	230.67
758.51	230.48
758.84	230.18
759.17	229.98
759.49	229.80
759.82	229.70
760.15	229.55
760.47	229.35
760.80	229.06
761.13	228.90
761.45	228.69
761.78	228.54
762.11	228.38
762.43	228.21
762.76	228.00
763.08	227.87
763.41	227.71
763.74	227.56
764.06	227.41
764.39	227.23
764.71	227.05
765.04	226.88
765.37	226.74
765.69	226.56
766.02	226.41
766.34	226.29
766.67	226.08
767.00	225.95
767.32	225.96
767.65	225.96
767.97	225.84
768.30	225.72
768.62	225.55
768.95	225.43
769.27	225.31
769.60	225.22
769.92	225.10
770.25	224.93
770.57	224.77
770.90	224.66
771.22	224.49
771.55	224.39
771.87	224.28
772.20	224.14
772.52	224.21
772.85	224.36
773.17	224.26
773.50	224.13
773.82	223.98
774.15	223.73
774.47	223.51
774.80	223.37
775.12	223.29
775.45	223.25
775.77	223.19
776.09	223.10
776.42	222.98
776.74	222.89
777.07	222.80
777.39	222.72
777.72	222.63
778.04	222.59
778.36	222.47
778.69	222.39
779.01	222.33
779.33	222.03
779.66	221.73
779.98	221.58
780.31	221.50
780.63	221.53
780.95	221.52
781.28	221.41
781.60	221.34
781.92	221.25
782.25	221.10
782.57	220.99
782.89	220.90
783.22	220.82
783.54	220.72
783.86	220.69
784.19	220.63
784.51	220.62
784.83	220.54
785.16	220.48
785.48	220.43
785.80	220.37
786.12	220.37
786.45	220.30
786.77	220.28
787.09	220.24
787.42	220.10
787.74	220.06
788.06	220.04
788.38	219.98
788.71	219.93
789.03	219.92
789.35	219.92
789.67	219.84
789.99	219.81
790.32	219.74
790.64	219.67
790.96	219.79
791.28	219.64
791.61	219.57
791.93	219.52
792.25	219.49
792.57	219.59
792.89	219.51
793.21	219.46
793.54	219.41
793.86	219.35
794.18	219.30
794.50	219.21
794.82	219.14
795.14	219.12
795.47	219.12
795.79	219.08
796.11	218.97
796.43	218.94
796.75	218.90
797.07	218.86
797.39	218.83
797.71	218.63
798.04	218.62
798.36	218.60
798.68	218.57
799.00	218.52
799.32	218.34
799.64	218.33
799.96	218.33
800.28	218.29
800.60	218.24
800.92	218.24
801.24	218.18
801.56	218.20
801.89	218.12
802.21	218.09
802.53	218.02
802.85	218.03
803.17	218.08
803.49	218.00
803.81	217.95
804.13	217.90
804.45	217.86
804.77	217.86
805.09	217.82
805.41	217.77
805.73	217.69
806.05	217.62
806.37	217.61
806.69	217.54
807.01	217.50
807.33	217.51
807.65	217.39
807.97	217.50
808.28	217.45
808.60	217.45
808.92	217.38
809.24	217.46
809.56	217.42
809.88	217.32
810.20	217.31
810.52	217.35
810.84	217.30
811.16	217.27
811.48	217.25
811.80	217.31
812.12	217.31
812.43	217.38
812.75	217.35
813.07	217.29
813.39	217.26
813.71	217.22
814.03	217.16
814.35	217.18
814.67	217.08
814.98	217.06
815.30	217.02
815.62	217.00
815.94	216.85
816.26	216.84
816.58	216.80
816.89	216.80
817.21	216.71
817.53	216.66
817.85	216.65
818.17	216.62
818.48	216.51
818.80	216.53
819.12	216.42
819.44	216.38
819.76	216.31
820.07	216.32
820.39	216.29
820.71	216.27
821.03	216.25
821.34	216.18
821.66	216.18
821.98	216.18
822.30	216.11
822.61	216.24
822.93	216.18
823.25	216.16
823.57	216.09
823.88	216.14
824.20	216.13
824.52	216.16
824.83	216.12
825.15	216.06
825.47	216.01
825.79	216.05
826.10	216.03
826.42	216.03
826.74	216.05
827.05	216.04
827.37	216.05
827.69	216.02
828.00	216.00
828.32	215.96
828.64	215.96
828.95	216.09
829.27	216.01
829.58	216.01
829.90	215.99
830.22	216.00
830.53	215.96
830.85	215.93
831.17	215.84
831.48	215.83
831.80	215.85
832.11	215.83
832.43	215.77
832.75	215.76
833.06	215.88
833.38	215.80
833.69	215.79
834.01	215.78
834.32	215.77
834.64	215.80
834.96	215.76
835.27	215.72
835.59	215.62
835.90	215.57
836.22	215.53
836.53	215.51
836.85	215.51
837.16	215.68
837.48	215.67
837.79	215.72
838.11	215.72
838.42	215.71
838.74	215.71
839.05	215.70
839.37	215.67
839.68	215.52
840.00	215.52
840.31	215.52
840.63	215.49
840.94	215.46
841.26	215.40
841.57	215.44
841.88	215.46
842.20	215.40
842.51	215.38
842.83	215.39
843.14	215.59
843.46	215.57
843.77	215.46
844.08	215.46
844.40	215.40
844.71	215.37
845.03	215.36
845.34	215.36
845.65	215.34
845.97	215.38
846.28	215.42
846.60	215.42
846.91	215.41
847.22	215.38
847.54	215.42
847.85	215.42
848.16	215.36
848.48	215.32
848.79	215.41
849.10	215.45
849.42	215.44
849.73	215.24
850.04	215.23
850.36	215.18
850.67	215.23
850.98	215.22
851.30	215.25
851.61	215.23
851.92	215.22
852.23	215.32
852.55	215.31
852.86	215.29
853.17	215.30
853.49	215.34
853.80	215.40
854.11	215.45
854.42	215.47
854.74	215.47
855.05	215.48
855.36	215.38
855.67	215.37
855.99	215.36
856.30	215.59
856.61	215.60
856.92	215.57
857.23	215.56
857.55	215.55
857.86	215.52
858.17	215.57
858.48	215.56
858.79	215.47
859.11	215.45
859.42	215.45
859.73	215.45
860.04	215.44
860.35	215.38
860.66	215.27
860.98	215.27
861.29	215.30
861.60	215.28
861.91	215.33
862.22	215.28
862.53	215.24
862.84	215.01
863.16	215.05
863.47	215.05
863.78	215.04
864.09	215.04
864.40	215.10
864.71	215.06
865.02	215.07
865.33	215.07
865.64	215.07
865.95	215.04
866.27	215.16
866.58	215.11
866.89	215.12
867.20	215.18
867.51	215.14
867.82	215.11
868.13	215.19
868.44	215.14
868.75	215.19
869.06	215.22
869.37	215.24
869.68	215.18
869.99	215.17
870.30	215.17
870.61	215.21
870.92	215.10
871.23	215.10
871.54	215.14
871.85	215.17
872.16	215.18
872.47	215.18
872.78	215.08
873.09	215.11
873.40	215.11
873.71	215.07
874.02	215.11
874.33	215.09
874.64	215.01
874.95	215.07
875.26	215.01
875.56	214.98
875.87	214.98
876.18	214.93
876.49	215.14
876.80	215.12
877.11	215.09
877.42	215.14
877.73	215.15
878.04	215.07
878.35	215.05
878.66	215.06
878.96	215.02
879.27	215.00
879.58	214.97
879.89	214.97
880.20	215.02
880.51	214.96
880.82	214.96
881.12	214.98
881.43	214.92
881.74	214.92
882.05	214.90
882.36	214.91
882.67	214.96
882.97	214.72
883.28	214.68
883.59	214.68
883.90	214.67
884.21	214.69
884.51	214.70
884.82	214.67
885.13	214.63
885.44	214.65
885.74	214.62
886.05	214.57
886.36	214.57
886.67	214.52
886.98	214.63
887.28	214.64
887.59	214.66
887.90	214.67
888.20	214.65
888.51	214.71
888.82	214.67
889.13	214.67
889.43	214.85
889.74	214.85
890.05	214.84
890.35	214.82
890.66	214.80
890.97	214.79
891.28	214.80
891.58	214.84
891.89	214.82
892.20	214.83
892.50	214.87
892.81	214.85
893.12	214.83
893.42	214.77
893.73	214.78
894.04	214.77
894.34	214.76
894.65	214.75
894.95	214.72
895.26	214.74
895.57	214.81
895.87	214.63
896.18	214.65
896.48	214.63
896.79	214.64
897.10	214.67
897.40	214.68
897.71	214.66
898.01	214.66
898.32	214.69
898.63	214.66
898.93	214.68
899.24	214.67
899.54	214.67
899.85	214.64
900.15	214.62
900.46	214.60
900.76	214.63
901.07	214.65
901.38	214.66
901.68	214.69
901.99	214.59
902.29	214.59
902.60	214.60
902.90	214.65
903.21	214.63
903.51	214.60
903.82	214.67
904.12	214.69
904.43	214.67
904.73	214.66
905.03	214.67
905.34	214.87
905.64	214.86
905.95	214.85
906.25	214.85
906.56	214.85
906.86	214.87
907.17	214.86
907.47	214.90
907.77	214.87
908.08	214.84
908.38	214.86
908.69	214.90
908.99	214.95
909.30	214.93
909.60	214.94
909.90	214.96
910.21	214.90
910.51	214.89
910.81	214.91
911.12	214.95
911.42	214.98
911.73	214.73
912.03	214.77
912.33	214.84
912.64	214.82
912.94	214.80
913.24	214.75
913.55	214.72
913.85	214.68
914.15	214.73
914.46	214.74
914.76	214.73
915.06	214.70
915.37	214.59
915.67	214.58
915.97	214.59
916.27	214.54
916.58	214.54
916.88	214.52
917.18	214.51
917.49	214.63
917.79	214.59
918.09	214.65
918.39	214.68
918.70	214.64
919.00	214.67
919.30	214.77
919.60	214.77
919.91	214.75
920.21	214.78
920.51	214.74
920.81	214.73
921.12	214.75
921.42	214.73
921.72	214.77
922.02	214.79
922.32	214.81
922.63	214.79
922.93	214.88
923.23	214.88
923.53	214.84
923.83	214.70
924.13	214.73
924.44	214.68
924.74	214.74
925.04	214.78
925.34	214.76
925.64	214.65
925.94	214.63
926.24	214.76
926.55	214.72
926.85	214.73
927.15	214.72
927.45	214.70
927.75	214.70
928.05	214.72
928.35	214.72
928.65	214.72
928.95	214.76
929.26	214.65
929.56	214.70
929.86	214.73
930.16	214.72
930.46	214.69
930.76	214.75
931.06	214.63
931.36	214.55
931.66	214.62
931.96	214.66
932.26	214.69
932.56	214.56
932.86	214.57
933.16	214.55
933.46	214.56
933.76	214.55
934.06	214.61
934.36	214.68
934.66	214.65
934.96	214.64
935.26	214.63
935.56	214.68
935.86	214.62
936.16	214.60
936.46	214.59
936.76	214.56
937.06	214.51
937.36	214.53
937.66	214.54
937.96	214.50
938.26	214.43
938.56	214.44
938.86	214.45
939.16	214.49
939.46	214.53
939.76	214.56
940.06	214.57
940.35	214.51
940.65	214.40
940.95	214.42
941.25	214.39
941.55	214.33
941.85	214.30
942.15	214.34
942.45	214.40
942.75	214.39
943.04	214.41
943.34	214.44
943.64	214.42
943.94	214.42
944.24	214.46
944.54	214.48
944.84	214.47
945.13	214.44
945.43	214.38
945.73	214.36
946.03	214.32
946.33	214.29
946.62	214.28
946.92	214.27
947.22	214.28
947.52	214.26
947.82	214.34
948.11	214.31
948.41	214.26
948.71	214.22
949.01	214.23
949.31	214.21
949.60	214.21
949.90	214.22
950.20	214.24
950.50	214.20
950.79	214.20
951.09	214.21
951.39	214.25
951.69	214.27
951.98	214.31
952.28	214.31
952.58	214.34
952.87	214.35
953.17	214.40
953.47	214.43
953.76	214.45
954.06	214.41
954.36	214.37
954.66	214.39
954.95	214.42
955.25	214.45
955.55	214.46
955.84	214.43
956.14	214.45
956.44	214.43
956.73	214.41
957.03	214.43
957.32	214.46
957.62	214.46
957.92	214.50
958.21	214.49
958.51	214.73
958.81	214.74
959.10	214.75
959.40	214.74
959.69	214.71
959.99	214.73
960.29	214.75
960.58	214.78
960.88	214.86
961.17	214.81
961.47	214.81
961.76	214.78
962.06	214.81
962.36	214.81
962.65	214.82
962.95	214.83
963.24	214.80
963.54	214.78
963.83	214.77
964.13	214.74
964.42	214.68
964.72	214.51
965.01	214.52
965.31	214.52
965.60	214.49
965.90	214.60
966.19	214.56
966.49	214.57
966.78	214.56
967.08	214.55
967.37	214.57
967.67	214.53
967.96	214.58
968.26	214.57
968.55	214.59
968.85	214.60
969.14	214.60
969.43	214.60
969.73	214.56
970.02	214.57
970.32	214.57
970.61	214.60
970.91	214.51
971.20	214.47
971.49	214.44
971.79	214.50
972.08	214.35
972.38	214.38
972.67	214.37
972.96	214.40
973.26	214.37
973.55	214.43
973.85	214.41
974.14	214.39
974.43	214.40
974.73	214.40
975.02	214.36
975.31	214.35
975.61	214.32
975.90	214.34
976.19	214.30
976.49	214.31
976.78	214.30
977.07	214.32
977.37	214.33
977.66	214.34
977.95	214.29
978.24	214.32
978.54	214.36
978.83	214.32
979.12	214.31
979.42	214.29
979.71	214.24
980.00	214.26
980.29	214.26
980.59	214.21
980.88	214.24
981.17	214.25
981.46	214.27
981.76	214.33
982.05	214.43
982.34	214.45
982.63	214.43
982.93	214.42
983.22	214.48
983.51	214.48
983.80	214.55
984.09	214.55
984.39	214.55
984.68	214.48
984.97	214.48
985.26	214.47
985.55	214.52
985.85	214.50
986.14	214.54
986.43	214.57
986.72	214.58
987.01	214.52
987.30	214.47
987.59	214.45
987.89	214.45
988.18	214.32
988.47	214.30
988.76	214.33
989.05	214.31
989.34	214.25
989.63	214.31
989.92	214.27
990.22	214.27
990.51	214.27
990.80	214.27
991.09	214.29
991.38	214.32
991.67	214.27
991.96	214.25
992.25	214.25
992.54	214.23
992.83	214.24
993.12	214.22
993.41	214.30
993.70	214.40
993.99	214.39
994.28	214.44
994.58	214.47
994.87	214.42
995.16	214.41
995.45	214.40
995.74	214.34
996.03	214.35
996.32	214.38
996.61	214.44
996.90	214.44
997.19	214.43
997.48	214.44
997.77	214.43
998.06	214.40
998.34	214.37
998.63	214.36
998.92	214.33
999.21	214.36
999.50	214.34
999.79	214.23
1000.08	214.27
1000.37	214.27
1000.66	214.24
1000.95	214.31
1001.24	214.36
1001.53	214.39
1001.82	214.36
1002.11	214.33
1002.40	214.31
1002.68	214.33
1002.97	214.48
1003.26	214.47
1003.55	214.41
1003.84	214.44
1004.13	214.57
1004.42	214.57
1004.71	214.57
1004.99	214.56
1005.28	214.58
1005.57	214.57
1005.86	214.57
1006.15	214.53
1006.44	214.51
1006.72	214.53
1007.01	214.47
1007.30	214.45
1007.59	214.46
1007.88	214.48
1008.17	214.49
1008.45	214.49
1008.74	214.45
1009.03	214.35
1009.32	214.35
1009.60	214.34
1009.89	214.35
1010.18	214.24
1010.47	214.24
1010.76	214.24
1011.04	214.26
1011.33	214.30
1011.62	214.34
1011.91	214.37
1012.19	214.37
1012.48	214.38
1012.77	214.41
1013.05	214.56
1013.34	214.58
1013.63	214.54
1013.92	214.57
1014.20	214.55
1014.49	214.56
1014.78	214.59
1015.06	214.51
1015.35	214.52
1015.64	214.55
1015.92	214.54
1016.21	214.54
1016.50	214.50
1016.78	214.55
1017.07	214.59
1017.36	214.55
1017.64	214.51
1017.93	214.51
1018.22	214.48
1018.50	214.46
1018.79	214.43
1019.08	214.29
1019.36	214.29
1019.65	214.28
1019.93	214.32
1020.22	214.32
1020.51	214.40
1020.79	214.32
1021.08	213.90
1021.36	213.78
1021.65	214.59
1021.94	214.21
1022.22	214.29
1022.51	214.01
1022.79	215.25
1023.08	213.97
1023.36	216.67
1023.65	213.46
>>>>>End Processed Spectral Data<<<<<
