SpectraSuite Data File
++++++++++++++++++++++++++++++++++++
Date: Tue Jan 29 16:56:01 EST 2013
User: group
Dark Spectrum Present: No
Reference Spectrum Present: No
Number of Sampled Component Spectra: 1
Spectrometers: USB2E7196
Integration Time (usec): 65000 (USB2E7196)
Spectra Averaged: 100 (USB2E7196)
Boxcar Smoothing: 10 (USB2E7196)
Correct for Electrical Dark: No (USB2E7196)
Strobe/Lamp Enabled: No (USB2E7196)
Correct for Detector Non-linearity: No (USB2E7196)
Correct for Stray Light: No (USB2E7196)
Number of Pixels in Processed Spectrum: 2048
>>>>>Begin Processed Spectral Data<<<<<
339.09	0.00
339.48	201.60
339.86	203.03
340.24	204.17
340.63	205.30
341.01	210.40
341.39	208.87
341.78	209.96
342.16	211.11
342.54	211.42
342.93	200.67
343.31	210.81
343.69	211.34
344.07	211.80
344.46	212.25
344.84	212.68
345.22	212.86
345.60	213.11
345.99	213.29
346.37	213.45
346.75	213.58
347.13	213.64
347.52	213.69
347.90	213.82
348.28	213.87
348.66	213.98
349.05	213.97
349.43	214.07
349.81	214.11
350.19	214.18
350.57	214.29
350.96	214.37
351.34	214.46
351.72	214.57
352.10	214.68
352.48	214.77
352.87	214.80
353.25	214.86
353.63	214.90
354.01	214.98
354.39	215.02
354.77	215.10
355.15	215.21
355.54	215.26
355.92	215.27
356.30	215.32
356.68	215.53
357.06	215.60
357.44	215.61
357.82	215.66
358.20	215.74
358.58	215.79
358.97	215.86
359.35	215.95
359.73	216.04
360.11	216.08
360.49	216.12
360.87	216.13
361.25	216.16
361.63	216.25
362.01	216.29
362.39	216.30
362.77	216.35
363.15	216.39
363.53	216.42
363.91	216.47
364.29	216.51
364.67	216.31
365.05	216.30
365.43	216.33
365.81	216.38
366.19	216.48
366.57	216.56
366.95	216.55
367.33	216.51
367.71	216.51
368.09	216.54
368.47	216.53
368.85	216.57
369.23	216.60
369.61	216.56
369.99	216.63
370.37	216.68
370.75	216.77
371.13	216.70
371.51	216.67
371.89	216.64
372.27	216.63
372.65	216.64
373.03	216.63
373.41	216.58
373.78	216.54
374.16	216.39
374.54	216.28
374.92	216.23
375.30	216.20
375.68	216.13
376.06	216.11
376.44	216.05
376.82	216.02
377.19	215.99
377.57	215.90
377.95	215.79
378.33	215.72
378.71	215.54
379.09	215.52
379.47	215.50
379.84	215.46
380.22	215.39
380.60	215.27
380.98	215.23
381.36	215.20
381.73	215.14
382.11	215.12
382.49	215.12
382.87	215.04
383.25	215.02
383.62	215.25
384.00	215.16
384.38	215.14
384.76	215.14
385.13	215.16
385.51	215.18
385.89	215.13
386.27	215.11
386.64	215.10
387.02	215.07
387.40	215.01
387.78	215.00
388.15	214.96
388.53	214.94
388.91	214.90
389.29	214.85
389.66	214.88
390.04	214.83
390.42	214.82
390.79	214.84
391.17	214.79
391.55	214.51
391.92	214.52
392.30	214.52
392.68	214.43
393.05	214.45
393.43	214.43
393.81	214.47
394.18	214.44
394.56	214.46
394.94	214.50
395.31	214.48
395.69	214.55
396.06	214.60
396.44	214.65
396.82	214.68
397.19	214.81
397.57	214.81
397.95	214.85
398.32	214.85
398.70	214.92
399.07	215.03
399.45	215.06
399.82	215.11
400.20	215.14
400.58	215.23
400.95	215.19
401.33	215.31
401.70	215.48
402.08	215.56
402.45	215.64
402.83	215.76
403.20	215.89
403.58	215.99
403.95	216.14
404.33	216.30
404.71	216.43
405.08	216.69
405.46	216.84
405.83	217.05
406.21	217.23
406.58	217.47
406.96	217.68
407.33	217.96
407.70	218.26
408.08	218.74
408.45	219.09
408.83	219.50
409.20	219.86
409.58	220.16
409.95	220.64
410.33	221.13
410.70	221.63
411.08	222.19
411.45	222.77
411.82	223.36
412.20	224.06
412.57	224.89
412.95	225.47
413.32	226.34
413.69	227.19
414.07	228.15
414.44	229.17
414.82	230.19
415.19	231.39
415.56	232.61
415.94	233.81
416.31	235.20
416.68	236.60
417.06	238.18
417.43	239.72
417.81	241.46
418.18	243.26
418.55	245.16
418.93	247.19
419.30	249.29
419.67	251.51
420.04	253.81
420.42	256.21
420.79	259.07
421.16	261.88
421.54	264.80
421.91	267.82
422.28	270.92
422.66	274.27
423.03	277.55
423.40	280.92
423.77	284.59
424.15	288.31
424.52	292.13
424.89	296.34
425.26	300.43
425.64	304.38
426.01	308.69
426.38	313.20
426.75	317.78
427.13	322.54
427.50	327.57
427.87	332.78
428.24	338.00
428.61	343.02
428.99	348.61
429.36	354.60
429.73	360.51
430.10	366.40
430.47	372.46
430.85	378.83
431.22	385.57
431.59	392.67
431.96	399.58
432.33	407.15
432.70	414.49
433.08	423.05
433.45	431.11
433.82	439.16
434.19	448.13
434.56	456.92
434.93	465.31
435.30	473.62
435.68	482.78
436.05	491.88
436.42	500.81
436.79	509.01
437.16	517.92
437.53	527.23
437.90	536.44
438.27	545.53
438.64	554.76
439.01	563.33
439.38	570.91
439.75	578.21
440.13	586.73
440.50	594.72
440.87	601.23
441.24	607.95
441.61	615.33
441.98	620.75
442.35	627.06
442.72	633.44
443.09	639.61
443.46	643.42
443.83	645.90
444.20	648.16
444.57	651.31
444.94	652.78
445.31	654.22
445.68	655.69
446.05	656.30
446.42	655.55
446.79	654.69
447.16	653.70
447.53	652.87
447.90	649.55
448.27	646.23
448.64	641.57
449.01	638.26
449.37	632.33
449.74	626.61
450.11	619.72
450.48	612.30
450.85	604.76
451.22	598.28
451.59	592.15
451.96	586.25
452.33	578.33
452.70	571.18
453.07	562.69
453.43	553.93
453.80	545.59
454.17	537.54
454.54	529.86
454.91	521.58
455.28	513.64
455.65	506.10
456.02	498.53
456.38	492.14
456.75	484.09
457.12	477.49
457.49	470.87
457.86	464.58
458.23	459.10
458.59	453.11
458.96	447.00
459.33	441.60
459.70	436.19
460.07	431.86
460.43	426.92
460.80	422.29
461.17	418.27
461.54	414.01
461.91	409.96
462.27	405.84
462.64	402.34
463.01	398.50
463.38	394.80
463.74	391.09
464.11	387.83
464.48	385.06
464.85	381.95
465.21	379.57
465.58	376.95
465.95	373.81
466.32	371.15
466.68	368.59
467.05	365.98
467.42	363.39
467.78	360.73
468.15	358.14
468.52	356.23
468.88	353.74
469.25	351.52
469.62	349.69
469.98	347.69
470.35	345.91
470.72	344.23
471.08	342.39
471.45	340.90
471.82	339.36
472.18	337.65
472.55	336.43
472.92	334.98
473.28	333.77
473.65	332.58
474.02	331.45
474.38	330.50
474.75	329.74
475.11	328.88
475.48	328.25
475.85	327.76
476.21	327.23
476.58	326.84
476.94	326.57
477.31	326.22
477.67	325.93
478.04	325.75
478.41	325.69
478.77	325.84
479.14	325.73
479.50	325.83
479.87	326.11
480.23	326.38
480.60	326.59
480.96	326.85
481.33	327.47
481.69	328.01
482.06	328.50
482.42	329.00
482.79	329.60
483.15	330.39
483.52	331.31
483.88	332.20
484.25	333.14
484.61	334.16
484.98	335.22
485.34	336.54
485.71	337.89
486.07	339.27
486.44	340.59
486.80	342.20
487.17	343.84
487.53	345.64
487.90	347.52
488.26	349.55
488.62	351.72
488.99	353.74
489.35	355.93
489.72	358.33
490.08	360.85
490.44	363.44
490.81	366.17
491.17	368.88
491.54	371.86
491.90	374.87
492.26	378.09
492.63	381.47
492.99	384.94
493.36	388.62
493.72	392.54
494.08	396.57
494.45	400.74
494.81	405.16
495.17	409.63
495.54	414.32
495.90	419.15
496.26	424.07
496.63	429.26
496.99	434.69
497.35	440.29
497.72	446.06
498.08	451.94
498.44	458.03
498.80	464.46
499.17	470.88
499.53	477.63
499.89	484.54
500.26	491.56
500.62	498.57
500.98	505.95
501.34	513.34
501.71	521.05
502.07	528.83
502.43	536.76
502.79	544.90
503.16	553.24
503.52	561.86
503.88	570.48
504.24	579.44
504.60	588.47
504.97	597.67
505.33	606.91
505.69	616.83
506.05	626.62
506.41	636.50
506.78	646.57
507.14	656.77
507.50	667.22
507.86	677.88
508.22	688.73
508.59	699.40
508.95	710.44
509.31	721.64
509.67	733.12
510.03	744.48
510.39	756.04
510.75	767.79
511.12	779.59
511.48	791.63
511.84	803.78
512.20	815.96
512.56	828.63
512.92	841.47
513.28	854.06
513.64	866.92
514.00	879.68
514.37	892.64
514.73	905.72
515.09	918.64
515.45	931.54
515.81	944.61
516.17	957.94
516.53	971.23
516.89	984.34
517.25	997.59
517.61	1011.20
517.97	1024.65
518.33	1037.92
518.69	1051.51
519.05	1065.30
519.41	1079.08
519.77	1092.97
520.13	1106.24
520.49	1119.31
520.85	1132.73
521.21	1145.98
521.57	1159.58
521.93	1172.64
522.29	1186.28
522.65	1199.82
523.01	1213.44
523.37	1226.52
523.73	1239.91
524.09	1252.99
524.45	1266.41
524.81	1279.83
525.17	1293.26
525.53	1306.60
525.89	1319.91
526.25	1333.02
526.61	1345.94
526.97	1358.94
527.33	1372.04
527.68	1385.48
528.04	1398.98
528.40	1412.07
528.76	1425.55
529.12	1438.63
529.48	1451.99
529.84	1464.41
530.20	1477.28
530.56	1489.82
530.91	1503.16
531.27	1515.94
531.63	1528.80
531.99	1541.62
532.35	1553.81
532.71	1566.18
533.07	1579.06
533.42	1591.36
533.78	1603.61
534.14	1615.64
534.50	1627.05
534.86	1638.64
535.21	1649.61
535.57	1661.26
535.93	1672.53
536.29	1683.47
536.65	1694.96
537.00	1705.97
537.36	1717.41
537.72	1728.56
538.08	1740.17
538.44	1751.17
538.79	1762.45
539.15	1773.47
539.51	1784.32
539.87	1795.68
540.22	1806.59
540.58	1817.44
540.94	1828.42
541.29	1838.68
541.65	1848.59
542.01	1859.13
542.37	1869.20
542.72	1879.38
543.08	1889.14
543.44	1899.74
543.79	1909.22
544.15	1918.79
544.51	1928.84
544.87	1938.83
545.22	1948.03
545.58	1956.80
545.94	1965.85
546.29	1974.32
546.65	1982.69
547.01	1991.05
547.36	1998.77
547.72	2006.54
548.07	2014.24
548.43	2022.04
548.79	2029.98
549.14	2038.30
549.50	2046.77
549.86	2054.93
550.21	2062.40
550.57	2070.29
550.92	2077.15
551.28	2084.66
551.64	2091.85
551.99	2099.29
552.35	2106.43
552.70	2113.36
553.06	2120.19
553.41	2126.50
553.77	2133.05
554.13	2139.48
554.48	2146.39
554.84	2153.56
555.19	2160.16
555.55	2166.69
555.90	2172.99
556.26	2179.83
556.61	2185.79
556.97	2190.56
557.32	2196.14
557.68	2202.54
558.03	2208.19
558.39	2213.49
558.74	2219.42
559.10	2224.96
559.45	2230.58
559.81	2236.11
560.16	2241.53
560.52	2247.31
560.87	2253.67
561.23	2259.51
561.58	2266.10
561.94	2271.22
562.29	2275.76
562.64	2281.53
563.00	2287.11
563.35	2292.58
563.71	2298.10
564.06	2303.68
564.42	2309.56
564.77	2314.51
565.12	2319.69
565.48	2324.71
565.83	2330.14
566.19	2335.34
566.54	2340.47
566.89	2344.82
567.25	2349.28
567.60	2354.89
567.96	2359.89
568.31	2364.20
568.66	2368.43
569.02	2372.10
569.37	2376.01
569.72	2380.50
570.08	2383.93
570.43	2386.96
570.78	2389.97
571.14	2392.29
571.49	2395.49
571.84	2398.94
572.20	2401.85
572.55	2404.75
572.90	2406.92
573.26	2409.49
573.61	2412.03
573.96	2414.30
574.31	2416.35
574.67	2418.08
575.02	2418.60
575.37	2419.89
575.72	2420.32
576.08	2421.60
576.43	2421.77
576.78	2421.77
577.13	2423.05
577.49	2424.27
577.84	2425.07
578.19	2426.14
578.54	2426.81
578.90	2426.98
579.25	2426.57
579.60	2426.22
579.95	2425.06
580.30	2424.77
580.66	2423.93
581.01	2422.22
581.36	2419.50
581.71	2417.93
582.06	2416.54
582.42	2415.53
582.77	2412.99
583.12	2411.34
583.47	2409.51
583.82	2408.69
584.17	2407.30
584.53	2404.97
584.88	2402.52
585.23	2400.50
585.58	2398.06
585.93	2395.83
586.28	2393.54
586.63	2390.94
586.98	2388.53
587.34	2386.53
587.69	2383.90
588.04	2381.58
588.39	2379.80
588.74	2377.16
589.09	2374.16
589.44	2370.69
589.79	2367.99
590.14	2365.85
590.49	2362.74
590.84	2358.79
591.19	2355.45
591.54	2352.00
591.89	2347.85
592.25	2344.50
592.60	2340.20
592.95	2335.80
593.30	2331.39
593.65	2326.89
594.00	2322.43
594.35	2319.23
594.70	2314.51
595.05	2309.98
595.40	2304.46
595.75	2298.48
596.10	2294.71
596.45	2289.71
596.80	2285.09
597.15	2279.89
597.50	2274.01
597.85	2269.15
598.19	2264.09
598.54	2258.23
598.89	2253.04
599.24	2248.37
599.59	2242.09
599.94	2235.97
600.29	2229.95
600.64	2224.10
600.99	2217.29
601.34	2211.70
601.69	2204.73
602.04	2198.19
602.39	2191.46
602.74	2185.25
603.08	2179.74
603.43	2173.20
603.78	2166.37
604.13	2159.42
604.48	2152.03
604.83	2145.82
605.18	2139.49
605.53	2132.68
605.87	2125.63
606.22	2118.84
606.57	2111.02
606.92	2103.05
607.27	2096.14
607.62	2089.60
607.96	2082.52
608.31	2076.17
608.66	2068.48
609.01	2060.83
609.36	2053.80
609.70	2046.12
610.05	2038.37
610.40	2030.17
610.75	2021.66
611.10	2013.95
611.44	2004.84
611.79	1996.24
612.14	1986.36
612.49	1975.73
612.83	1966.24
613.18	1956.94
613.53	1947.55
613.88	1937.91
614.22	1929.41
614.57	1919.69
614.92	1909.17
615.27	1898.79
615.61	1888.48
615.96	1878.70
616.31	1869.27
616.65	1859.84
617.00	1850.35
617.35	1840.85
617.70	1831.04
618.04	1821.27
618.39	1811.21
618.74	1801.99
619.08	1792.39
619.43	1783.79
619.78	1775.62
620.12	1767.12
620.47	1757.72
620.82	1747.50
621.16	1737.79
621.51	1727.97
621.85	1718.29
622.20	1708.11
622.55	1697.87
622.89	1688.01
623.24	1678.53
623.59	1668.65
623.93	1658.67
624.28	1648.79
624.62	1638.82
624.97	1628.82
625.32	1619.06
625.66	1610.17
626.01	1601.43
626.35	1592.21
626.70	1582.28
627.04	1572.41
627.39	1562.27
627.73	1553.15
628.08	1544.42
628.43	1535.15
628.77	1526.05
629.12	1517.14
629.46	1509.39
629.81	1501.21
630.15	1492.02
630.50	1482.27
630.84	1472.05
631.19	1462.27
631.53	1453.30
631.88	1443.22
632.22	1433.36
632.57	1424.25
632.91	1414.46
633.26	1404.70
633.60	1395.23
633.95	1386.13
634.29	1376.72
634.64	1367.60
634.98	1357.71
635.32	1348.55
635.67	1340.07
636.01	1330.87
636.36	1321.41
636.70	1311.93
637.05	1302.67
637.39	1293.89
637.73	1285.54
638.08	1278.04
638.42	1270.04
638.77	1261.30
639.11	1253.21
639.45	1245.53
639.80	1237.19
640.14	1228.54
640.49	1219.77
640.83	1211.06
641.17	1203.01
641.52	1195.01
641.86	1186.61
642.20	1178.92
642.55	1170.37
642.89	1161.62
643.23	1153.18
643.58	1145.07
643.92	1136.30
644.26	1127.64
644.61	1119.22
644.95	1110.46
645.29	1101.43
645.64	1092.36
645.98	1083.95
646.32	1076.11
646.66	1067.64
647.01	1059.36
647.35	1051.26
647.69	1043.08
648.04	1034.94
648.38	1026.16
648.72	1017.46
649.06	1009.10
649.41	1000.91
649.75	993.12
650.09	985.35
650.43	977.41
650.78	969.16
651.12	961.34
651.46	953.91
651.80	946.79
652.14	939.60
652.49	932.17
652.83	924.95
653.17	917.32
653.51	909.73
653.85	902.51
654.20	895.32
654.54	887.97
654.88	880.78
655.22	873.62
655.56	866.70
655.90	860.00
656.25	853.33
656.59	846.46
656.93	839.45
657.27	832.47
657.61	825.46
657.95	819.44
658.29	813.61
658.64	807.65
658.98	801.30
659.32	794.72
659.66	788.45
660.00	782.13
660.34	776.11
660.68	770.07
661.02	763.80
661.36	757.76
661.70	751.97
662.05	746.36
662.39	740.96
662.73	735.54
663.07	730.12
663.41	724.54
663.75	718.86
664.09	713.14
664.43	707.63
664.77	702.38
665.11	696.60
665.45	690.76
665.79	685.02
666.13	679.27
666.47	673.90
666.81	668.55
667.15	663.10
667.49	657.91
667.83	652.67
668.17	647.50
668.51	642.50
668.85	637.62
669.19	632.72
669.53	627.66
669.87	622.49
670.21	617.76
670.55	613.11
670.89	608.67
671.23	604.41
671.57	599.97
671.91	595.61
672.25	591.42
672.58	587.24
672.92	583.11
673.26	579.20
673.60	575.24
673.94	571.40
674.28	567.88
674.62	564.11
674.96	560.41
675.30	556.86
675.64	553.11
675.97	549.49
676.31	545.81
676.65	542.19
676.99	538.84
677.33	534.93
677.67	531.29
678.01	527.43
678.34	523.77
678.68	520.27
679.02	516.73
679.36	513.08
679.70	509.47
680.04	505.90
680.37	502.43
680.71	499.05
681.05	495.82
681.39	492.44
681.73	489.21
682.06	486.11
682.40	483.02
682.74	479.86
683.08	476.65
683.42	473.47
683.75	470.45
684.09	467.35
684.43	464.55
684.77	461.59
685.10	458.75
685.44	455.82
685.78	452.88
686.12	450.03
686.45	447.27
686.79	444.54
687.13	441.96
687.46	439.36
687.80	436.69
688.14	433.80
688.48	431.17
688.81	428.52
689.15	425.90
689.49	423.27
689.82	420.69
690.16	418.03
690.50	415.57
690.83	413.04
691.17	410.47
691.51	407.95
691.84	405.59
692.18	403.33
692.52	401.10
692.85	399.00
693.19	396.85
693.52	394.61
693.86	392.43
694.20	390.24
694.53	388.02
694.87	385.82
695.21	383.70
695.54	381.55
695.88	379.35
696.21	377.11
696.55	374.92
696.88	372.81
697.22	370.85
697.56	368.91
697.89	367.02
698.23	365.23
698.56	363.42
698.90	361.65
699.23	359.78
699.57	357.90
699.90	355.97
700.24	354.13
700.58	352.39
700.91	350.67
701.25	349.08
701.58	347.47
701.92	345.79
702.25	344.16
702.59	342.45
702.92	340.86
703.26	339.31
703.59	337.84
703.93	336.59
704.26	335.18
704.60	333.65
704.93	332.13
705.26	330.66
705.60	329.17
705.93	327.67
706.27	326.26
706.60	324.93
706.94	323.71
707.27	322.35
707.61	321.00
707.94	319.61
708.27	318.11
708.61	316.63
708.94	315.25
709.28	313.96
709.61	312.72
709.94	311.52
710.28	310.28
710.61	309.07
710.95	307.64
711.28	306.54
711.61	305.36
711.95	304.20
712.28	302.98
712.61	301.77
712.95	300.69
713.28	299.62
713.61	298.47
713.95	297.30
714.28	296.24
714.61	295.15
714.95	294.13
715.28	293.10
715.61	292.05
715.95	291.08
716.28	290.08
716.61	289.14
716.95	288.10
717.28	287.18
717.61	286.19
717.94	285.25
718.28	284.16
718.61	283.26
718.94	282.38
719.27	281.47
719.61	280.65
719.94	279.74
720.27	278.83
720.60	277.96
720.94	277.10
721.27	276.33
721.60	275.66
721.93	274.87
722.27	274.19
722.60	273.54
722.93	272.83
723.26	272.18
723.59	271.43
723.93	270.82
724.26	270.16
724.59	269.51
724.92	268.88
725.25	268.35
725.59	267.75
725.92	267.16
726.25	266.58
726.58	266.00
726.91	265.39
727.24	264.79
727.57	264.20
727.91	263.60
728.24	263.06
728.57	262.41
728.90	261.87
729.23	261.25
729.56	260.80
729.89	260.26
730.22	259.67
730.55	259.16
730.89	258.60
731.22	258.06
731.55	257.54
731.88	257.01
732.21	256.44
732.54	255.96
732.87	255.45
733.20	254.95
733.53	254.47
733.86	254.05
734.19	253.56
734.52	253.14
734.85	252.87
735.18	252.37
735.51	251.97
735.84	251.59
736.17	251.18
736.50	250.63
736.83	250.44
737.16	250.03
737.49	249.65
737.82	249.23
738.15	248.83
738.48	248.45
738.81	248.04
739.14	247.62
739.47	247.20
739.80	246.81
740.13	246.51
740.46	246.09
740.79	245.65
741.12	245.29
741.45	244.91
741.78	244.37
742.11	244.10
742.44	243.70
742.77	243.35
743.10	243.01
743.43	242.67
743.75	242.10
744.08	242.05
744.41	241.70
744.74	241.33
745.07	240.97
745.40	240.65
745.73	240.37
746.06	240.06
746.39	239.75
746.71	239.41
747.04	239.06
747.37	238.76
747.70	238.51
748.03	238.20
748.36	237.96
748.68	237.69
749.01	237.29
749.34	237.02
749.67	236.71
750.00	236.44
750.33	236.30
750.65	236.01
750.98	235.45
751.31	235.18
751.64	234.97
751.97	234.82
752.29	234.56
752.62	234.22
752.95	233.97
753.28	233.69
753.60	233.43
753.93	233.25
754.26	233.00
754.59	232.70
754.91	232.46
755.24	232.20
755.57	231.93
755.90	231.72
756.22	231.50
756.55	231.24
756.88	230.99
757.20	230.62
757.53	230.37
757.86	230.16
758.19	229.94
758.51	229.72
758.84	229.41
759.17	229.20
759.49	229.04
759.82	228.95
760.15	228.80
760.47	228.59
760.80	228.32
761.13	228.20
761.45	228.03
761.78	227.83
762.11	227.66
762.43	227.52
762.76	227.33
763.08	227.16
763.41	227.02
763.74	226.87
764.06	226.73
764.39	226.58
764.71	226.41
765.04	226.24
765.37	226.07
765.69	225.92
766.02	225.77
766.34	225.61
766.67	225.39
767.00	225.27
767.32	225.25
767.65	225.24
767.97	225.07
768.30	224.92
768.62	224.77
768.95	224.62
769.27	224.46
769.60	224.39
769.92	224.24
770.25	224.06
770.57	223.89
770.90	223.76
771.22	223.61
771.55	223.49
771.87	223.40
772.20	223.27
772.52	223.34
772.85	223.47
773.17	223.36
773.50	223.21
773.82	223.09
774.15	222.89
774.47	222.66
774.80	222.53
775.12	222.43
775.45	222.34
775.77	222.26
776.09	222.19
776.42	222.08
776.74	222.07
777.07	221.98
777.39	221.90
777.72	221.82
778.04	221.76
778.36	221.69
778.69	221.60
779.01	221.53
779.33	221.27
779.66	220.99
779.98	220.89
780.31	220.85
780.63	220.88
780.95	220.82
781.28	220.76
781.60	220.69
781.92	220.63
782.25	220.56
782.57	220.48
782.89	220.38
783.22	220.28
783.54	220.13
783.86	220.08
784.19	220.02
784.51	220.01
784.83	219.96
785.16	219.88
785.48	219.80
785.80	219.72
786.12	219.68
786.45	219.59
786.77	219.56
787.09	219.50
787.42	219.36
787.74	219.31
788.06	219.23
788.38	219.18
788.71	219.12
789.03	219.11
789.35	219.09
789.67	219.00
789.99	219.00
790.32	218.97
790.64	218.93
790.96	219.05
791.28	218.91
791.61	218.83
791.93	218.80
792.25	218.74
792.57	218.90
792.89	218.81
793.21	218.78
793.54	218.70
793.86	218.60
794.18	218.55
794.50	218.46
794.82	218.42
795.14	218.41
795.47	218.38
795.79	218.31
796.11	218.25
796.43	218.21
796.75	218.15
797.07	218.08
797.39	218.01
797.71	217.81
798.04	217.82
798.36	217.80
798.68	217.74
799.00	217.75
799.32	217.57
799.64	217.59
799.96	217.55
800.28	217.57
800.60	217.52
800.92	217.51
801.24	217.49
801.56	217.49
801.89	217.41
802.21	217.40
802.53	217.32
802.85	217.31
803.17	217.41
803.49	217.33
803.81	217.25
804.13	217.23
804.45	217.23
804.77	217.20
805.09	217.14
805.41	217.11
805.73	217.04
806.05	216.98
806.37	216.92
806.69	216.86
807.01	216.80
807.33	216.79
807.65	216.70
807.97	216.77
808.28	216.70
808.60	216.70
808.92	216.62
809.24	216.72
809.56	216.64
809.88	216.52
810.20	216.49
810.52	216.57
810.84	216.53
811.16	216.45
811.48	216.36
811.80	216.43
812.12	216.36
812.43	216.38
812.75	216.37
813.07	216.32
813.39	216.33
813.71	216.26
814.03	216.23
814.35	216.21
814.67	216.08
814.98	216.10
815.30	216.03
815.62	216.00
815.94	215.85
816.26	215.84
816.58	215.78
816.89	215.80
817.21	215.73
817.53	215.73
817.85	215.73
818.17	215.73
818.48	215.64
818.80	215.67
819.12	215.60
819.44	215.53
819.76	215.51
820.07	215.51
820.39	215.51
820.71	215.50
821.03	215.48
821.34	215.44
821.66	215.41
821.98	215.44
822.30	215.41
822.61	215.54
822.93	215.51
823.25	215.53
823.57	215.50
823.88	215.49
824.20	215.48
824.52	215.52
824.83	215.50
825.15	215.46
825.47	215.42
825.79	215.43
826.10	215.42
826.42	215.39
826.74	215.36
827.05	215.33
827.37	215.31
827.69	215.28
828.00	215.29
828.32	215.24
828.64	215.20
828.95	215.28
829.27	215.21
829.58	215.21
829.90	215.22
830.22	215.23
830.53	215.20
830.85	215.17
831.17	215.07
831.48	215.07
831.80	215.09
832.11	215.11
832.43	215.09
832.75	215.09
833.06	215.19
833.38	215.12
833.69	215.15
834.01	215.17
834.32	215.16
834.64	215.15
834.96	215.17
835.27	215.15
835.59	215.07
835.90	215.02
836.22	214.98
836.53	214.89
836.85	214.85
837.16	215.05
837.48	215.04
837.79	215.12
838.11	215.11
838.42	215.11
838.74	215.11
839.05	215.10
839.37	215.07
839.68	214.95
840.00	214.92
840.31	214.92
840.63	214.88
840.94	214.86
841.26	214.83
841.57	214.81
841.88	214.85
842.20	214.84
842.51	214.80
842.83	214.76
843.14	214.96
843.46	214.97
843.77	214.85
844.08	214.82
844.40	214.75
844.71	214.70
845.03	214.67
845.34	214.66
845.65	214.59
845.97	214.59
846.28	214.62
846.60	214.63
846.91	214.57
847.22	214.58
847.54	214.63
847.85	214.64
848.16	214.62
848.48	214.57
848.79	214.63
849.10	214.66
849.42	214.70
849.73	214.51
850.04	214.48
850.36	214.37
850.67	214.41
850.98	214.40
851.30	214.41
851.61	214.43
851.92	214.41
852.23	214.50
852.55	214.52
852.86	214.50
853.17	214.51
853.49	214.56
853.80	214.58
854.11	214.58
854.42	214.59
854.74	214.57
855.05	214.60
855.36	214.51
855.67	214.49
855.99	214.50
856.30	214.72
856.61	214.69
856.92	214.70
857.23	214.68
857.55	214.67
857.86	214.68
858.17	214.70
858.48	214.68
858.79	214.61
859.11	214.62
859.42	214.62
859.73	214.59
860.04	214.56
860.35	214.49
860.66	214.42
860.98	214.40
861.29	214.44
861.60	214.39
861.91	214.42
862.22	214.38
862.53	214.33
862.84	214.11
863.16	214.19
863.47	214.17
863.78	214.15
864.09	214.15
864.40	214.13
864.71	214.11
865.02	214.13
865.33	214.12
865.64	214.06
865.95	214.02
866.27	214.16
866.58	214.15
866.89	214.18
867.20	214.19
867.51	214.17
867.82	214.13
868.13	214.15
868.44	214.09
868.75	214.15
869.06	214.14
869.37	214.17
869.68	214.11
869.99	214.16
870.30	214.17
870.61	214.18
870.92	214.17
871.23	214.14
871.54	214.17
871.85	214.23
872.16	214.28
872.47	214.28
872.78	214.18
873.09	214.17
873.40	214.11
873.71	214.12
874.02	214.12
874.33	214.11
874.64	214.09
874.95	214.14
875.26	214.09
875.56	214.11
875.87	214.10
876.18	214.08
876.49	214.28
876.80	214.23
877.11	214.18
877.42	214.18
877.73	214.20
878.04	214.15
878.35	214.13
878.66	214.10
878.96	214.11
879.27	214.10
879.58	214.11
879.89	214.11
880.20	214.16
880.51	214.13
880.82	214.15
881.12	214.14
881.43	214.13
881.74	214.09
882.05	214.10
882.36	214.10
882.67	214.11
882.97	213.87
883.28	213.89
883.59	213.89
883.90	213.91
884.21	213.94
884.51	213.94
884.82	213.92
885.13	213.95
885.44	213.93
885.74	213.93
886.05	213.90
886.36	213.95
886.67	213.90
886.98	214.03
887.28	214.05
887.59	214.07
887.90	214.04
888.20	214.02
888.51	214.05
888.82	213.98
889.13	214.04
889.43	214.23
889.74	214.20
890.05	214.21
890.35	214.18
890.66	214.13
890.97	214.11
891.28	214.07
891.58	214.04
891.89	214.05
892.20	214.02
892.50	214.03
892.81	213.98
893.12	213.97
893.42	213.87
893.73	213.85
894.04	213.83
894.34	213.87
894.65	213.88
894.95	213.84
895.26	213.90
895.57	213.96
895.87	213.75
896.18	213.80
896.48	213.82
896.79	213.82
897.10	213.85
897.40	213.86
897.71	213.88
898.01	213.87
898.32	213.90
898.63	213.89
898.93	213.91
899.24	213.90
899.54	213.91
899.85	213.89
900.15	213.87
900.46	213.92
900.76	213.91
901.07	213.89
901.38	213.89
901.68	213.88
901.99	213.80
902.29	213.80
902.60	213.80
902.90	213.79
903.21	213.77
903.51	213.76
903.82	213.82
904.12	213.83
904.43	213.86
904.73	213.83
905.03	213.84
905.34	214.06
905.64	214.05
905.95	214.04
906.25	214.03
906.56	214.04
906.86	214.02
907.17	214.00
907.47	214.05
907.77	214.02
908.08	214.00
908.38	213.96
908.69	213.98
908.99	213.98
909.30	213.97
909.60	213.98
909.90	213.98
910.21	213.90
910.51	213.89
910.81	213.88
911.12	213.90
911.42	213.91
911.73	213.68
912.03	213.71
912.33	213.78
912.64	213.78
912.94	213.77
913.24	213.72
913.55	213.73
913.85	213.71
914.15	213.77
914.46	213.81
914.76	213.81
915.06	213.78
915.37	213.75
915.67	213.72
915.97	213.73
916.27	213.70
916.58	213.71
916.88	213.67
917.18	213.67
917.49	213.76
917.79	213.77
918.09	213.79
918.39	213.82
918.70	213.79
919.00	213.81
919.30	213.89
919.60	213.88
919.91	213.88
920.21	213.88
920.51	213.84
920.81	213.84
921.12	213.88
921.42	213.87
921.72	213.91
922.02	213.94
922.32	213.97
922.63	213.97
922.93	214.06
923.23	214.06
923.53	214.04
923.83	213.95
924.13	213.96
924.44	213.97
924.74	214.01
925.04	214.07
925.34	214.03
925.64	213.95
925.94	213.97
926.24	214.07
926.55	214.10
926.85	214.15
927.15	214.10
927.45	214.08
927.75	214.07
928.05	214.07
928.35	214.07
928.65	214.09
928.95	214.09
929.26	214.02
929.56	214.08
929.86	214.10
930.16	214.07
930.46	214.02
930.76	214.02
931.06	213.90
931.36	213.84
931.66	213.89
931.96	213.89
932.26	213.87
932.56	213.77
932.86	213.73
933.16	213.69
933.46	213.70
933.76	213.65
934.06	213.73
934.36	213.83
934.66	213.79
934.96	213.77
935.26	213.80
935.56	213.84
935.86	213.76
936.16	213.75
936.46	213.71
936.76	213.71
937.06	213.68
937.36	213.72
937.66	213.73
937.96	213.74
938.26	213.69
938.56	213.72
938.86	213.76
939.16	213.83
939.46	213.86
939.76	213.85
940.06	213.86
940.35	213.80
940.65	213.64
940.95	213.69
941.25	213.65
941.55	213.62
941.85	213.58
942.15	213.64
942.45	213.68
942.75	213.69
943.04	213.75
943.34	213.81
943.64	213.75
943.94	213.74
944.24	213.71
944.54	213.74
944.84	213.70
945.13	213.65
945.43	213.59
945.73	213.58
946.03	213.57
946.33	213.53
946.62	213.51
946.92	213.54
947.22	213.53
947.52	213.54
947.82	213.57
948.11	213.56
948.41	213.48
948.71	213.43
949.01	213.44
949.31	213.37
949.60	213.33
949.90	213.41
950.20	213.39
950.50	213.38
950.79	213.39
951.09	213.41
951.39	213.38
951.69	213.34
951.98	213.35
952.28	213.38
952.58	213.44
952.87	213.44
953.17	213.45
953.47	213.43
953.76	213.40
954.06	213.35
954.36	213.33
954.66	213.34
954.95	213.40
955.25	213.44
955.55	213.51
955.84	213.50
956.14	213.46
956.44	213.47
956.73	213.42
957.03	213.41
957.32	213.42
957.62	213.40
957.92	213.45
958.21	213.44
958.51	213.70
958.81	213.69
959.10	213.70
959.40	213.74
959.69	213.76
959.99	213.80
960.29	213.80
960.58	213.82
960.88	213.89
961.17	213.83
961.47	213.82
961.76	213.77
962.06	213.80
962.36	213.78
962.65	213.82
962.95	213.86
963.24	213.85
963.54	213.88
963.83	213.92
964.13	213.91
964.42	213.89
964.72	213.67
965.01	213.68
965.31	213.67
965.60	213.62
965.90	213.76
966.19	213.71
966.49	213.75
966.78	213.72
967.08	213.71
967.37	213.73
967.67	213.69
967.96	213.74
968.26	213.69
968.55	213.75
968.85	213.75
969.14	213.73
969.43	213.72
969.73	213.68
970.02	213.69
970.32	213.64
970.61	213.62
970.91	213.57
971.20	213.56
971.49	213.57
971.79	213.62
972.08	213.45
972.38	213.47
972.67	213.45
972.96	213.50
973.26	213.48
973.55	213.52
973.85	213.53
974.14	213.53
974.43	213.61
974.73	213.56
975.02	213.51
975.31	213.56
975.61	213.59
975.90	213.57
976.19	213.54
976.49	213.59
976.78	213.60
977.07	213.63
977.37	213.65
977.66	213.66
977.95	213.62
978.24	213.63
978.54	213.66
978.83	213.67
979.12	213.63
979.42	213.61
979.71	213.58
980.00	213.57
980.29	213.56
980.59	213.49
980.88	213.53
981.17	213.54
981.46	213.49
981.76	213.47
982.05	213.52
982.34	213.52
982.63	213.52
982.93	213.50
983.22	213.56
983.51	213.55
983.80	213.59
984.09	213.55
984.39	213.53
984.68	213.52
984.97	213.52
985.26	213.52
985.55	213.54
985.85	213.49
986.14	213.55
986.43	213.57
986.72	213.57
987.01	213.51
987.30	213.49
987.59	213.51
987.89	213.51
988.18	213.47
988.47	213.47
988.76	213.45
989.05	213.45
989.34	213.40
989.63	213.43
989.92	213.37
990.22	213.42
990.51	213.42
990.80	213.39
991.09	213.41
991.38	213.42
991.67	213.42
991.96	213.43
992.25	213.41
992.54	213.39
992.83	213.37
993.12	213.36
993.41	213.43
993.70	213.49
993.99	213.53
994.28	213.55
994.58	213.60
994.87	213.60
995.16	213.61
995.45	213.58
995.74	213.54
996.03	213.57
996.32	213.60
996.61	213.64
996.90	213.64
997.19	213.63
997.48	213.65
997.77	213.61
998.06	213.61
998.34	213.60
998.63	213.57
998.92	213.63
999.21	213.68
999.50	213.66
999.79	213.62
1000.08	213.64
1000.37	213.65
1000.66	213.63
1000.95	213.69
1001.24	213.72
1001.53	213.78
1001.82	213.75
1002.11	213.72
1002.40	213.73
1002.68	213.79
1002.97	213.93
1003.26	213.91
1003.55	213.87
1003.84	213.90
1004.13	213.99
1004.42	213.97
1004.71	213.98
1004.99	213.96
1005.28	213.98
1005.57	213.93
1005.86	213.89
1006.15	213.86
1006.44	213.81
1006.72	213.84
1007.01	213.79
1007.30	213.78
1007.59	213.72
1007.88	213.74
1008.17	213.74
1008.45	213.68
1008.74	213.58
1009.03	213.50
1009.32	213.51
1009.60	213.51
1009.89	213.48
1010.18	213.36
1010.47	213.35
1010.76	213.33
1011.04	213.30
1011.33	213.31
1011.62	213.36
1011.91	213.37
1012.19	213.36
1012.48	213.38
1012.77	213.39
1013.05	213.48
1013.34	213.46
1013.63	213.48
1013.92	213.50
1014.20	213.49
1014.49	213.51
1014.78	213.55
1015.06	213.47
1015.35	213.49
1015.64	213.52
1015.92	213.55
1016.21	213.56
1016.50	213.55
1016.78	213.59
1017.07	213.62
1017.36	213.57
1017.64	213.54
1017.93	213.59
1018.22	213.58
1018.50	213.57
1018.79	213.53
1019.08	213.44
1019.36	213.45
1019.65	213.41
1019.93	213.46
1020.22	213.49
1020.51	213.61
1020.79	213.58
1021.08	213.03
1021.36	213.11
1021.65	213.44
1021.94	213.48
1022.22	213.35
1022.51	212.92
1022.79	214.63
1023.08	213.92
1023.36	216.51
1023.65	212.87
>>>>>End Processed Spectral Data<<<<<
