SpectraSuite Data File
++++++++++++++++++++++++++++++++++++
Date: Tue Jan 29 15:58:37 EST 2013
User: group
Dark Spectrum Present: No
Reference Spectrum Present: No
Number of Sampled Component Spectra: 1
Spectrometers: USB2E7196
Integration Time (usec): 65000 (USB2E7196)
Spectra Averaged: 100 (USB2E7196)
Boxcar Smoothing: 10 (USB2E7196)
Correct for Electrical Dark: No (USB2E7196)
Strobe/Lamp Enabled: No (USB2E7196)
Correct for Detector Non-linearity: No (USB2E7196)
Correct for Stray Light: No (USB2E7196)
Number of Pixels in Processed Spectrum: 2048
>>>>>Begin Processed Spectral Data<<<<<
339.09	0.00
339.48	202.94
339.86	204.33
340.24	205.57
340.63	206.99
341.01	211.15
341.39	209.51
341.78	210.77
342.16	212.79
342.54	212.73
342.93	201.89
343.31	212.08
343.69	212.61
344.07	213.05
344.46	213.50
344.84	213.91
345.22	214.08
345.60	214.35
345.99	214.57
346.37	214.70
346.75	214.82
347.13	214.90
347.52	215.01
347.90	215.12
348.28	215.17
348.66	215.23
349.05	215.26
349.43	215.29
349.81	215.38
350.19	215.42
350.57	215.52
350.96	215.60
351.34	215.72
351.72	215.83
352.10	215.95
352.48	216.00
352.87	216.05
353.25	216.15
353.63	216.23
354.01	216.28
354.39	216.35
354.77	216.44
355.15	216.57
355.54	216.62
355.92	216.63
356.30	216.70
356.68	216.93
357.06	216.99
357.44	217.06
357.82	217.11
358.20	217.20
358.58	217.26
358.97	217.34
359.35	217.47
359.73	217.59
360.11	217.67
360.49	217.75
360.87	217.79
361.25	217.85
361.63	217.96
362.01	218.04
362.39	218.07
362.77	218.11
363.15	218.12
363.53	218.15
363.91	218.19
364.29	218.23
364.67	218.06
365.05	218.09
365.43	218.13
365.81	218.15
366.19	218.27
366.57	218.36
366.95	218.38
367.33	218.32
367.71	218.29
368.09	218.36
368.47	218.39
368.85	218.37
369.23	218.42
369.61	218.34
369.99	218.39
370.37	218.42
370.75	218.51
371.13	218.47
371.51	218.41
371.89	218.43
372.27	218.38
372.65	218.39
373.03	218.34
373.41	218.28
373.78	218.24
374.16	218.13
374.54	218.06
374.92	217.98
375.30	217.93
375.68	217.87
376.06	217.80
376.44	217.73
376.82	217.74
377.19	217.70
377.57	217.64
377.95	217.55
378.33	217.47
378.71	217.32
379.09	217.31
379.47	217.29
379.84	217.21
380.22	217.15
380.60	217.08
380.98	217.03
381.36	216.95
381.73	216.90
382.11	216.89
382.49	216.79
382.87	216.73
383.25	216.72
383.62	216.88
384.00	216.79
384.38	216.76
384.76	216.74
385.13	216.76
385.51	216.77
385.89	216.68
386.27	216.67
386.64	216.67
387.02	216.62
387.40	216.57
387.78	216.54
388.15	216.55
388.53	216.51
388.91	216.48
389.29	216.46
389.66	216.45
390.04	216.38
390.42	216.42
390.79	216.41
391.17	216.37
391.55	216.17
391.92	216.16
392.30	216.16
392.68	216.12
393.05	216.07
393.43	216.03
393.81	216.04
394.18	216.01
394.56	215.99
394.94	216.04
395.31	216.04
395.69	216.07
396.06	216.10
396.44	216.16
396.82	216.17
397.19	216.29
397.57	216.32
397.95	216.36
398.32	216.32
398.70	216.36
399.07	216.44
399.45	216.48
399.82	216.53
400.20	216.54
400.58	216.58
400.95	216.53
401.33	216.65
401.70	216.84
402.08	216.95
402.45	217.02
402.83	217.12
403.20	217.22
403.58	217.33
403.95	217.47
404.33	217.61
404.71	217.77
405.08	218.04
405.46	218.19
405.83	218.42
406.21	218.66
406.58	218.89
406.96	219.12
407.33	219.34
407.70	219.65
408.08	220.09
408.45	220.48
408.83	220.89
409.20	221.20
409.58	221.48
409.95	221.91
410.33	222.40
410.70	222.79
411.08	223.31
411.45	223.86
411.82	224.44
412.20	225.10
412.57	225.88
412.95	226.41
413.32	227.22
413.69	227.99
414.07	228.83
414.44	229.80
414.82	230.80
415.19	231.93
415.56	233.04
415.94	234.17
416.31	235.50
416.68	236.83
417.06	238.39
417.43	239.88
417.81	241.53
418.18	243.24
418.55	245.10
418.93	247.06
419.30	249.04
419.67	251.14
420.04	253.29
420.42	255.56
420.79	258.26
421.16	260.94
421.54	263.72
421.91	266.57
422.28	269.51
422.66	272.60
423.03	275.75
423.40	278.98
423.77	282.45
424.15	285.96
424.52	289.71
424.89	293.69
425.26	297.62
425.64	301.37
426.01	305.46
426.38	309.74
426.75	314.14
427.13	318.74
427.50	323.48
427.87	328.53
428.24	333.51
428.61	338.28
428.99	343.58
429.36	349.42
429.73	355.13
430.10	360.74
430.47	366.61
430.85	372.65
431.22	379.08
431.59	385.90
431.96	392.46
432.33	399.60
432.70	406.57
433.08	414.76
433.45	422.49
433.82	430.22
434.19	438.78
434.56	447.11
434.93	455.07
435.30	463.11
435.68	471.88
436.05	480.50
436.42	489.06
436.79	496.90
437.16	505.28
437.53	514.19
437.90	522.94
438.27	531.57
438.64	540.47
439.01	548.66
439.38	555.99
439.75	563.06
440.13	571.21
440.50	578.87
440.87	585.05
441.24	591.46
441.61	598.50
441.98	603.67
442.35	609.79
442.72	615.87
443.09	621.60
443.46	625.10
443.83	627.55
444.20	629.65
444.57	632.68
444.94	634.01
445.31	635.35
445.68	636.75
446.05	637.24
446.42	636.41
446.79	635.51
447.16	634.42
447.53	633.68
447.90	630.39
448.27	627.16
448.64	622.70
449.01	619.45
449.37	613.76
449.74	608.26
450.11	601.61
450.48	594.50
450.85	587.36
451.22	581.16
451.59	575.24
451.96	569.65
452.33	562.05
452.70	555.26
453.07	547.09
453.43	538.82
453.80	530.93
454.17	523.34
454.54	516.10
454.91	508.28
455.28	500.54
455.65	493.49
456.02	486.35
456.38	480.25
456.75	472.80
457.12	466.51
457.49	460.34
457.86	454.39
458.23	449.32
458.59	443.68
458.96	437.94
459.33	432.93
459.70	427.79
460.07	423.75
460.43	419.10
460.80	414.74
461.17	410.89
461.54	406.85
461.91	402.95
462.27	399.05
462.64	395.75
463.01	392.17
463.38	388.65
463.74	385.12
464.11	382.06
464.48	379.39
464.85	376.43
465.21	374.05
465.58	371.56
465.95	368.48
466.32	365.93
466.68	363.45
467.05	360.96
467.42	358.56
467.78	355.99
468.15	353.57
468.52	351.78
468.88	349.47
469.25	347.36
469.62	345.64
469.98	343.81
470.35	342.10
470.72	340.54
471.08	338.83
471.45	337.41
471.82	335.91
472.18	334.21
472.55	333.09
472.92	331.89
473.28	330.76
473.65	329.69
474.02	328.66
474.38	327.88
474.75	327.19
475.11	326.39
475.48	325.84
475.85	325.42
476.21	324.96
476.58	324.65
476.94	324.46
477.31	324.19
477.67	323.90
478.04	323.78
478.41	323.70
478.77	323.88
479.14	323.88
479.50	324.07
479.87	324.44
480.23	324.75
480.60	324.94
480.96	325.24
481.33	325.87
481.69	326.46
482.06	326.99
482.42	327.50
482.79	328.19
483.15	328.98
483.52	329.99
483.88	330.86
484.25	331.78
484.61	332.79
484.98	333.85
485.34	335.19
485.71	336.53
486.07	338.00
486.44	339.27
486.80	340.83
487.17	342.44
487.53	344.25
487.90	346.13
488.26	348.18
488.62	350.33
488.99	352.39
489.35	354.56
489.72	356.91
490.08	359.41
490.44	361.93
490.81	364.59
491.17	367.25
491.54	370.27
491.90	373.32
492.26	376.55
492.63	380.01
492.99	383.50
493.36	387.20
493.72	391.04
494.08	395.09
494.45	399.27
494.81	403.66
495.17	408.14
495.54	412.81
495.90	417.60
496.26	422.45
496.63	427.60
496.99	432.97
497.35	438.57
497.72	444.38
498.08	450.30
498.44	456.48
498.80	462.84
499.17	469.32
499.53	476.00
499.89	482.89
500.26	489.84
500.62	496.92
500.98	504.23
501.34	511.69
501.71	519.39
502.07	527.21
502.43	535.18
502.79	543.23
503.16	551.61
503.52	560.15
503.88	568.87
504.24	577.77
504.60	586.81
504.97	595.99
505.33	605.28
505.69	615.12
506.05	624.92
506.41	634.75
506.78	644.77
507.14	655.00
507.50	665.34
507.86	675.97
508.22	686.72
508.59	697.40
508.95	708.43
509.31	719.68
509.67	731.09
510.03	742.50
510.39	754.28
510.75	766.10
511.12	777.95
511.48	790.05
511.84	802.33
512.20	814.60
512.56	827.10
512.92	839.74
513.28	852.19
513.64	864.83
514.00	877.49
514.37	890.30
514.73	903.33
515.09	916.15
515.45	928.84
515.81	941.66
516.17	954.93
516.53	967.94
516.89	980.90
517.25	993.88
517.61	1007.16
517.97	1020.32
518.33	1033.19
518.69	1046.57
519.05	1060.05
519.41	1073.45
519.77	1087.04
520.13	1100.18
520.49	1113.16
520.85	1126.41
521.21	1139.57
521.57	1153.18
521.93	1166.17
522.29	1179.80
522.65	1193.44
523.01	1206.88
523.37	1219.83
523.73	1232.78
524.09	1245.70
524.45	1258.91
524.81	1272.22
525.17	1285.33
525.53	1298.25
525.89	1311.30
526.25	1324.11
526.61	1336.68
526.97	1349.46
527.33	1362.09
527.68	1375.28
528.04	1388.42
528.40	1401.27
528.76	1414.28
529.12	1426.81
529.48	1439.68
529.84	1451.49
530.20	1463.82
530.56	1476.05
530.91	1489.15
531.27	1501.78
531.63	1514.35
531.99	1526.74
532.35	1538.57
532.71	1550.61
533.07	1563.03
533.42	1575.07
533.78	1586.91
534.14	1598.72
534.50	1609.63
534.86	1620.96
535.21	1631.54
535.57	1642.72
535.93	1653.72
536.29	1664.59
536.65	1675.64
537.00	1686.35
537.36	1697.37
537.72	1708.01
538.08	1719.05
538.44	1729.51
538.79	1740.19
539.15	1750.61
539.51	1760.93
539.87	1771.96
540.22	1782.41
540.58	1793.05
540.94	1803.58
541.29	1813.56
541.65	1822.93
542.01	1833.20
542.37	1843.00
542.72	1852.92
543.08	1862.45
543.44	1872.48
543.79	1881.39
544.15	1890.64
544.51	1900.40
544.87	1910.00
545.22	1918.82
545.58	1927.44
545.94	1935.94
546.29	1944.15
546.65	1952.28
547.01	1960.32
547.36	1967.67
547.72	1975.22
548.07	1982.70
548.43	1990.17
548.79	1997.69
549.14	2005.59
549.50	2013.55
549.86	2020.91
550.21	2027.95
550.57	2035.35
550.92	2041.81
551.28	2049.06
551.64	2056.04
551.99	2063.23
552.35	2070.20
552.70	2076.83
553.06	2083.25
553.41	2089.38
553.77	2095.84
554.13	2102.11
554.48	2108.95
554.84	2115.81
555.19	2122.21
555.55	2128.47
555.90	2134.49
556.26	2141.21
556.61	2146.94
556.97	2151.76
557.32	2157.62
557.68	2163.92
558.03	2169.51
558.39	2174.79
558.74	2180.68
559.10	2186.20
559.45	2191.75
559.81	2197.21
560.16	2202.79
560.52	2208.68
560.87	2215.15
561.23	2221.05
561.58	2227.64
561.94	2232.82
562.29	2237.80
562.64	2243.89
563.00	2249.40
563.35	2255.04
563.71	2260.88
564.06	2266.55
564.42	2272.59
564.77	2277.77
565.12	2282.99
565.48	2288.43
565.83	2293.86
566.19	2299.43
566.54	2304.83
566.89	2309.46
567.25	2314.12
567.60	2319.82
567.96	2325.06
568.31	2329.56
568.66	2333.83
569.02	2337.76
569.37	2341.61
569.72	2345.99
570.08	2349.58
570.43	2352.82
570.78	2356.02
571.14	2358.56
571.49	2361.90
571.84	2365.57
572.20	2368.39
572.55	2371.66
572.90	2373.82
573.26	2377.16
573.61	2379.63
573.96	2381.91
574.31	2383.94
574.67	2385.95
575.02	2387.03
575.37	2388.63
575.72	2389.78
576.08	2391.33
576.43	2391.70
576.78	2392.54
577.13	2394.49
577.49	2395.90
577.84	2397.48
578.19	2399.10
578.54	2400.07
578.90	2401.34
579.25	2401.51
579.60	2402.00
579.95	2401.54
580.30	2402.06
580.66	2401.40
581.01	2400.13
581.36	2398.27
581.71	2397.21
582.06	2396.38
582.42	2395.86
582.77	2394.08
583.12	2392.68
583.47	2391.66
583.82	2391.36
584.17	2390.41
584.53	2388.31
584.88	2386.43
585.23	2384.50
585.58	2382.43
585.93	2380.44
586.28	2378.29
586.63	2376.22
586.98	2374.10
587.34	2372.29
587.69	2370.14
588.04	2368.39
588.39	2367.02
588.74	2364.74
589.09	2362.54
589.44	2359.72
589.79	2357.48
590.14	2355.71
590.49	2352.97
590.84	2349.52
591.19	2346.79
591.54	2343.62
591.89	2339.82
592.25	2336.67
592.60	2332.70
592.95	2328.72
593.30	2324.73
593.65	2320.53
594.00	2316.12
594.35	2313.28
594.70	2308.82
595.05	2304.36
595.40	2299.11
595.75	2293.70
596.10	2290.07
596.45	2285.09
596.80	2280.75
597.15	2275.52
597.50	2269.67
597.85	2264.92
598.19	2259.76
598.54	2254.00
598.89	2248.94
599.24	2244.51
599.59	2238.65
599.94	2233.20
600.29	2227.53
600.64	2221.77
600.99	2215.33
601.34	2210.00
601.69	2203.07
602.04	2196.84
602.39	2190.40
602.74	2184.47
603.08	2178.93
603.43	2172.57
603.78	2165.98
604.13	2159.01
604.48	2151.99
604.83	2146.01
605.18	2139.82
605.53	2133.02
605.87	2126.16
606.22	2119.42
606.57	2111.70
606.92	2103.93
607.27	2096.99
607.62	2090.48
607.96	2083.62
608.31	2077.07
608.66	2069.41
609.01	2061.98
609.36	2055.01
609.70	2047.27
610.05	2039.59
610.40	2031.47
610.75	2023.29
611.10	2015.70
611.44	2006.94
611.79	1998.13
612.14	1988.09
612.49	1977.73
612.83	1968.53
613.18	1959.46
613.53	1950.20
613.88	1940.68
614.22	1932.15
614.57	1922.25
614.92	1911.72
615.27	1901.69
615.61	1891.76
615.96	1882.15
616.31	1872.68
616.65	1863.13
617.00	1853.30
617.35	1843.63
617.70	1833.93
618.04	1823.80
618.39	1813.40
618.74	1803.74
619.08	1794.26
619.43	1785.65
619.78	1777.38
620.12	1768.56
620.47	1758.55
620.82	1748.28
621.16	1738.32
621.51	1728.15
621.85	1718.23
622.20	1707.68
622.55	1697.06
622.89	1687.12
623.24	1677.46
623.59	1667.60
623.93	1657.52
624.28	1647.83
624.62	1637.62
624.97	1627.21
625.32	1617.57
625.66	1608.76
626.01	1599.77
626.35	1590.27
626.70	1580.11
627.04	1569.98
627.39	1560.04
627.73	1550.81
628.08	1541.73
628.43	1532.18
628.77	1522.99
629.12	1514.13
629.46	1506.35
629.81	1497.78
630.15	1488.15
630.50	1478.27
630.84	1467.72
631.19	1457.80
631.53	1448.40
631.88	1438.25
632.22	1428.30
632.57	1418.91
632.91	1408.73
633.26	1398.89
633.60	1389.23
633.95	1379.96
634.29	1370.41
634.64	1360.90
634.98	1351.04
635.32	1341.64
635.67	1333.07
636.01	1323.98
636.36	1314.14
636.70	1304.54
637.05	1295.37
637.39	1286.35
637.73	1277.64
638.08	1270.21
638.42	1261.86
638.77	1253.04
639.11	1244.80
639.45	1236.93
639.80	1228.13
640.14	1219.49
640.49	1210.56
640.83	1201.89
641.17	1193.74
641.52	1185.43
641.86	1176.83
642.20	1168.93
642.55	1160.38
642.89	1151.62
643.23	1142.77
643.58	1134.64
643.92	1125.49
644.26	1116.63
644.61	1108.24
644.95	1099.49
645.29	1090.09
645.64	1081.01
645.98	1072.64
646.32	1064.58
646.66	1056.04
647.01	1047.64
647.35	1039.45
647.69	1031.04
648.04	1022.65
648.38	1013.69
648.72	1004.96
649.06	996.51
649.41	988.29
649.75	980.36
650.09	972.43
650.43	964.35
650.78	956.22
651.12	948.60
651.46	941.27
651.80	933.97
652.14	926.65
652.49	919.11
652.83	911.77
653.17	903.96
653.51	896.38
653.85	889.17
654.20	882.01
654.54	874.47
654.88	867.36
655.22	860.23
655.56	853.23
655.90	846.52
656.25	839.84
656.59	832.90
656.93	825.83
657.27	818.69
657.61	811.93
657.95	805.85
658.29	799.97
658.64	793.80
658.98	787.32
659.32	780.76
659.66	774.57
660.00	768.30
660.34	762.38
660.68	756.37
661.02	750.05
661.36	744.22
661.70	738.51
662.05	732.86
662.39	727.36
662.73	722.15
663.07	716.81
663.41	711.36
663.75	705.74
664.09	700.23
664.43	694.96
664.77	689.56
665.11	683.68
665.45	677.87
665.79	672.17
666.13	666.58
666.47	661.19
666.81	655.82
667.15	650.56
667.49	645.32
667.83	640.12
668.17	635.03
668.51	629.93
668.85	625.05
669.19	620.24
669.53	615.33
669.87	610.24
670.21	605.51
670.55	600.73
670.89	596.46
671.23	592.26
671.57	587.95
671.91	583.71
672.25	579.68
672.58	575.57
672.92	571.52
673.26	567.67
673.60	563.79
673.94	560.03
674.28	556.36
674.62	552.76
674.96	549.08
675.30	545.62
675.64	542.03
675.97	538.49
676.31	534.92
676.65	531.32
676.99	527.85
677.33	524.14
677.67	520.51
678.01	516.71
678.34	513.02
678.68	509.52
679.02	505.94
679.36	502.29
679.70	498.73
680.04	495.29
680.37	491.92
680.71	488.71
681.05	485.61
681.39	482.46
681.73	479.32
682.06	476.32
682.40	473.23
682.74	470.06
683.08	466.92
683.42	463.76
683.75	460.89
684.09	457.97
684.43	455.19
684.77	452.34
685.10	449.54
685.44	446.69
685.78	443.78
686.12	441.08
686.45	438.39
686.79	435.76
687.13	433.27
687.46	430.63
687.80	428.02
688.14	425.17
688.48	422.58
688.81	419.91
689.15	417.38
689.49	414.84
689.82	412.39
690.16	409.90
690.50	407.52
690.83	405.04
691.17	402.62
691.51	400.22
691.84	398.05
692.18	395.84
692.52	393.65
692.85	391.61
693.19	389.55
693.52	387.42
693.86	385.32
694.20	383.20
694.53	381.13
694.87	378.98
695.21	377.00
695.54	374.89
695.88	372.83
696.21	370.68
696.55	368.59
696.88	366.63
697.22	364.67
697.56	362.83
697.89	361.01
698.23	359.29
698.56	357.53
698.90	355.79
699.23	353.92
699.57	352.11
699.90	350.31
700.24	348.55
700.58	346.85
700.91	345.21
701.25	343.69
701.58	342.16
701.92	340.57
702.25	338.97
702.59	337.43
702.92	335.92
703.26	334.41
703.59	333.01
703.93	331.74
704.26	330.39
704.60	328.95
704.93	327.52
705.26	326.05
705.60	324.61
705.93	323.16
706.27	321.90
706.60	320.70
706.94	319.47
707.27	318.12
707.61	316.82
707.94	315.49
708.27	313.98
708.61	312.52
708.94	311.24
709.28	309.99
709.61	308.79
709.94	307.68
710.28	306.51
710.61	305.29
710.95	303.91
711.28	302.86
711.61	301.67
711.95	300.55
712.28	299.41
712.61	298.25
712.95	297.25
713.28	296.25
713.61	295.13
713.95	294.03
714.28	293.04
714.61	292.02
714.95	291.04
715.28	290.10
715.61	289.16
715.95	288.21
716.28	287.28
716.61	286.34
716.95	285.35
717.28	284.45
717.61	283.55
717.94	282.69
718.28	281.64
718.61	280.78
718.94	279.89
719.27	279.02
719.61	278.24
719.94	277.37
720.27	276.45
720.60	275.64
720.94	274.87
721.27	274.16
721.60	273.53
721.93	272.85
722.27	272.23
722.60	271.58
722.93	270.90
723.26	270.30
723.59	269.62
723.93	269.00
724.26	268.36
724.59	267.77
724.92	267.21
725.25	266.72
725.59	266.21
725.92	265.70
726.25	265.19
726.58	264.59
726.91	264.02
727.24	263.50
727.57	262.96
727.91	262.37
728.24	261.82
728.57	261.25
728.90	260.72
729.23	260.12
729.56	259.72
729.89	259.19
730.22	258.61
730.55	258.10
730.89	257.60
731.22	257.13
731.55	256.63
731.88	256.14
732.21	255.58
732.54	255.08
732.87	254.59
733.20	254.11
733.53	253.69
733.86	253.27
734.19	252.76
734.52	252.31
734.85	252.07
735.18	251.64
735.51	251.26
735.84	250.83
736.17	250.48
736.50	249.95
736.83	249.83
737.16	249.49
737.49	249.13
737.82	248.72
738.15	248.39
738.48	248.00
738.81	247.61
739.14	247.21
739.47	246.81
739.80	246.46
740.13	246.10
740.46	245.75
740.79	245.36
741.12	245.08
741.45	244.75
741.78	244.27
742.11	243.95
742.44	243.58
742.77	243.26
743.10	242.93
743.43	242.57
743.75	242.01
744.08	241.93
744.41	241.57
744.74	241.24
745.07	240.82
745.40	240.56
745.73	240.29
746.06	240.00
746.39	239.73
746.71	239.38
747.04	239.08
747.37	238.70
747.70	238.43
748.03	238.13
748.36	237.86
748.68	237.60
749.01	237.29
749.34	236.99
749.67	236.71
750.00	236.44
750.33	236.33
750.65	236.07
750.98	235.57
751.31	235.33
751.64	235.10
751.97	234.98
752.29	234.68
752.62	234.37
752.95	234.12
753.28	233.85
753.60	233.62
753.93	233.46
754.26	233.28
754.59	233.02
754.91	232.79
755.24	232.55
755.57	232.31
755.90	232.08
756.22	231.88
756.55	231.66
756.88	231.40
757.20	231.10
757.53	230.82
757.86	230.60
758.19	230.44
758.51	230.25
758.84	229.98
759.17	229.79
759.49	229.62
759.82	229.55
760.15	229.34
760.47	229.14
760.80	228.84
761.13	228.71
761.45	228.53
761.78	228.34
762.11	228.19
762.43	228.00
762.76	227.83
763.08	227.68
763.41	227.54
763.74	227.43
764.06	227.26
764.39	227.14
764.71	227.01
765.04	226.85
765.37	226.69
765.69	226.52
766.02	226.39
766.34	226.26
766.67	226.07
767.00	226.02
767.32	226.05
767.65	226.05
767.97	225.93
768.30	225.82
768.62	225.69
768.95	225.56
769.27	225.44
769.60	225.35
769.92	225.22
770.25	225.04
770.57	224.86
770.90	224.73
771.22	224.61
771.55	224.51
771.87	224.39
772.20	224.28
772.52	224.36
772.85	224.53
773.17	224.43
773.50	224.29
773.82	224.12
774.15	223.88
774.47	223.68
774.80	223.56
775.12	223.45
775.45	223.36
775.77	223.24
776.09	223.20
776.42	223.14
776.74	223.10
777.07	223.01
777.39	222.91
777.72	222.82
778.04	222.75
778.36	222.64
778.69	222.57
779.01	222.50
779.33	222.22
779.66	221.87
779.98	221.77
780.31	221.73
780.63	221.78
780.95	221.79
781.28	221.74
781.60	221.64
781.92	221.57
782.25	221.54
782.57	221.50
782.89	221.38
783.22	221.30
783.54	221.19
783.86	221.17
784.19	221.17
784.51	221.17
784.83	221.10
785.16	221.05
785.48	220.96
785.80	220.88
786.12	220.91
786.45	220.86
786.77	220.85
787.09	220.76
787.42	220.61
787.74	220.52
788.06	220.49
788.38	220.43
788.71	220.36
789.03	220.30
789.35	220.25
789.67	220.20
789.99	220.15
790.32	220.11
790.64	220.08
790.96	220.17
791.28	220.09
791.61	220.01
791.93	219.97
792.25	219.93
792.57	220.05
792.89	219.92
793.21	219.90
793.54	219.84
793.86	219.79
794.18	219.75
794.50	219.65
794.82	219.58
795.14	219.58
795.47	219.57
795.79	219.51
796.11	219.42
796.43	219.37
796.75	219.35
797.07	219.26
797.39	219.21
797.71	219.00
798.04	218.95
798.36	218.93
798.68	218.89
799.00	218.91
799.32	218.77
799.64	218.79
799.96	218.76
800.28	218.74
800.60	218.68
800.92	218.68
801.24	218.68
801.56	218.66
801.89	218.62
802.21	218.60
802.53	218.51
802.85	218.54
803.17	218.62
803.49	218.53
803.81	218.50
804.13	218.45
804.45	218.40
804.77	218.41
805.09	218.37
805.41	218.33
805.73	218.22
806.05	218.15
806.37	218.10
806.69	218.05
807.01	218.01
807.33	218.00
807.65	217.86
807.97	217.93
808.28	217.90
808.60	217.88
808.92	217.85
809.24	217.97
809.56	217.94
809.88	217.87
810.20	217.85
810.52	217.88
810.84	217.84
811.16	217.84
811.48	217.79
811.80	217.86
812.12	217.84
812.43	217.89
812.75	217.89
813.07	217.84
813.39	217.84
813.71	217.80
814.03	217.77
814.35	217.80
814.67	217.69
814.98	217.63
815.30	217.62
815.62	217.57
815.94	217.40
816.26	217.35
816.58	217.27
816.89	217.27
817.21	217.18
817.53	217.17
817.85	217.12
818.17	217.09
818.48	216.96
818.80	216.97
819.12	216.91
819.44	216.84
819.76	216.83
820.07	216.78
820.39	216.75
820.71	216.75
821.03	216.70
821.34	216.66
821.66	216.68
821.98	216.65
822.30	216.63
822.61	216.78
822.93	216.74
823.25	216.74
823.57	216.71
823.88	216.75
824.20	216.72
824.52	216.74
824.83	216.72
825.15	216.71
825.47	216.66
825.79	216.67
826.10	216.66
826.42	216.63
826.74	216.66
827.05	216.64
827.37	216.64
827.69	216.62
828.00	216.62
828.32	216.61
828.64	216.58
828.95	216.67
829.27	216.57
829.58	216.55
829.90	216.56
830.22	216.58
830.53	216.50
830.85	216.51
831.17	216.47
831.48	216.47
831.80	216.46
832.11	216.43
832.43	216.37
832.75	216.35
833.06	216.46
833.38	216.36
833.69	216.35
834.01	216.34
834.32	216.34
834.64	216.30
834.96	216.25
835.27	216.25
835.59	216.18
835.90	216.12
836.22	216.14
836.53	216.08
836.85	216.03
837.16	216.26
837.48	216.22
837.79	216.26
838.11	216.25
838.42	216.26
838.74	216.30
839.05	216.30
839.37	216.27
839.68	216.15
840.00	216.16
840.31	216.17
840.63	216.14
840.94	216.11
841.26	216.09
841.57	216.14
841.88	216.16
842.20	216.14
842.51	216.12
842.83	216.08
843.14	216.27
843.46	216.26
843.77	216.12
844.08	216.12
844.40	216.06
844.71	216.01
845.03	216.00
845.34	215.98
845.65	215.95
845.97	215.98
846.28	215.99
846.60	216.00
846.91	215.97
847.22	215.97
847.54	216.01
847.85	216.02
848.16	215.98
848.48	215.91
848.79	215.99
849.10	216.01
849.42	216.02
849.73	215.83
850.04	215.86
850.36	215.78
850.67	215.81
850.98	215.83
851.30	215.86
851.61	215.85
851.92	215.82
852.23	215.86
852.55	215.87
852.86	215.85
853.17	215.90
853.49	215.94
853.80	215.98
854.11	216.01
854.42	216.03
854.74	216.01
855.05	215.98
855.36	215.90
855.67	215.92
855.99	215.95
856.30	216.16
856.61	216.16
856.92	216.14
857.23	216.13
857.55	216.08
857.86	216.04
858.17	216.08
858.48	216.06
858.79	216.03
859.11	216.03
859.42	216.01
859.73	215.93
860.04	215.90
860.35	215.86
860.66	215.80
860.98	215.77
861.29	215.81
861.60	215.83
861.91	215.83
862.22	215.81
862.53	215.75
862.84	215.52
863.16	215.54
863.47	215.51
863.78	215.53
864.09	215.54
864.40	215.56
864.71	215.52
865.02	215.55
865.33	215.50
865.64	215.45
865.95	215.46
866.27	215.61
866.58	215.59
866.89	215.61
867.20	215.58
867.51	215.56
867.82	215.52
868.13	215.60
868.44	215.58
868.75	215.57
869.06	215.60
869.37	215.61
869.68	215.53
869.99	215.60
870.30	215.60
870.61	215.64
870.92	215.62
871.23	215.64
871.54	215.68
871.85	215.75
872.16	215.77
872.47	215.77
872.78	215.63
873.09	215.66
873.40	215.63
873.71	215.68
874.02	215.70
874.33	215.68
874.64	215.57
874.95	215.59
875.26	215.56
875.56	215.54
875.87	215.52
876.18	215.54
876.49	215.74
876.80	215.71
877.11	215.65
877.42	215.64
877.73	215.65
878.04	215.57
878.35	215.55
878.66	215.57
878.96	215.60
879.27	215.59
879.58	215.60
879.89	215.56
880.20	215.56
880.51	215.55
880.82	215.56
881.12	215.57
881.43	215.54
881.74	215.52
882.05	215.52
882.36	215.55
882.67	215.56
882.97	215.31
883.28	215.29
883.59	215.29
883.90	215.31
884.21	215.32
884.51	215.31
884.82	215.30
885.13	215.28
885.44	215.23
885.74	215.24
886.05	215.21
886.36	215.23
886.67	215.18
886.98	215.28
887.28	215.29
887.59	215.33
887.90	215.34
888.20	215.33
888.51	215.37
888.82	215.30
889.13	215.32
889.43	215.50
889.74	215.48
890.05	215.49
890.35	215.45
890.66	215.40
890.97	215.38
891.28	215.36
891.58	215.36
891.89	215.38
892.20	215.37
892.50	215.35
892.81	215.33
893.12	215.33
893.42	215.26
893.73	215.25
894.04	215.24
894.34	215.30
894.65	215.32
894.95	215.27
895.26	215.30
895.57	215.38
895.87	215.18
896.18	215.23
896.48	215.22
896.79	215.26
897.10	215.28
897.40	215.34
897.71	215.37
898.01	215.38
898.32	215.37
898.63	215.36
898.93	215.36
899.24	215.38
899.54	215.38
899.85	215.36
900.15	215.37
900.46	215.37
900.76	215.35
901.07	215.36
901.38	215.36
901.68	215.39
901.99	215.28
902.29	215.32
902.60	215.30
902.90	215.31
903.21	215.30
903.51	215.32
903.82	215.35
904.12	215.36
904.43	215.34
904.73	215.37
905.03	215.38
905.34	215.59
905.64	215.59
905.95	215.59
906.25	215.59
906.56	215.56
906.86	215.55
907.17	215.51
907.47	215.51
907.77	215.52
908.08	215.43
908.38	215.47
908.69	215.45
908.99	215.48
909.30	215.50
909.60	215.50
909.90	215.49
910.21	215.45
910.51	215.40
910.81	215.44
911.12	215.45
911.42	215.45
911.73	215.23
912.03	215.22
912.33	215.26
912.64	215.24
912.94	215.23
913.24	215.17
913.55	215.17
913.85	215.14
914.15	215.19
914.46	215.24
914.76	215.24
915.06	215.24
915.37	215.22
915.67	215.20
915.97	215.17
916.27	215.12
916.58	215.11
916.88	215.11
917.18	215.10
917.49	215.22
917.79	215.17
918.09	215.24
918.39	215.28
918.70	215.28
919.00	215.29
919.30	215.40
919.60	215.41
919.91	215.40
920.21	215.44
920.51	215.36
920.81	215.37
921.12	215.38
921.42	215.35
921.72	215.37
922.02	215.39
922.32	215.45
922.63	215.47
922.93	215.55
923.23	215.56
923.53	215.53
923.83	215.41
924.13	215.48
924.44	215.45
924.74	215.49
925.04	215.54
925.34	215.52
925.64	215.47
925.94	215.46
926.24	215.57
926.55	215.53
926.85	215.58
927.15	215.58
927.45	215.58
927.75	215.58
928.05	215.56
928.35	215.50
928.65	215.50
928.95	215.50
929.26	215.43
929.56	215.48
929.86	215.47
930.16	215.45
930.46	215.42
930.76	215.39
931.06	215.27
931.36	215.18
931.66	215.24
931.96	215.23
932.26	215.23
932.56	215.15
932.86	215.18
933.16	215.14
933.46	215.11
933.76	215.08
934.06	215.17
934.36	215.25
934.66	215.28
934.96	215.25
935.26	215.28
935.56	215.28
935.86	215.22
936.16	215.21
936.46	215.19
936.76	215.15
937.06	215.15
937.36	215.18
937.66	215.20
937.96	215.14
938.26	215.07
938.56	215.05
938.86	215.07
939.16	215.09
939.46	215.12
939.76	215.13
940.06	215.13
940.35	215.05
940.65	214.93
940.95	214.95
941.25	214.92
941.55	214.89
941.85	214.88
942.15	214.95
942.45	215.00
942.75	214.99
943.04	215.02
943.34	215.07
943.64	215.04
943.94	215.00
944.24	215.01
944.54	215.07
944.84	215.09
945.13	215.04
945.43	215.00
945.73	215.01
946.03	215.00
946.33	214.94
946.62	214.93
946.92	215.00
947.22	215.02
947.52	215.01
947.82	215.01
948.11	214.99
948.41	214.91
948.71	214.86
949.01	214.87
949.31	214.85
949.60	214.81
949.90	214.83
950.20	214.85
950.50	214.86
950.79	214.84
951.09	214.89
951.39	214.88
951.69	214.86
951.98	214.91
952.28	214.89
952.58	214.92
952.87	214.91
953.17	214.88
953.47	214.86
953.76	214.85
954.06	214.85
954.36	214.82
954.66	214.83
954.95	214.87
955.25	214.94
955.55	214.95
955.84	214.95
956.14	214.99
956.44	215.01
956.73	214.97
957.03	214.97
957.32	214.96
957.62	214.95
957.92	215.00
958.21	214.94
958.51	215.21
958.81	215.22
959.10	215.25
959.40	215.30
959.69	215.30
959.99	215.32
960.29	215.31
960.58	215.31
960.88	215.42
961.17	215.44
961.47	215.39
961.76	215.36
962.06	215.42
962.36	215.39
962.65	215.38
962.95	215.41
963.24	215.44
963.54	215.45
963.83	215.52
964.13	215.52
964.42	215.48
964.72	215.32
965.01	215.34
965.31	215.30
965.60	215.27
965.90	215.41
966.19	215.36
966.49	215.43
966.78	215.42
967.08	215.37
967.37	215.35
967.67	215.33
967.96	215.38
968.26	215.32
968.55	215.34
968.85	215.37
969.14	215.37
969.43	215.32
969.73	215.29
970.02	215.23
970.32	215.22
970.61	215.23
970.91	215.19
971.20	215.18
971.49	215.15
971.79	215.16
972.08	215.00
972.38	215.03
972.67	214.96
972.96	215.01
973.26	214.97
973.55	215.02
973.85	215.00
974.14	214.96
974.43	214.98
974.73	214.95
975.02	214.88
975.31	214.88
975.61	214.88
975.90	214.85
976.19	214.85
976.49	214.86
976.78	214.84
977.07	214.81
977.37	214.81
977.66	214.85
977.95	214.83
978.24	214.88
978.54	214.92
978.83	214.93
979.12	214.90
979.42	214.93
979.71	214.86
980.00	214.86
980.29	214.88
980.59	214.86
980.88	214.91
981.17	214.90
981.46	214.89
981.76	214.90
982.05	214.99
982.34	214.99
982.63	215.00
982.93	215.04
983.22	215.08
983.51	215.08
983.80	215.10
984.09	215.12
984.39	215.08
984.68	215.07
984.97	215.07
985.26	215.09
985.55	215.07
985.85	215.07
986.14	215.09
986.43	215.12
986.72	215.13
987.01	215.08
987.30	215.08
987.59	215.09
987.89	215.10
988.18	215.03
988.47	215.03
988.76	215.01
989.05	214.97
989.34	214.94
989.63	214.98
989.92	214.96
990.22	214.92
990.51	214.95
990.80	214.91
991.09	214.88
991.38	214.88
991.67	214.88
991.96	214.84
992.25	214.86
992.54	214.83
992.83	214.80
993.12	214.80
993.41	214.83
993.70	214.94
993.99	214.94
994.28	214.94
994.58	214.98
994.87	214.94
995.16	214.94
995.45	214.94
995.74	214.89
996.03	214.93
996.32	214.94
996.61	214.91
996.90	214.89
997.19	214.93
997.48	214.93
997.77	214.90
998.06	214.94
998.34	214.93
998.63	214.92
998.92	214.96
999.21	214.95
999.50	214.99
999.79	214.88
1000.08	214.91
1000.37	214.90
1000.66	214.88
1000.95	214.96
1001.24	214.96
1001.53	214.98
1001.82	214.96
1002.11	214.91
1002.40	214.97
1002.68	215.07
1002.97	215.20
1003.26	215.19
1003.55	215.17
1003.84	215.17
1004.13	215.24
1004.42	215.21
1004.71	215.19
1004.99	215.17
1005.28	215.20
1005.57	215.19
1005.86	215.16
1006.15	215.13
1006.44	215.12
1006.72	215.13
1007.01	215.08
1007.30	215.10
1007.59	215.08
1007.88	215.07
1008.17	215.08
1008.45	215.02
1008.74	214.93
1009.03	214.85
1009.32	214.86
1009.60	214.85
1009.89	214.84
1010.18	214.73
1010.47	214.71
1010.76	214.72
1011.04	214.72
1011.33	214.75
1011.62	214.73
1011.91	214.75
1012.19	214.74
1012.48	214.76
1012.77	214.77
1013.05	214.86
1013.34	214.85
1013.63	214.82
1013.92	214.85
1014.20	214.85
1014.49	214.84
1014.78	214.87
1015.06	214.82
1015.35	214.79
1015.64	214.82
1015.92	214.85
1016.21	214.85
1016.50	214.85
1016.78	214.91
1017.07	214.90
1017.36	214.87
1017.64	214.83
1017.93	214.85
1018.22	214.83
1018.50	214.80
1018.79	214.79
1019.08	214.65
1019.36	214.65
1019.65	214.64
1019.93	214.69
1020.22	214.67
1020.51	214.77
1020.79	214.71
1021.08	214.36
1021.36	214.20
1021.65	214.83
1021.94	213.98
1022.22	214.72
1022.51	214.27
1022.79	215.78
1023.08	214.43
1023.36	216.89
1023.65	213.96
>>>>>End Processed Spectral Data<<<<<
