SpectraSuite Data File
++++++++++++++++++++++++++++++++++++
Date: Tue Jan 29 16:16:24 EST 2013
User: group
Dark Spectrum Present: No
Reference Spectrum Present: No
Number of Sampled Component Spectra: 1
Spectrometers: USB2E7196
Integration Time (usec): 65000 (USB2E7196)
Spectra Averaged: 100 (USB2E7196)
Boxcar Smoothing: 10 (USB2E7196)
Correct for Electrical Dark: No (USB2E7196)
Strobe/Lamp Enabled: No (USB2E7196)
Correct for Detector Non-linearity: No (USB2E7196)
Correct for Stray Light: No (USB2E7196)
Number of Pixels in Processed Spectrum: 2048
>>>>>Begin Processed Spectral Data<<<<<
339.09	0.00
339.48	202.11
339.86	203.54
340.24	205.27
340.63	206.56
341.01	211.40
341.39	209.74
341.78	211.10
342.16	211.79
342.54	212.44
342.93	201.53
343.31	211.71
343.69	212.27
344.07	212.73
344.46	213.15
344.84	213.54
345.22	213.69
345.60	213.95
345.99	214.15
346.37	214.29
346.75	214.40
347.13	214.47
347.52	214.55
347.90	214.68
348.28	214.73
348.66	214.80
349.05	214.76
349.43	214.80
349.81	214.89
350.19	214.94
350.57	214.97
350.96	215.08
351.34	215.17
351.72	215.28
352.10	215.43
352.48	215.50
352.87	215.57
353.25	215.64
353.63	215.68
354.01	215.72
354.39	215.83
354.77	215.92
355.15	216.06
355.54	216.13
355.92	216.15
356.30	216.21
356.68	216.41
357.06	216.50
357.44	216.56
357.82	216.60
358.20	216.72
358.58	216.76
358.97	216.86
359.35	216.97
359.73	217.06
360.11	217.09
360.49	217.17
360.87	217.22
361.25	217.31
361.63	217.44
362.01	217.54
362.39	217.56
362.77	217.62
363.15	217.64
363.53	217.65
363.91	217.70
364.29	217.73
364.67	217.58
365.05	217.62
365.43	217.68
365.81	217.73
366.19	217.81
366.57	217.95
366.95	217.90
367.33	217.85
367.71	217.84
368.09	217.90
368.47	217.92
368.85	217.92
369.23	217.95
369.61	217.86
369.99	217.86
370.37	217.85
370.75	217.92
371.13	217.85
371.51	217.81
371.89	217.81
372.27	217.81
372.65	217.78
373.03	217.76
373.41	217.70
373.78	217.65
374.16	217.55
374.54	217.45
374.92	217.40
375.30	217.39
375.68	217.31
376.06	217.26
376.44	217.17
376.82	217.14
377.19	217.09
377.57	217.03
377.95	216.93
378.33	216.88
378.71	216.72
379.09	216.73
379.47	216.70
379.84	216.61
380.22	216.55
380.60	216.50
380.98	216.45
381.36	216.41
381.73	216.36
382.11	216.33
382.49	216.29
382.87	216.23
383.25	216.15
383.62	216.36
384.00	216.24
384.38	216.24
384.76	216.23
385.13	216.27
385.51	216.24
385.89	216.17
386.27	216.15
386.64	216.14
387.02	216.08
387.40	216.06
387.78	216.02
388.15	216.02
388.53	216.00
388.91	215.95
389.29	215.89
389.66	215.87
390.04	215.85
390.42	215.88
390.79	215.88
391.17	215.89
391.55	215.66
391.92	215.71
392.30	215.69
392.68	215.66
393.05	215.59
393.43	215.57
393.81	215.57
394.18	215.55
394.56	215.58
394.94	215.62
395.31	215.58
395.69	215.67
396.06	215.68
396.44	215.71
396.82	215.70
397.19	215.85
397.57	215.88
397.95	215.90
398.32	215.86
398.70	215.90
399.07	215.96
399.45	215.96
399.82	216.01
400.20	216.03
400.58	216.13
400.95	216.15
401.33	216.29
401.70	216.51
402.08	216.59
402.45	216.65
402.83	216.78
403.20	216.94
403.58	217.00
403.95	217.11
404.33	217.24
404.71	217.42
405.08	217.66
405.46	217.81
405.83	217.99
406.21	218.19
406.58	218.44
406.96	218.68
407.33	218.94
407.70	219.22
408.08	219.71
408.45	220.01
408.83	220.37
409.20	220.70
409.58	220.97
409.95	221.41
410.33	221.89
410.70	222.31
411.08	222.82
411.45	223.36
411.82	223.92
412.20	224.59
412.57	225.38
412.95	225.91
413.32	226.70
413.69	227.49
414.07	228.36
414.44	229.28
414.82	230.27
415.19	231.44
415.56	232.56
415.94	233.65
416.31	235.02
416.68	236.37
417.06	237.91
417.43	239.40
417.81	241.07
418.18	242.79
418.55	244.65
418.93	246.60
419.30	248.64
419.67	250.80
420.04	252.99
420.42	255.35
420.79	258.10
421.16	260.81
421.54	263.65
421.91	266.53
422.28	269.57
422.66	272.74
423.03	275.90
423.40	279.16
423.77	282.67
424.15	286.20
424.52	289.93
424.89	294.00
425.26	297.94
425.64	301.69
426.01	305.82
426.38	310.12
426.75	314.53
427.13	319.12
427.50	323.91
427.87	329.00
428.24	333.97
428.61	338.83
428.99	344.18
429.36	349.98
429.73	355.68
430.10	361.35
430.47	367.19
430.85	373.25
431.22	379.71
431.59	386.62
431.96	393.25
432.33	400.51
432.70	407.50
433.08	415.70
433.45	423.56
433.82	431.28
434.19	439.88
434.56	448.23
434.93	456.27
435.30	464.31
435.68	473.04
436.05	481.75
436.42	490.30
436.79	498.12
437.16	506.60
437.53	515.59
437.90	524.44
438.27	533.09
438.64	541.96
439.01	550.26
439.38	557.47
439.75	564.53
440.13	572.61
440.50	580.36
440.87	586.62
441.24	593.05
441.61	600.18
441.98	605.35
442.35	611.53
442.72	617.55
443.09	623.32
443.46	626.93
443.83	629.33
444.20	631.39
444.57	634.41
444.94	635.78
445.31	637.16
445.68	638.39
446.05	639.00
446.42	638.29
446.79	637.35
447.16	636.34
447.53	635.53
447.90	632.32
448.27	629.00
448.64	624.52
449.01	621.24
449.37	615.53
449.74	610.07
450.11	603.39
450.48	596.33
450.85	589.17
451.22	582.90
451.59	577.01
451.96	571.50
452.33	563.95
452.70	557.05
453.07	548.83
453.43	540.58
453.80	532.57
454.17	524.89
454.54	517.57
454.91	509.69
455.28	502.03
455.65	494.88
456.02	487.71
456.38	481.60
456.75	474.05
457.12	467.73
457.49	461.49
457.86	455.54
458.23	450.38
458.59	444.67
458.96	438.94
459.33	433.84
459.70	428.62
460.07	424.54
460.43	419.85
460.80	415.45
461.17	411.57
461.54	407.52
461.91	403.61
462.27	399.63
462.64	396.36
463.01	392.68
463.38	389.17
463.74	385.61
464.11	382.41
464.48	379.67
464.85	376.66
465.21	374.32
465.58	371.80
465.95	368.76
466.32	366.23
466.68	363.75
467.05	361.24
467.42	358.78
467.78	356.15
468.15	353.69
468.52	351.87
468.88	349.49
469.25	347.41
469.62	345.69
469.98	343.83
470.35	342.09
470.72	340.50
471.08	338.80
471.45	337.36
471.82	335.91
472.18	334.30
472.55	333.19
472.92	331.83
473.28	330.67
473.65	329.56
474.02	328.52
474.38	327.67
474.75	326.97
475.11	326.16
475.48	325.64
475.85	325.25
476.21	324.83
476.58	324.53
476.94	324.32
477.31	323.99
477.67	323.81
478.04	323.62
478.41	323.62
478.77	323.74
479.14	323.73
479.50	323.89
479.87	324.17
480.23	324.47
480.60	324.73
480.96	325.05
481.33	325.71
481.69	326.29
482.06	326.80
482.42	327.32
482.79	327.96
483.15	328.76
483.52	329.71
483.88	330.57
484.25	331.53
484.61	332.53
484.98	333.60
485.34	334.91
485.71	336.31
486.07	337.76
486.44	339.08
486.80	340.71
487.17	342.39
487.53	344.26
487.90	346.12
488.26	348.21
488.62	350.32
488.99	352.35
489.35	354.53
489.72	356.92
490.08	359.41
490.44	361.92
490.81	364.62
491.17	367.26
491.54	370.26
491.90	373.24
492.26	376.45
492.63	379.88
492.99	383.33
493.36	387.00
493.72	390.85
494.08	394.83
494.45	398.99
494.81	403.36
495.17	407.73
495.54	412.49
495.90	417.22
496.26	422.12
496.63	427.27
496.99	432.58
497.35	438.12
497.72	443.91
498.08	449.90
498.44	456.01
498.80	462.42
499.17	468.82
499.53	475.45
499.89	482.34
500.26	489.25
500.62	496.23
500.98	503.59
501.34	511.01
501.71	518.76
502.07	526.49
502.43	534.43
502.79	542.54
503.16	550.76
503.52	559.35
503.88	568.05
504.24	576.95
504.60	585.96
504.97	595.04
505.33	604.24
505.69	614.03
506.05	623.75
506.41	633.50
506.78	643.58
507.14	653.83
507.50	664.11
507.86	674.66
508.22	685.43
508.59	695.97
508.95	706.93
509.31	718.06
509.67	729.44
510.03	740.71
510.39	752.30
510.75	764.08
511.12	775.85
511.48	787.75
511.84	799.92
512.20	812.14
512.56	824.73
512.92	837.39
513.28	849.89
513.64	862.55
514.00	875.27
514.37	888.18
514.73	901.18
515.09	914.04
515.45	926.82
515.81	939.63
516.17	952.86
516.53	965.91
516.89	978.91
517.25	991.85
517.61	1005.23
517.97	1018.41
518.33	1031.32
518.69	1044.62
519.05	1058.21
519.41	1071.56
519.77	1085.27
520.13	1098.38
520.49	1111.25
520.85	1124.37
521.21	1137.52
521.57	1151.01
521.93	1163.82
522.29	1177.27
522.65	1190.63
523.01	1203.97
523.37	1216.95
523.73	1229.92
524.09	1242.84
524.45	1255.91
524.81	1269.19
525.17	1282.25
525.53	1295.23
525.89	1308.33
526.25	1321.16
526.61	1333.68
526.97	1346.47
527.33	1358.95
527.68	1372.05
528.04	1385.31
528.40	1398.03
528.76	1410.98
529.12	1423.49
529.48	1436.35
529.84	1448.34
530.20	1460.79
530.56	1473.10
530.91	1486.08
531.27	1498.64
531.63	1511.09
531.99	1523.55
532.35	1535.43
532.71	1547.42
533.07	1559.90
533.42	1571.70
533.78	1583.52
534.14	1595.21
534.50	1606.21
534.86	1617.61
535.21	1628.19
535.57	1639.28
535.93	1650.27
536.29	1661.19
536.65	1672.40
537.00	1683.24
537.36	1694.23
537.72	1704.87
538.08	1715.92
538.44	1726.45
538.79	1737.22
539.15	1747.66
539.51	1758.10
539.87	1769.14
540.22	1779.79
540.58	1790.41
540.94	1801.09
541.29	1811.09
541.65	1820.48
542.01	1830.65
542.37	1840.35
542.72	1850.19
543.08	1859.69
543.44	1869.85
543.79	1878.74
544.15	1887.86
544.51	1897.38
544.87	1906.95
545.22	1915.84
545.58	1924.36
545.94	1933.05
546.29	1941.35
546.65	1949.50
547.01	1957.52
547.36	1964.83
547.72	1972.31
548.07	1979.72
548.43	1987.19
548.79	1994.79
549.14	2002.75
549.50	2010.93
549.86	2018.61
550.21	2025.76
550.57	2033.22
550.92	2039.66
551.28	2046.87
551.64	2053.78
551.99	2061.09
552.35	2068.12
552.70	2074.80
553.06	2081.31
553.41	2087.36
553.77	2093.71
554.13	2099.89
554.48	2106.65
554.84	2113.62
555.19	2119.79
555.55	2126.10
555.90	2132.22
556.26	2138.77
556.61	2144.66
556.97	2149.43
557.32	2155.02
557.68	2161.22
558.03	2166.80
558.39	2172.12
558.74	2178.06
559.10	2183.61
559.45	2188.98
559.81	2194.22
560.16	2199.85
560.52	2205.68
560.87	2211.87
561.23	2217.70
561.58	2224.41
561.94	2229.53
562.29	2234.24
562.64	2240.41
563.00	2245.94
563.35	2251.38
563.71	2257.21
564.06	2262.84
564.42	2268.69
564.77	2273.78
565.12	2279.22
565.48	2284.47
565.83	2290.07
566.19	2295.63
566.54	2300.98
566.89	2305.59
567.25	2310.26
567.60	2315.86
567.96	2321.02
568.31	2325.83
568.66	2330.16
569.02	2333.90
569.37	2337.74
569.72	2342.35
570.08	2345.98
570.43	2349.14
570.78	2352.33
571.14	2355.04
571.49	2358.28
571.84	2361.98
572.20	2364.96
572.55	2367.98
572.90	2370.29
573.26	2373.18
573.61	2375.49
573.96	2377.70
574.31	2379.77
574.67	2381.90
575.02	2382.81
575.37	2384.38
575.72	2385.12
576.08	2386.63
576.43	2387.20
576.78	2387.83
577.13	2389.50
577.49	2390.71
577.84	2391.97
578.19	2393.51
578.54	2394.19
578.90	2395.20
579.25	2395.10
579.60	2395.26
579.95	2394.74
580.30	2395.07
580.66	2394.52
581.01	2393.12
581.36	2391.12
581.71	2389.97
582.06	2388.90
582.42	2388.32
582.77	2386.43
583.12	2385.06
583.47	2384.00
583.82	2383.39
584.17	2382.49
584.53	2380.44
584.88	2378.51
585.23	2376.69
585.58	2374.59
585.93	2372.51
586.28	2370.44
586.63	2368.26
586.98	2366.17
587.34	2364.24
587.69	2361.97
588.04	2360.06
588.39	2358.88
588.74	2356.50
589.09	2354.07
589.44	2351.27
589.79	2348.82
590.14	2347.02
590.49	2344.26
590.84	2340.52
591.19	2337.62
591.54	2334.17
591.89	2330.37
592.25	2327.21
592.60	2323.32
592.95	2319.30
593.30	2315.43
593.65	2311.08
594.00	2306.91
594.35	2303.99
594.70	2299.56
595.05	2295.00
595.40	2289.70
595.75	2284.18
596.10	2280.67
596.45	2275.96
596.80	2271.42
597.15	2266.39
597.50	2260.52
597.85	2255.83
598.19	2250.75
598.54	2245.09
598.89	2240.11
599.24	2235.60
599.59	2229.59
599.94	2223.86
600.29	2218.17
600.64	2212.47
600.99	2205.99
601.34	2200.51
601.69	2193.64
602.04	2187.37
602.39	2181.02
602.74	2175.05
603.08	2169.59
603.43	2163.05
603.78	2156.24
604.13	2149.30
604.48	2142.17
604.83	2136.22
605.18	2130.08
605.53	2123.31
605.87	2116.38
606.22	2109.77
606.57	2101.92
606.92	2094.23
607.27	2087.26
607.62	2080.70
607.96	2073.71
608.31	2067.24
608.66	2059.56
609.01	2052.11
609.36	2045.07
609.70	2037.50
610.05	2029.93
610.40	2021.65
610.75	2013.71
611.10	2006.08
611.44	1997.32
611.79	1988.69
612.14	1978.62
612.49	1968.08
612.83	1958.87
613.18	1949.75
613.53	1940.47
613.88	1931.05
614.22	1922.46
614.57	1912.70
614.92	1902.09
615.27	1892.11
615.61	1882.21
615.96	1872.63
616.31	1863.21
616.65	1853.90
617.00	1844.04
617.35	1834.41
617.70	1824.75
618.04	1814.57
618.39	1804.38
618.74	1794.76
619.08	1785.17
619.43	1776.63
619.78	1768.37
620.12	1759.67
620.47	1749.96
620.82	1739.77
621.16	1729.99
621.51	1720.10
621.85	1710.28
622.20	1699.90
622.55	1689.23
622.89	1679.29
623.24	1669.68
623.59	1659.78
623.93	1649.64
624.28	1639.96
624.62	1629.87
624.97	1619.60
625.32	1610.14
625.66	1601.40
626.01	1592.59
626.35	1583.18
626.70	1573.07
627.04	1563.06
627.39	1553.00
627.73	1543.84
628.08	1534.87
628.43	1525.38
628.77	1516.18
629.12	1507.37
629.46	1499.52
629.81	1491.21
630.15	1481.64
630.50	1471.76
630.84	1461.38
631.19	1451.53
631.53	1442.22
631.88	1432.03
632.22	1422.09
632.57	1412.66
632.91	1402.55
633.26	1392.78
633.60	1383.27
633.95	1374.09
634.29	1364.63
634.64	1355.30
634.98	1345.42
635.32	1336.01
635.67	1327.48
636.01	1318.22
636.36	1308.51
636.70	1299.12
637.05	1289.75
637.39	1280.91
637.73	1272.41
638.08	1264.94
638.42	1256.65
638.77	1247.83
639.11	1239.71
639.45	1231.85
639.80	1223.21
640.14	1214.52
640.49	1205.72
640.83	1197.01
641.17	1188.95
641.52	1180.74
641.86	1172.14
642.20	1164.26
642.55	1155.87
642.89	1147.07
643.23	1138.51
643.58	1130.51
643.92	1121.47
644.26	1112.87
644.61	1104.52
644.95	1095.73
645.29	1086.41
645.64	1077.40
645.98	1069.11
646.32	1061.24
646.66	1052.78
647.01	1044.47
647.35	1036.41
647.69	1028.04
648.04	1019.72
648.38	1010.83
648.72	1002.19
649.06	993.88
649.41	985.79
649.75	977.86
650.09	970.10
650.43	962.09
650.78	953.87
651.12	946.36
651.46	939.08
651.80	931.82
652.14	924.66
652.49	917.27
652.83	910.04
653.17	902.36
653.51	894.76
653.85	887.64
654.20	880.35
654.54	872.87
654.88	865.83
655.22	858.73
655.56	851.87
655.90	845.14
656.25	838.53
656.59	831.69
656.93	824.81
657.27	817.71
657.61	810.89
657.95	804.82
658.29	798.96
658.64	792.85
658.98	786.52
659.32	780.07
659.66	773.93
660.00	767.63
660.34	761.73
660.68	755.75
661.02	749.51
661.36	743.75
661.70	738.14
662.05	732.46
662.39	727.06
662.73	721.76
663.07	716.43
663.41	711.04
663.75	705.44
664.09	699.79
664.43	694.46
664.77	689.18
665.11	683.48
665.45	677.63
665.79	671.90
666.13	666.26
666.47	660.80
666.81	655.56
667.15	650.30
667.49	645.18
667.83	639.95
668.17	634.76
668.51	629.75
668.85	624.95
669.19	620.19
669.53	615.25
669.87	610.17
670.21	605.52
670.55	600.79
670.89	596.36
671.23	592.17
671.57	587.90
671.91	583.67
672.25	579.58
672.58	575.53
672.92	571.55
673.26	567.73
673.60	563.92
673.94	560.02
674.28	556.47
674.62	552.75
674.96	549.07
675.30	545.66
675.64	542.03
675.97	538.41
676.31	534.86
676.65	531.35
676.99	527.94
677.33	524.12
677.67	520.51
678.01	516.75
678.34	513.12
678.68	509.66
679.02	506.04
679.36	502.39
679.70	498.82
680.04	495.32
680.37	491.91
680.71	488.63
681.05	485.56
681.39	482.31
681.73	479.22
682.06	476.26
682.40	473.25
682.74	470.17
683.08	467.06
683.42	463.95
683.75	461.04
684.09	458.09
684.43	455.34
684.77	452.48
685.10	449.74
685.44	446.86
685.78	443.97
686.12	441.37
686.45	438.70
686.79	436.10
687.13	433.60
687.46	431.02
687.80	428.46
688.14	425.62
688.48	423.07
688.81	420.43
689.15	417.94
689.49	415.32
689.82	412.80
690.16	410.26
690.50	407.83
690.83	405.34
691.17	402.90
691.51	400.50
691.84	398.28
692.18	396.11
692.52	393.98
692.85	391.92
693.19	389.81
693.52	387.67
693.86	385.52
694.20	383.40
694.53	381.30
694.87	379.13
695.21	377.09
695.54	375.02
695.88	372.92
696.21	370.74
696.55	368.72
696.88	366.74
697.22	364.76
697.56	362.93
697.89	361.09
698.23	359.37
698.56	357.63
698.90	355.91
699.23	354.02
699.57	352.19
699.90	350.37
700.24	348.61
700.58	346.89
700.91	345.26
701.25	343.75
701.58	342.17
701.92	340.63
702.25	339.08
702.59	337.48
702.92	336.02
703.26	334.54
703.59	333.14
703.93	331.90
704.26	330.58
704.60	329.11
704.93	327.67
705.26	326.19
705.60	324.78
705.93	323.33
706.27	322.08
706.60	320.88
706.94	319.68
707.27	318.31
707.61	317.04
707.94	315.71
708.27	314.23
708.61	312.85
708.94	311.48
709.28	310.20
709.61	308.99
709.94	307.80
710.28	306.63
710.61	305.43
710.95	304.06
711.28	303.00
711.61	301.87
711.95	300.76
712.28	299.60
712.61	298.46
712.95	297.41
713.28	296.34
713.61	295.21
713.95	294.09
714.28	293.15
714.61	292.13
714.95	291.16
715.28	290.16
715.61	289.17
715.95	288.26
716.28	287.35
716.61	286.45
716.95	285.47
717.28	284.53
717.61	283.62
717.94	282.73
718.28	281.70
718.61	280.82
718.94	279.91
719.27	279.09
719.61	278.28
719.94	277.45
720.27	276.54
720.60	275.73
720.94	274.94
721.27	274.15
721.60	273.50
721.93	272.80
722.27	272.20
722.60	271.55
722.93	270.87
723.26	270.24
723.59	269.51
723.93	268.91
724.26	268.27
724.59	267.65
724.92	267.07
725.25	266.58
725.59	266.05
725.92	265.58
726.25	265.04
726.58	264.47
726.91	263.92
727.24	263.43
727.57	262.89
727.91	262.29
728.24	261.77
728.57	261.18
728.90	260.65
729.23	260.03
729.56	259.61
729.89	259.07
730.22	258.51
730.55	258.04
730.89	257.51
731.22	257.00
731.55	256.51
731.88	256.04
732.21	255.47
732.54	254.94
732.87	254.43
733.20	253.96
733.53	253.52
733.86	253.07
734.19	252.59
734.52	252.19
734.85	251.92
735.18	251.49
735.51	251.14
735.84	250.70
736.17	250.36
736.50	249.83
736.83	249.69
737.16	249.32
737.49	248.89
737.82	248.51
738.15	248.17
738.48	247.76
738.81	247.35
739.14	246.96
739.47	246.59
739.80	246.21
740.13	245.88
740.46	245.45
740.79	245.08
741.12	244.70
741.45	244.36
741.78	243.91
742.11	243.63
742.44	243.26
742.77	242.98
743.10	242.64
743.43	242.32
743.75	241.76
744.08	241.73
744.41	241.41
744.74	241.08
745.07	240.72
745.40	240.47
745.73	240.23
746.06	239.91
746.39	239.62
746.71	239.28
747.04	238.92
747.37	238.64
747.70	238.35
748.03	238.06
748.36	237.81
748.68	237.50
749.01	237.13
749.34	236.80
749.67	236.53
750.00	236.29
750.33	236.16
750.65	235.92
750.98	235.39
751.31	235.18
751.64	234.94
751.97	234.83
752.29	234.57
752.62	234.24
752.95	234.03
753.28	233.74
753.60	233.54
753.93	233.39
754.26	233.21
754.59	232.94
754.91	232.71
755.24	232.42
755.57	232.20
755.90	231.99
756.22	231.81
756.55	231.57
756.88	231.33
757.20	231.00
757.53	230.72
757.86	230.51
758.19	230.32
758.51	230.11
758.84	229.82
759.17	229.61
759.49	229.45
759.82	229.37
760.15	229.25
760.47	229.04
760.80	228.80
761.13	228.66
761.45	228.48
761.78	228.30
762.11	228.16
762.43	227.97
762.76	227.81
763.08	227.66
763.41	227.50
763.74	227.34
764.06	227.16
764.39	227.07
764.71	226.94
765.04	226.79
765.37	226.64
765.69	226.48
766.02	226.31
766.34	226.15
766.67	225.93
767.00	225.84
767.32	225.87
767.65	225.83
767.97	225.66
768.30	225.57
768.62	225.46
768.95	225.29
769.27	225.18
769.60	225.10
769.92	224.92
770.25	224.76
770.57	224.61
770.90	224.53
771.22	224.36
771.55	224.23
771.87	224.11
772.20	224.02
772.52	224.10
772.85	224.24
773.17	224.18
773.50	224.05
773.82	223.90
774.15	223.69
774.47	223.46
774.80	223.35
775.12	223.20
775.45	223.11
775.77	223.04
776.09	222.94
776.42	222.86
776.74	222.86
777.07	222.80
777.39	222.73
777.72	222.63
778.04	222.60
778.36	222.51
778.69	222.43
779.01	222.32
779.33	222.07
779.66	221.75
779.98	221.64
780.31	221.56
780.63	221.55
780.95	221.49
781.28	221.44
781.60	221.37
781.92	221.34
782.25	221.28
782.57	221.22
782.89	221.16
783.22	221.06
783.54	220.96
783.86	220.90
784.19	220.82
784.51	220.79
784.83	220.69
785.16	220.66
785.48	220.58
785.80	220.51
786.12	220.47
786.45	220.45
786.77	220.45
787.09	220.37
787.42	220.25
787.74	220.19
788.06	220.15
788.38	220.08
788.71	220.00
789.03	219.93
789.35	219.91
789.67	219.84
789.99	219.80
790.32	219.71
790.64	219.66
790.96	219.79
791.28	219.68
791.61	219.62
791.93	219.54
792.25	219.53
792.57	219.66
792.89	219.58
793.21	219.50
793.54	219.37
793.86	219.32
794.18	219.28
794.50	219.20
794.82	219.17
795.14	219.14
795.47	219.16
795.79	219.12
796.11	218.99
796.43	218.95
796.75	218.91
797.07	218.86
797.39	218.81
797.71	218.60
798.04	218.58
798.36	218.53
798.68	218.48
799.00	218.45
799.32	218.28
799.64	218.28
799.96	218.30
800.28	218.34
800.60	218.28
800.92	218.27
801.24	218.25
801.56	218.23
801.89	218.19
802.21	218.13
802.53	218.08
802.85	218.11
803.17	218.19
803.49	218.12
803.81	218.09
804.13	218.07
804.45	218.02
804.77	218.01
805.09	217.99
805.41	217.94
805.73	217.89
806.05	217.80
806.37	217.76
806.69	217.69
807.01	217.61
807.33	217.63
807.65	217.53
807.97	217.59
808.28	217.53
808.60	217.48
808.92	217.45
809.24	217.56
809.56	217.54
809.88	217.40
810.20	217.42
810.52	217.43
810.84	217.36
811.16	217.34
811.48	217.30
811.80	217.34
812.12	217.34
812.43	217.33
812.75	217.32
813.07	217.27
813.39	217.29
813.71	217.26
814.03	217.20
814.35	217.19
814.67	217.06
814.98	217.03
815.30	217.02
815.62	216.95
815.94	216.79
816.26	216.79
816.58	216.74
816.89	216.69
817.21	216.64
817.53	216.66
817.85	216.63
818.17	216.61
818.48	216.47
818.80	216.46
819.12	216.42
819.44	216.39
819.76	216.33
820.07	216.28
820.39	216.26
820.71	216.26
821.03	216.24
821.34	216.23
821.66	216.23
821.98	216.21
822.30	216.23
822.61	216.34
822.93	216.30
823.25	216.26
823.57	216.26
823.88	216.28
824.20	216.25
824.52	216.28
824.83	216.24
825.15	216.25
825.47	216.26
825.79	216.27
826.10	216.25
826.42	216.27
826.74	216.31
827.05	216.29
827.37	216.28
827.69	216.29
828.00	216.29
828.32	216.29
828.64	216.28
828.95	216.36
829.27	216.28
829.58	216.26
829.90	216.31
830.22	216.30
830.53	216.25
830.85	216.21
831.17	216.15
831.48	216.17
831.80	216.20
832.11	216.15
832.43	216.11
832.75	216.11
833.06	216.17
833.38	216.08
833.69	216.09
834.01	216.08
834.32	216.06
834.64	216.04
834.96	216.02
835.27	216.02
835.59	215.93
835.90	215.85
836.22	215.85
836.53	215.83
836.85	215.80
837.16	215.99
837.48	215.98
837.79	216.03
838.11	216.02
838.42	215.99
838.74	216.01
839.05	215.96
839.37	215.95
839.68	215.86
840.00	215.87
840.31	215.86
840.63	215.84
840.94	215.81
841.26	215.78
841.57	215.78
841.88	215.76
842.20	215.73
842.51	215.74
842.83	215.71
843.14	215.85
843.46	215.83
843.77	215.71
844.08	215.69
844.40	215.66
844.71	215.64
845.03	215.59
845.34	215.59
845.65	215.62
845.97	215.61
846.28	215.60
846.60	215.57
846.91	215.54
847.22	215.51
847.54	215.56
847.85	215.55
848.16	215.52
848.48	215.51
848.79	215.61
849.10	215.60
849.42	215.65
849.73	215.46
850.04	215.46
850.36	215.40
850.67	215.44
850.98	215.39
851.30	215.39
851.61	215.43
851.92	215.41
852.23	215.49
852.55	215.50
852.86	215.48
853.17	215.51
853.49	215.57
853.80	215.65
854.11	215.64
854.42	215.68
854.74	215.64
855.05	215.66
855.36	215.51
855.67	215.52
855.99	215.49
856.30	215.76
856.61	215.74
856.92	215.74
857.23	215.75
857.55	215.78
857.86	215.76
858.17	215.78
858.48	215.75
858.79	215.67
859.11	215.67
859.42	215.67
859.73	215.64
860.04	215.65
860.35	215.58
860.66	215.50
860.98	215.51
861.29	215.55
861.60	215.51
861.91	215.55
862.22	215.50
862.53	215.46
862.84	215.16
863.16	215.20
863.47	215.16
863.78	215.12
864.09	215.13
864.40	215.16
864.71	215.15
865.02	215.16
865.33	215.13
865.64	215.10
865.95	215.12
866.27	215.27
866.58	215.24
866.89	215.26
867.20	215.24
867.51	215.20
867.82	215.20
868.13	215.28
868.44	215.23
868.75	215.32
869.06	215.34
869.37	215.39
869.68	215.33
869.99	215.38
870.30	215.40
870.61	215.40
870.92	215.33
871.23	215.30
871.54	215.33
871.85	215.38
872.16	215.40
872.47	215.35
872.78	215.22
873.09	215.22
873.40	215.19
873.71	215.24
874.02	215.24
874.33	215.20
874.64	215.13
874.95	215.21
875.26	215.16
875.56	215.13
875.87	215.11
876.18	215.10
876.49	215.29
876.80	215.29
877.11	215.25
877.42	215.27
877.73	215.26
878.04	215.23
878.35	215.22
878.66	215.23
878.96	215.24
879.27	215.24
879.58	215.21
879.89	215.20
880.20	215.25
880.51	215.22
880.82	215.25
881.12	215.29
881.43	215.21
881.74	215.17
882.05	215.18
882.36	215.19
882.67	215.23
882.97	215.00
883.28	214.96
883.59	214.94
883.90	214.98
884.21	215.03
884.51	215.04
884.82	214.99
885.13	214.96
885.44	214.98
885.74	214.97
886.05	214.97
886.36	214.98
886.67	214.92
886.98	215.01
887.28	215.02
887.59	214.99
887.90	214.99
888.20	214.98
888.51	215.03
888.82	215.02
889.13	215.03
889.43	215.18
889.74	215.19
890.05	215.22
890.35	215.17
890.66	215.12
890.97	215.11
891.28	215.13
891.58	215.16
891.89	215.15
892.20	215.09
892.50	215.08
892.81	215.09
893.12	215.11
893.42	215.03
893.73	215.02
894.04	215.02
894.34	215.05
894.65	215.06
894.95	215.02
895.26	215.00
895.57	215.07
895.87	214.89
896.18	214.91
896.48	214.88
896.79	214.89
897.10	214.91
897.40	214.91
897.71	214.93
898.01	214.92
898.32	214.94
898.63	214.95
898.93	214.95
899.24	214.97
899.54	214.91
899.85	214.92
900.15	214.91
900.46	214.93
900.76	214.94
901.07	214.93
901.38	214.93
901.68	214.96
901.99	214.86
902.29	214.88
902.60	214.86
902.90	214.87
903.21	214.86
903.51	214.88
903.82	214.92
904.12	214.91
904.43	214.89
904.73	214.86
905.03	214.90
905.34	215.09
905.64	215.07
905.95	215.07
906.25	215.06
906.56	215.05
906.86	215.03
907.17	215.02
907.47	215.04
907.77	215.01
908.08	214.97
908.38	214.98
908.69	215.00
908.99	215.05
909.30	215.09
909.60	215.08
909.90	215.09
910.21	214.99
910.51	214.97
910.81	214.95
911.12	215.01
911.42	215.02
911.73	214.84
912.03	214.84
912.33	214.90
912.64	214.91
912.94	214.87
913.24	214.85
913.55	214.83
913.85	214.82
914.15	214.87
914.46	214.90
914.76	214.90
915.06	214.90
915.37	214.87
915.67	214.85
915.97	214.87
916.27	214.79
916.58	214.81
916.88	214.80
917.18	214.85
917.49	214.94
917.79	214.91
918.09	214.90
918.39	214.97
918.70	214.93
919.00	214.91
919.30	215.02
919.60	215.03
919.91	215.00
920.21	215.04
920.51	215.02
920.81	215.03
921.12	215.04
921.42	215.04
921.72	215.05
922.02	215.03
922.32	215.06
922.63	215.11
922.93	215.25
923.23	215.26
923.53	215.23
923.83	215.11
924.13	215.11
924.44	215.14
924.74	215.16
925.04	215.19
925.34	215.22
925.64	215.13
925.94	215.14
926.24	215.26
926.55	215.25
926.85	215.28
927.15	215.27
927.45	215.27
927.75	215.26
928.05	215.24
928.35	215.25
928.65	215.24
928.95	215.26
929.26	215.14
929.56	215.18
929.86	215.20
930.16	215.16
930.46	215.16
930.76	215.16
931.06	215.06
931.36	215.05
931.66	215.04
931.96	215.07
932.26	215.07
932.56	215.00
932.86	214.97
933.16	214.95
933.46	214.92
933.76	214.88
934.06	214.89
934.36	214.96
934.66	214.94
934.96	214.93
935.26	214.91
935.56	214.98
935.86	214.91
936.16	214.86
936.46	214.88
936.76	214.86
937.06	214.81
937.36	214.82
937.66	214.81
937.96	214.78
938.26	214.78
938.56	214.77
938.86	214.74
939.16	214.78
939.46	214.80
939.76	214.82
940.06	214.84
940.35	214.80
940.65	214.71
940.95	214.73
941.25	214.68
941.55	214.65
941.85	214.58
942.15	214.65
942.45	214.70
942.75	214.68
943.04	214.69
943.34	214.72
943.64	214.70
943.94	214.69
944.24	214.73
944.54	214.72
944.84	214.70
945.13	214.68
945.43	214.66
945.73	214.63
946.03	214.62
946.33	214.59
946.62	214.56
946.92	214.55
947.22	214.56
947.52	214.58
947.82	214.61
948.11	214.61
948.41	214.53
948.71	214.48
949.01	214.49
949.31	214.49
949.60	214.45
949.90	214.47
950.20	214.50
950.50	214.47
950.79	214.42
951.09	214.47
951.39	214.49
951.69	214.49
951.98	214.53
952.28	214.56
952.58	214.56
952.87	214.58
953.17	214.61
953.47	214.61
953.76	214.62
954.06	214.57
954.36	214.54
954.66	214.56
954.95	214.60
955.25	214.60
955.55	214.62
955.84	214.62
956.14	214.65
956.44	214.63
956.73	214.58
957.03	214.59
957.32	214.57
957.62	214.58
957.92	214.61
958.21	214.56
958.51	214.80
958.81	214.80
959.10	214.84
959.40	214.89
959.69	214.89
959.99	214.90
960.29	214.92
960.58	214.94
960.88	215.00
961.17	214.97
961.47	214.98
961.76	214.93
962.06	214.94
962.36	214.91
962.65	214.95
962.95	215.00
963.24	215.01
963.54	215.02
963.83	215.02
964.13	215.00
964.42	214.96
964.72	214.81
965.01	214.83
965.31	214.80
965.60	214.75
965.90	214.89
966.19	214.82
966.49	214.86
966.78	214.86
967.08	214.86
967.37	214.86
967.67	214.84
967.96	214.89
968.26	214.87
968.55	214.88
968.85	214.84
969.14	214.83
969.43	214.84
969.73	214.83
970.02	214.84
970.32	214.83
970.61	214.81
970.91	214.73
971.20	214.66
971.49	214.64
971.79	214.67
972.08	214.52
972.38	214.56
972.67	214.51
972.96	214.54
973.26	214.49
973.55	214.56
973.85	214.58
974.14	214.55
974.43	214.58
974.73	214.56
975.02	214.55
975.31	214.53
975.61	214.52
975.90	214.51
976.19	214.47
976.49	214.48
976.78	214.53
977.07	214.50
977.37	214.54
977.66	214.60
977.95	214.53
978.24	214.51
978.54	214.56
978.83	214.55
979.12	214.56
979.42	214.59
979.71	214.52
980.00	214.51
980.29	214.51
980.59	214.49
980.88	214.51
981.17	214.50
981.46	214.50
981.76	214.50
982.05	214.55
982.34	214.56
982.63	214.54
982.93	214.51
983.22	214.58
983.51	214.57
983.80	214.57
984.09	214.63
984.39	214.63
984.68	214.60
984.97	214.62
985.26	214.56
985.55	214.60
985.85	214.58
986.14	214.63
986.43	214.68
986.72	214.67
987.01	214.64
987.30	214.66
987.59	214.68
987.89	214.67
988.18	214.60
988.47	214.60
988.76	214.58
989.05	214.57
989.34	214.53
989.63	214.62
989.92	214.60
990.22	214.57
990.51	214.59
990.80	214.59
991.09	214.61
991.38	214.67
991.67	214.63
991.96	214.63
992.25	214.63
992.54	214.57
992.83	214.58
993.12	214.54
993.41	214.60
993.70	214.66
993.99	214.72
994.28	214.77
994.58	214.76
994.87	214.79
995.16	214.78
995.45	214.78
995.74	214.71
996.03	214.73
996.32	214.77
996.61	214.81
996.90	214.81
997.19	214.81
997.48	214.82
997.77	214.80
998.06	214.79
998.34	214.74
998.63	214.76
998.92	214.78
999.21	214.80
999.50	214.77
999.79	214.70
1000.08	214.66
1000.37	214.64
1000.66	214.60
1000.95	214.63
1001.24	214.65
1001.53	214.66
1001.82	214.63
1002.11	214.59
1002.40	214.59
1002.68	214.63
1002.97	214.73
1003.26	214.68
1003.55	214.65
1003.84	214.67
1004.13	214.77
1004.42	214.77
1004.71	214.76
1004.99	214.71
1005.28	214.78
1005.57	214.77
1005.86	214.74
1006.15	214.73
1006.44	214.71
1006.72	214.75
1007.01	214.72
1007.30	214.75
1007.59	214.72
1007.88	214.71
1008.17	214.71
1008.45	214.67
1008.74	214.59
1009.03	214.55
1009.32	214.57
1009.60	214.55
1009.89	214.52
1010.18	214.41
1010.47	214.41
1010.76	214.41
1011.04	214.42
1011.33	214.41
1011.62	214.42
1011.91	214.45
1012.19	214.48
1012.48	214.48
1012.77	214.50
1013.05	214.58
1013.34	214.55
1013.63	214.54
1013.92	214.55
1014.20	214.55
1014.49	214.54
1014.78	214.52
1015.06	214.41
1015.35	214.38
1015.64	214.41
1015.92	214.44
1016.21	214.44
1016.50	214.43
1016.78	214.46
1017.07	214.46
1017.36	214.43
1017.64	214.41
1017.93	214.42
1018.22	214.40
1018.50	214.44
1018.79	214.43
1019.08	214.35
1019.36	214.38
1019.65	214.39
1019.93	214.43
1020.22	214.46
1020.51	214.57
1020.79	214.59
1021.08	214.31
1021.36	214.91
1021.65	214.67
1021.94	214.67
1022.22	214.76
1022.51	214.34
1022.79	215.15
1023.08	214.94
1023.36	216.90
1023.65	214.10
>>>>>End Processed Spectral Data<<<<<
