SpectraSuite Data File
++++++++++++++++++++++++++++++++++++
Date: Tue Jan 29 16:52:27 EST 2013
User: group
Dark Spectrum Present: No
Reference Spectrum Present: No
Number of Sampled Component Spectra: 1
Spectrometers: USB2E7196
Integration Time (usec): 65000 (USB2E7196)
Spectra Averaged: 100 (USB2E7196)
Boxcar Smoothing: 10 (USB2E7196)
Correct for Electrical Dark: No (USB2E7196)
Strobe/Lamp Enabled: No (USB2E7196)
Correct for Detector Non-linearity: No (USB2E7196)
Correct for Stray Light: No (USB2E7196)
Number of Pixels in Processed Spectrum: 2048
>>>>>Begin Processed Spectral Data<<<<<
339.09	0.00
339.48	201.20
339.86	202.85
340.24	204.33
340.63	205.76
341.01	210.84
341.39	208.66
341.78	209.85
342.16	211.43
342.54	211.74
342.93	200.78
343.31	210.90
343.69	211.46
344.07	211.93
344.46	212.38
344.84	212.78
345.22	212.92
345.60	213.18
345.99	213.40
346.37	213.52
346.75	213.63
347.13	213.71
347.52	213.78
347.90	213.89
348.28	213.92
348.66	214.02
349.05	214.02
349.43	214.10
349.81	214.11
350.19	214.18
350.57	214.25
350.96	214.33
351.34	214.45
351.72	214.57
352.10	214.68
352.48	214.77
352.87	214.81
353.25	214.90
353.63	214.96
354.01	215.00
354.39	215.10
354.77	215.19
355.15	215.34
355.54	215.41
355.92	215.42
356.30	215.51
356.68	215.66
357.06	215.72
357.44	215.73
357.82	215.81
358.20	215.89
358.58	215.97
358.97	216.06
359.35	216.19
359.73	216.27
360.11	216.33
360.49	216.39
360.87	216.45
361.25	216.51
361.63	216.62
362.01	216.68
362.39	216.65
362.77	216.70
363.15	216.68
363.53	216.74
363.91	216.78
364.29	216.79
364.67	216.62
365.05	216.66
365.43	216.71
365.81	216.76
366.19	216.84
366.57	216.93
366.95	216.93
367.33	216.86
367.71	216.83
368.09	216.84
368.47	216.82
368.85	216.81
369.23	216.84
369.61	216.74
369.99	216.77
370.37	216.78
370.75	216.84
371.13	216.78
371.51	216.71
371.89	216.70
372.27	216.67
372.65	216.69
373.03	216.66
373.41	216.58
373.78	216.53
374.16	216.38
374.54	216.28
374.92	216.24
375.30	216.20
375.68	216.13
376.06	216.13
376.44	216.05
376.82	215.99
377.19	215.92
377.57	215.88
377.95	215.76
378.33	215.73
378.71	215.57
379.09	215.58
379.47	215.55
379.84	215.48
380.22	215.44
380.60	215.31
380.98	215.27
381.36	215.23
381.73	215.19
382.11	215.21
382.49	215.15
382.87	215.05
383.25	215.02
383.62	215.25
384.00	215.15
384.38	215.14
384.76	215.18
385.13	215.25
385.51	215.22
385.89	215.19
386.27	215.17
386.64	215.16
387.02	215.12
387.40	215.07
387.78	215.07
388.15	215.07
388.53	215.08
388.91	215.06
389.29	215.02
389.66	215.02
390.04	215.00
390.42	215.04
390.79	215.06
391.17	215.02
391.55	214.78
391.92	214.79
392.30	214.79
392.68	214.75
393.05	214.70
393.43	214.71
393.81	214.73
394.18	214.69
394.56	214.70
394.94	214.75
395.31	214.76
395.69	214.84
396.06	214.83
396.44	214.87
396.82	214.90
397.19	215.04
397.57	215.02
397.95	215.06
398.32	215.00
398.70	215.07
399.07	215.16
399.45	215.19
399.82	215.23
400.20	215.28
400.58	215.35
400.95	215.35
401.33	215.47
401.70	215.67
402.08	215.82
402.45	215.93
402.83	216.06
403.20	216.16
403.58	216.24
403.95	216.43
404.33	216.59
404.71	216.72
405.08	216.96
405.46	217.16
405.83	217.34
406.21	217.57
406.58	217.83
406.96	218.05
407.33	218.33
407.70	218.64
408.08	219.11
408.45	219.43
408.83	219.84
409.20	220.14
409.58	220.43
409.95	220.87
410.33	221.38
410.70	221.81
411.08	222.36
411.45	222.93
411.82	223.47
412.20	224.17
412.57	225.02
412.95	225.60
413.32	226.42
413.69	227.30
414.07	228.19
414.44	229.13
414.82	230.15
415.19	231.32
415.56	232.54
415.94	233.74
416.31	235.18
416.68	236.60
417.06	238.23
417.43	239.81
417.81	241.53
418.18	243.31
418.55	245.24
418.93	247.31
419.30	249.42
419.67	251.67
420.04	253.94
420.42	256.35
420.79	259.19
421.16	261.98
421.54	264.89
421.91	267.95
422.28	271.07
422.66	274.43
423.03	277.72
423.40	281.06
423.77	284.65
424.15	288.34
424.52	292.21
424.89	296.44
425.26	300.51
425.64	304.42
426.01	308.71
426.38	313.22
426.75	317.78
427.13	322.54
427.50	327.56
427.87	332.82
428.24	338.04
428.61	343.01
428.99	348.59
429.36	354.64
429.73	360.56
430.10	366.45
430.47	372.56
430.85	378.89
431.22	385.67
431.59	392.81
431.96	399.69
432.33	407.19
432.70	414.47
433.08	423.06
433.45	431.23
433.82	439.26
434.19	448.23
434.56	456.94
434.93	465.28
435.30	473.59
435.68	482.67
436.05	491.74
436.42	500.75
436.79	508.93
437.16	517.70
437.53	526.95
437.90	536.19
438.27	545.17
438.64	554.45
439.01	562.97
439.38	570.64
439.75	577.98
440.13	586.43
440.50	594.40
440.87	600.84
441.24	607.46
441.61	614.91
441.98	620.29
442.35	626.72
442.72	633.12
443.09	639.23
443.46	643.08
443.83	645.60
444.20	647.81
444.57	651.01
444.94	652.52
445.31	654.02
445.68	655.43
446.05	656.02
446.42	655.25
446.79	654.34
447.16	653.26
447.53	652.53
447.90	649.26
448.27	646.03
448.64	641.39
449.01	638.12
449.37	632.21
449.74	626.49
450.11	619.55
450.48	612.13
450.85	604.70
451.22	598.23
451.59	592.04
451.96	586.21
452.33	578.28
452.70	571.13
453.07	562.62
453.43	553.96
453.80	545.66
454.17	537.63
454.54	530.05
454.91	521.80
455.28	513.71
455.65	506.19
456.02	498.56
456.38	492.16
456.75	484.16
457.12	477.54
457.49	470.97
457.86	464.72
458.23	459.28
458.59	453.24
458.96	447.16
459.33	441.82
459.70	436.42
460.07	432.14
460.43	427.19
460.80	422.58
461.17	418.57
461.54	414.34
461.91	410.32
462.27	406.16
462.64	402.66
463.01	398.89
463.38	395.19
463.74	391.50
464.11	388.25
464.48	385.41
464.85	382.27
465.21	379.82
465.58	377.19
465.95	374.06
466.32	371.42
466.68	368.81
467.05	366.19
467.42	363.60
467.78	360.91
468.15	358.35
468.52	356.40
468.88	353.90
469.25	351.63
469.62	349.77
469.98	347.79
470.35	345.98
470.72	344.25
471.08	342.40
471.45	340.87
471.82	339.29
472.18	337.62
472.55	336.36
472.92	334.99
473.28	333.74
473.65	332.58
474.02	331.45
474.38	330.50
474.75	329.71
475.11	328.84
475.48	328.23
475.85	327.71
476.21	327.18
476.58	326.80
476.94	326.55
477.31	326.20
477.67	325.94
478.04	325.77
478.41	325.69
478.77	325.87
479.14	325.81
479.50	325.94
479.87	326.20
480.23	326.58
480.60	326.77
480.96	327.02
481.33	327.60
481.69	328.16
482.06	328.66
482.42	329.13
482.79	329.70
483.15	330.46
483.52	331.42
483.88	332.35
484.25	333.22
484.61	334.25
484.98	335.32
485.34	336.62
485.71	338.00
486.07	339.45
486.44	340.76
486.80	342.39
487.17	344.04
487.53	345.89
487.90	347.72
488.26	349.80
488.62	352.00
488.99	354.04
489.35	356.23
489.72	358.63
490.08	361.17
490.44	363.75
490.81	366.51
491.17	369.23
491.54	372.24
491.90	375.33
492.26	378.54
492.63	381.96
492.99	385.43
493.36	389.12
493.72	392.98
494.08	397.05
494.45	401.26
494.81	405.62
495.17	410.06
495.54	414.75
495.90	419.55
496.26	424.44
496.63	429.64
496.99	434.97
497.35	440.54
497.72	446.30
498.08	452.26
498.44	458.29
498.80	464.70
499.17	471.13
499.53	477.81
499.89	484.65
500.26	491.57
500.62	498.60
500.98	506.01
501.34	513.46
501.71	521.14
502.07	528.95
502.43	536.91
502.79	545.00
503.16	553.41
503.52	561.98
503.88	570.64
504.24	579.56
504.60	588.61
504.97	597.80
505.33	607.06
505.69	616.92
506.05	626.74
506.41	636.63
506.78	646.71
507.14	656.93
507.50	667.46
507.86	678.17
508.22	688.97
508.59	699.51
508.95	710.48
509.31	721.64
509.67	733.13
510.03	744.47
510.39	756.14
510.75	767.83
511.12	779.65
511.48	791.69
511.84	803.85
512.20	816.15
512.56	828.80
512.92	841.66
513.28	854.26
513.64	867.03
514.00	879.83
514.37	892.77
514.73	905.89
515.09	918.80
515.45	931.68
515.81	944.69
516.17	958.12
516.53	971.47
516.89	984.67
517.25	997.78
517.61	1011.34
517.97	1024.82
518.33	1038.09
518.69	1051.70
519.05	1065.49
519.41	1079.16
519.77	1093.04
520.13	1106.26
520.49	1119.40
520.85	1132.80
521.21	1146.22
521.57	1159.96
521.93	1172.88
522.29	1186.56
522.65	1200.15
523.01	1213.80
523.37	1227.07
523.73	1240.25
524.09	1253.41
524.45	1266.92
524.81	1280.34
525.17	1293.75
525.53	1306.98
525.89	1320.33
526.25	1333.50
526.61	1346.39
526.97	1359.65
527.33	1372.59
527.68	1386.18
528.04	1399.73
528.40	1412.83
528.76	1426.22
529.12	1439.13
529.48	1452.63
529.84	1465.00
530.20	1477.97
530.56	1490.56
530.91	1503.81
531.27	1516.93
531.63	1529.67
531.99	1542.39
532.35	1554.76
532.71	1567.18
533.07	1580.10
533.42	1592.36
533.78	1604.59
534.14	1616.76
534.50	1627.97
534.86	1639.68
535.21	1650.58
535.57	1662.08
535.93	1673.36
536.29	1684.41
536.65	1695.97
537.00	1706.96
537.36	1718.43
537.72	1729.42
538.08	1741.08
538.44	1752.08
538.79	1763.16
539.15	1774.26
539.51	1785.16
539.87	1796.52
540.22	1807.43
540.58	1818.39
540.94	1829.40
541.29	1839.69
541.65	1849.50
542.01	1860.06
542.37	1870.24
542.72	1880.48
543.08	1890.45
543.44	1901.05
543.79	1910.46
544.15	1919.77
544.51	1929.87
544.87	1939.83
545.22	1949.15
545.58	1958.00
545.94	1967.00
546.29	1975.68
546.65	1984.03
547.01	1992.31
547.36	2000.18
547.72	2007.97
548.07	2015.75
548.43	2023.53
548.79	2031.36
549.14	2039.65
549.50	2048.15
549.86	2056.04
550.21	2063.57
550.57	2071.28
550.92	2078.11
551.28	2085.66
551.64	2092.99
551.99	2100.45
552.35	2107.55
552.70	2114.29
553.06	2121.01
553.41	2127.33
553.77	2133.70
554.13	2140.17
554.48	2147.10
554.84	2154.05
555.19	2160.65
555.55	2166.89
555.90	2173.13
556.26	2180.05
556.61	2186.08
556.97	2190.92
557.32	2196.62
557.68	2202.93
558.03	2208.64
558.39	2214.02
558.74	2219.94
559.10	2225.57
559.45	2231.21
559.81	2236.78
560.16	2242.28
560.52	2248.08
560.87	2254.37
561.23	2260.31
561.58	2266.89
561.94	2272.18
562.29	2276.92
562.64	2282.76
563.00	2288.38
563.35	2293.81
563.71	2299.35
564.06	2304.96
564.42	2310.91
564.77	2315.95
565.12	2321.11
565.48	2326.15
565.83	2331.61
566.19	2336.87
566.54	2342.00
566.89	2346.43
567.25	2350.88
567.60	2356.59
567.96	2361.55
568.31	2365.97
568.66	2370.01
569.02	2373.76
569.37	2377.28
569.72	2381.58
570.08	2384.99
570.43	2388.18
570.78	2391.38
571.14	2393.98
571.49	2396.89
571.84	2400.21
572.20	2403.06
572.55	2406.00
572.90	2408.11
573.26	2410.66
573.61	2413.11
573.96	2415.12
574.31	2417.01
574.67	2418.83
575.02	2419.45
575.37	2420.69
575.72	2421.26
576.08	2422.75
576.43	2422.73
576.78	2423.00
577.13	2424.41
577.49	2425.44
577.84	2426.18
578.19	2427.13
578.54	2427.38
578.90	2427.82
579.25	2427.54
579.60	2427.22
579.95	2426.24
580.30	2426.01
580.66	2425.27
581.01	2423.54
581.36	2421.09
581.71	2419.41
582.06	2418.11
582.42	2417.03
582.77	2414.66
583.12	2412.80
583.47	2411.03
583.82	2410.34
584.17	2408.89
584.53	2406.53
584.88	2404.27
585.23	2402.20
585.58	2399.74
585.93	2397.68
586.28	2395.43
586.63	2392.80
586.98	2390.52
587.34	2388.36
587.69	2385.84
588.04	2383.56
588.39	2381.86
588.74	2379.14
589.09	2376.14
589.44	2372.68
589.79	2370.10
590.14	2367.96
590.49	2365.13
590.84	2361.11
591.19	2357.66
591.54	2354.33
591.89	2350.22
592.25	2346.91
592.60	2342.43
592.95	2338.19
593.30	2333.89
593.65	2329.41
594.00	2324.96
594.35	2321.89
594.70	2317.06
595.05	2312.39
595.40	2306.71
595.75	2300.88
596.10	2297.17
596.45	2292.44
596.80	2287.87
597.15	2282.59
597.50	2276.67
597.85	2271.49
598.19	2266.33
598.54	2260.54
598.89	2255.26
599.24	2250.63
599.59	2244.45
599.94	2238.52
600.29	2232.60
600.64	2226.47
600.99	2219.51
601.34	2214.04
601.69	2207.00
602.04	2200.69
602.39	2193.96
602.74	2187.92
603.08	2182.30
603.43	2175.71
603.78	2168.85
604.13	2161.58
604.48	2154.08
604.83	2147.88
605.18	2141.78
605.53	2134.91
605.87	2127.94
606.22	2121.12
606.57	2113.28
606.92	2105.25
607.27	2098.60
607.62	2091.84
607.96	2084.93
608.31	2078.67
608.66	2070.78
609.01	2062.92
609.36	2055.69
609.70	2048.14
610.05	2040.31
610.40	2031.95
610.75	2023.69
611.10	2015.86
611.44	2007.05
611.79	1998.57
612.14	1988.62
612.49	1977.86
612.83	1968.44
613.18	1959.14
613.53	1949.88
613.88	1940.25
614.22	1931.71
614.57	1921.76
614.92	1911.28
615.27	1901.00
615.61	1890.68
615.96	1881.07
616.31	1871.63
616.65	1862.31
617.00	1852.61
617.35	1843.01
617.70	1833.36
618.04	1823.47
618.39	1813.58
618.74	1804.04
619.08	1794.40
619.43	1785.73
619.78	1777.63
620.12	1769.25
620.47	1759.81
620.82	1749.58
621.16	1739.76
621.51	1729.91
621.85	1720.32
622.20	1710.10
622.55	1699.68
622.89	1689.94
623.24	1680.38
623.59	1670.68
623.93	1660.62
624.28	1650.94
624.62	1641.10
624.97	1631.02
625.32	1621.20
625.66	1612.22
626.01	1603.53
626.35	1594.29
626.70	1584.50
627.04	1574.57
627.39	1564.50
627.73	1555.27
628.08	1546.49
628.43	1537.10
628.77	1527.90
629.12	1518.99
629.46	1511.31
629.81	1503.17
630.15	1493.82
630.50	1484.06
630.84	1473.68
631.19	1463.95
631.53	1454.70
631.88	1444.58
632.22	1434.75
632.57	1425.57
632.91	1415.71
633.26	1405.98
633.60	1396.60
633.95	1387.39
634.29	1377.90
634.64	1368.67
634.98	1358.82
635.32	1349.58
635.67	1341.33
636.01	1332.18
636.36	1322.69
636.70	1313.18
637.05	1303.78
637.39	1294.98
637.73	1286.55
638.08	1279.13
638.42	1271.14
638.77	1262.48
639.11	1254.27
639.45	1246.48
639.80	1238.05
640.14	1229.38
640.49	1220.70
640.83	1211.85
641.17	1203.66
641.52	1195.73
641.86	1187.31
642.20	1179.56
642.55	1171.11
642.89	1162.25
643.23	1153.80
643.58	1145.67
643.92	1136.79
644.26	1128.31
644.61	1119.88
644.95	1111.10
645.29	1102.00
645.64	1092.89
645.98	1084.43
646.32	1076.71
646.66	1068.19
647.01	1059.97
647.35	1051.93
647.69	1043.69
648.04	1035.63
648.38	1026.96
648.72	1018.27
649.06	1009.91
649.41	1001.76
649.75	993.83
650.09	986.02
650.43	978.04
650.78	969.78
651.12	962.08
651.46	954.70
651.80	947.53
652.14	940.36
652.49	932.94
652.83	925.61
653.17	918.09
653.51	910.39
653.85	903.21
654.20	896.01
654.54	888.64
654.88	881.37
655.22	874.12
655.56	867.15
655.90	860.33
656.25	853.71
656.59	847.00
656.93	840.02
657.27	832.97
657.61	825.99
657.95	819.78
658.29	813.83
658.64	807.71
658.98	801.26
659.32	794.74
659.66	788.48
660.00	782.28
660.34	776.20
660.68	770.15
661.02	763.82
661.36	757.92
661.70	752.15
662.05	746.54
662.39	741.14
662.73	735.72
663.07	730.40
663.41	724.69
663.75	718.92
664.09	713.20
664.43	707.76
664.77	702.42
665.11	696.78
665.45	690.94
665.79	685.13
666.13	679.47
666.47	674.00
666.81	668.54
667.15	663.07
667.49	657.87
667.83	652.69
668.17	647.51
668.51	642.34
668.85	637.39
669.19	632.52
669.53	627.43
669.87	622.30
670.21	617.48
670.55	612.79
670.89	608.33
671.23	603.98
671.57	599.56
671.91	595.27
672.25	591.07
672.58	586.97
672.92	582.90
673.26	578.97
673.60	574.98
673.94	571.14
674.28	567.53
674.62	563.79
674.96	560.01
675.30	556.53
675.64	552.89
675.97	549.29
676.31	545.64
676.65	542.12
676.99	538.74
677.33	534.91
677.67	531.30
678.01	527.44
678.34	523.84
678.68	520.31
679.02	516.77
679.36	513.08
679.70	509.36
680.04	505.82
680.37	502.42
680.71	499.16
681.05	495.96
681.39	492.67
681.73	489.49
682.06	486.47
682.40	483.36
682.74	480.21
683.08	476.96
683.42	473.80
683.75	470.68
684.09	467.59
684.43	464.78
684.77	461.79
685.10	458.91
685.44	455.98
685.78	453.00
686.12	450.14
686.45	447.41
686.79	444.71
687.13	442.17
687.46	439.50
687.80	436.82
688.14	433.97
688.48	431.25
688.81	428.54
689.15	425.92
689.49	423.24
689.82	420.63
690.16	418.05
690.50	415.54
690.83	413.04
691.17	410.44
691.51	407.95
691.84	405.64
692.18	403.35
692.52	401.13
692.85	398.98
693.19	396.86
693.52	394.65
693.86	392.44
694.20	390.20
694.53	388.01
694.87	385.77
695.21	383.61
695.54	381.47
695.88	379.27
696.21	377.06
696.55	374.93
696.88	372.88
697.22	370.88
697.56	368.91
697.89	367.01
698.23	365.24
698.56	363.41
698.90	361.65
699.23	359.75
699.57	357.90
699.90	356.03
700.24	354.20
700.58	352.38
700.91	350.70
701.25	349.14
701.58	347.49
701.92	345.85
702.25	344.21
702.59	342.56
702.92	341.05
703.26	339.45
703.59	337.95
703.93	336.63
704.26	335.16
704.60	333.68
704.93	332.14
705.26	330.67
705.60	329.19
705.93	327.69
706.27	326.35
706.60	325.06
706.94	323.85
707.27	322.44
707.61	321.09
707.94	319.74
708.27	318.17
708.61	316.73
708.94	315.35
709.28	314.04
709.61	312.78
709.94	311.52
710.28	310.31
710.61	309.13
710.95	307.66
711.28	306.59
711.61	305.39
711.95	304.28
712.28	303.08
712.61	301.83
712.95	300.70
713.28	299.66
713.61	298.48
713.95	297.29
714.28	296.28
714.61	295.24
714.95	294.21
715.28	293.21
715.61	292.17
715.95	291.19
716.28	290.22
716.61	289.25
716.95	288.23
717.28	287.25
717.61	286.25
717.94	285.37
718.28	284.27
718.61	283.39
718.94	282.44
719.27	281.55
719.61	280.77
719.94	279.90
720.27	278.91
720.60	278.01
720.94	277.17
721.27	276.34
721.60	275.67
721.93	274.93
722.27	274.28
722.60	273.66
722.93	272.96
723.26	272.29
723.59	271.57
723.93	270.94
724.26	270.29
724.59	269.62
724.92	269.01
725.25	268.51
725.59	267.90
725.92	267.36
726.25	266.79
726.58	266.18
726.91	265.51
727.24	264.94
727.57	264.35
727.91	263.74
728.24	263.20
728.57	262.60
728.90	262.01
729.23	261.37
729.56	260.88
729.89	260.36
730.22	259.79
730.55	259.28
730.89	258.71
731.22	258.17
731.55	257.66
731.88	257.14
732.21	256.53
732.54	256.01
732.87	255.47
733.20	254.97
733.53	254.47
733.86	254.09
734.19	253.61
734.52	253.24
734.85	252.94
735.18	252.46
735.51	252.10
735.84	251.67
736.17	251.29
736.50	250.73
736.83	250.51
737.16	250.09
737.49	249.68
737.82	249.26
738.15	248.88
738.48	248.52
738.81	248.09
739.14	247.66
739.47	247.26
739.80	246.90
740.13	246.55
740.46	246.15
740.79	245.72
741.12	245.36
741.45	244.96
741.78	244.50
742.11	244.18
742.44	243.75
742.77	243.44
743.10	243.08
743.43	242.74
743.75	242.16
744.08	242.14
744.41	241.77
744.74	241.43
745.07	241.07
745.40	240.74
745.73	240.50
746.06	240.19
746.39	239.89
746.71	239.55
747.04	239.21
747.37	238.89
747.70	238.62
748.03	238.31
748.36	238.01
748.68	237.74
749.01	237.41
749.34	237.12
749.67	236.84
750.00	236.56
750.33	236.44
750.65	236.20
750.98	235.63
751.31	235.41
751.64	235.20
751.97	235.03
752.29	234.76
752.62	234.44
752.95	234.17
753.28	233.88
753.60	233.65
753.93	233.47
754.26	233.24
754.59	232.92
754.91	232.69
755.24	232.45
755.57	232.19
755.90	231.96
756.22	231.70
756.55	231.42
756.88	231.19
757.20	230.83
757.53	230.58
757.86	230.37
758.19	230.17
758.51	229.94
758.84	229.66
759.17	229.46
759.49	229.27
759.82	229.20
760.15	229.06
760.47	228.86
760.80	228.58
761.13	228.44
761.45	228.23
761.78	228.03
762.11	227.84
762.43	227.67
762.76	227.52
763.08	227.38
763.41	227.24
763.74	227.08
764.06	226.89
764.39	226.72
764.71	226.56
765.04	226.35
765.37	226.20
765.69	226.04
766.02	225.89
766.34	225.74
766.67	225.52
767.00	225.41
767.32	225.36
767.65	225.35
767.97	225.18
768.30	225.09
768.62	224.97
768.95	224.84
769.27	224.68
769.60	224.56
769.92	224.42
770.25	224.23
770.57	224.04
770.90	223.93
771.22	223.78
771.55	223.69
771.87	223.63
772.20	223.50
772.52	223.58
772.85	223.69
773.17	223.57
773.50	223.45
773.82	223.32
774.15	223.15
774.47	222.92
774.80	222.83
775.12	222.72
775.45	222.61
775.77	222.53
776.09	222.48
776.42	222.39
776.74	222.35
777.07	222.27
777.39	222.23
777.72	222.14
778.04	222.11
778.36	221.97
778.69	221.82
779.01	221.77
779.33	221.54
779.66	221.25
779.98	221.16
780.31	221.09
780.63	221.10
780.95	221.02
781.28	220.96
781.60	220.88
781.92	220.83
782.25	220.78
782.57	220.72
782.89	220.62
783.22	220.52
783.54	220.41
783.86	220.35
784.19	220.24
784.51	220.25
784.83	220.16
785.16	220.10
785.48	220.05
785.80	219.99
786.12	219.89
786.45	219.80
786.77	219.76
787.09	219.69
787.42	219.53
787.74	219.47
788.06	219.42
788.38	219.34
788.71	219.27
789.03	219.20
789.35	219.16
789.67	219.08
789.99	219.06
790.32	218.97
790.64	218.95
790.96	219.07
791.28	218.91
791.61	218.88
791.93	218.86
792.25	218.81
792.57	218.88
792.89	218.82
793.21	218.80
793.54	218.72
793.86	218.67
794.18	218.65
794.50	218.57
794.82	218.52
795.14	218.53
795.47	218.51
795.79	218.45
796.11	218.32
796.43	218.27
796.75	218.24
797.07	218.20
797.39	218.12
797.71	217.94
798.04	217.94
798.36	217.86
798.68	217.81
799.00	217.80
799.32	217.68
799.64	217.67
799.96	217.64
800.28	217.66
800.60	217.60
800.92	217.57
801.24	217.52
801.56	217.50
801.89	217.44
802.21	217.42
802.53	217.36
802.85	217.42
803.17	217.47
803.49	217.35
803.81	217.33
804.13	217.30
804.45	217.29
804.77	217.25
805.09	217.22
805.41	217.19
805.73	217.13
806.05	217.04
806.37	217.01
806.69	216.98
807.01	216.94
807.33	216.93
807.65	216.85
807.97	216.96
808.28	216.91
808.60	216.89
808.92	216.86
809.24	216.99
809.56	216.94
809.88	216.85
810.20	216.88
810.52	216.89
810.84	216.85
811.16	216.80
811.48	216.78
811.80	216.85
812.12	216.84
812.43	216.84
812.75	216.86
813.07	216.77
813.39	216.74
813.71	216.67
814.03	216.61
814.35	216.61
814.67	216.49
814.98	216.43
815.30	216.40
815.62	216.34
815.94	216.16
816.26	216.15
816.58	216.08
816.89	216.06
817.21	215.99
817.53	215.95
817.85	215.94
818.17	215.91
818.48	215.80
818.80	215.78
819.12	215.75
819.44	215.65
819.76	215.64
820.07	215.62
820.39	215.60
820.71	215.60
821.03	215.53
821.34	215.48
821.66	215.49
821.98	215.47
822.30	215.41
822.61	215.52
822.93	215.46
823.25	215.43
823.57	215.39
823.88	215.42
824.20	215.44
824.52	215.41
824.83	215.36
825.15	215.32
825.47	215.30
825.79	215.28
826.10	215.24
826.42	215.20
826.74	215.23
827.05	215.22
827.37	215.22
827.69	215.24
828.00	215.23
828.32	215.23
828.64	215.19
828.95	215.29
829.27	215.24
829.58	215.22
829.90	215.25
830.22	215.27
830.53	215.21
830.85	215.16
831.17	215.13
831.48	215.12
831.80	215.11
832.11	215.08
832.43	215.07
832.75	215.09
833.06	215.22
833.38	215.11
833.69	215.06
834.01	215.07
834.32	215.04
834.64	215.02
834.96	214.99
835.27	214.99
835.59	214.90
835.90	214.84
836.22	214.82
836.53	214.77
836.85	214.72
837.16	214.91
837.48	214.91
837.79	214.96
838.11	214.99
838.42	215.02
838.74	215.07
839.05	215.02
839.37	214.98
839.68	214.82
840.00	214.83
840.31	214.89
840.63	214.85
840.94	214.82
841.26	214.80
841.57	214.81
841.88	214.82
842.20	214.81
842.51	214.79
842.83	214.78
843.14	214.97
843.46	215.00
843.77	214.87
844.08	214.86
844.40	214.78
844.71	214.71
845.03	214.66
845.34	214.61
845.65	214.61
845.97	214.64
846.28	214.67
846.60	214.67
846.91	214.65
847.22	214.62
847.54	214.66
847.85	214.64
848.16	214.61
848.48	214.57
848.79	214.65
849.10	214.69
849.42	214.68
849.73	214.47
850.04	214.44
850.36	214.36
850.67	214.38
850.98	214.40
851.30	214.45
851.61	214.45
851.92	214.43
852.23	214.51
852.55	214.55
852.86	214.57
853.17	214.59
853.49	214.62
853.80	214.67
854.11	214.67
854.42	214.70
854.74	214.72
855.05	214.71
855.36	214.59
855.67	214.57
855.99	214.59
856.30	214.84
856.61	214.85
856.92	214.87
857.23	214.85
857.55	214.82
857.86	214.80
858.17	214.78
858.48	214.77
858.79	214.73
859.11	214.70
859.42	214.68
859.73	214.65
860.04	214.62
860.35	214.51
860.66	214.45
860.98	214.47
861.29	214.47
861.60	214.46
861.91	214.50
862.22	214.49
862.53	214.41
862.84	214.19
863.16	214.21
863.47	214.13
863.78	214.14
864.09	214.17
864.40	214.20
864.71	214.23
865.02	214.28
865.33	214.21
865.64	214.15
865.95	214.11
866.27	214.26
866.58	214.24
866.89	214.30
867.20	214.33
867.51	214.29
867.82	214.27
868.13	214.32
868.44	214.31
868.75	214.36
869.06	214.39
869.37	214.39
869.68	214.35
869.99	214.39
870.30	214.37
870.61	214.36
870.92	214.31
871.23	214.31
871.54	214.29
871.85	214.37
872.16	214.42
872.47	214.39
872.78	214.25
873.09	214.26
873.40	214.23
873.71	214.21
874.02	214.25
874.33	214.21
874.64	214.17
874.95	214.19
875.26	214.14
875.56	214.11
875.87	214.11
876.18	214.10
876.49	214.30
876.80	214.31
877.11	214.27
877.42	214.28
877.73	214.26
878.04	214.24
878.35	214.22
878.66	214.24
878.96	214.25
879.27	214.23
879.58	214.24
879.89	214.24
880.20	214.33
880.51	214.31
880.82	214.33
881.12	214.33
881.43	214.27
881.74	214.23
882.05	214.22
882.36	214.23
882.67	214.26
882.97	214.04
883.28	214.00
883.59	214.02
883.90	214.02
884.21	214.06
884.51	214.03
884.82	213.98
885.13	213.96
885.44	213.97
885.74	214.00
886.05	213.97
886.36	213.95
886.67	213.85
886.98	213.92
887.28	213.95
887.59	213.97
887.90	214.00
888.20	214.04
888.51	214.11
888.82	214.09
889.13	214.10
889.43	214.29
889.74	214.30
890.05	214.28
890.35	214.29
890.66	214.25
890.97	214.25
891.28	214.26
891.58	214.28
891.89	214.28
892.20	214.25
892.50	214.23
892.81	214.26
893.12	214.26
893.42	214.21
893.73	214.19
894.04	214.18
894.34	214.18
894.65	214.16
894.95	214.10
895.26	214.11
895.57	214.18
895.87	213.99
896.18	214.02
896.48	214.02
896.79	214.02
897.10	214.05
897.40	214.07
897.71	214.10
898.01	214.08
898.32	214.08
898.63	214.06
898.93	214.05
899.24	214.03
899.54	214.03
899.85	213.97
900.15	213.97
900.46	213.97
900.76	213.98
901.07	214.00
901.38	214.00
901.68	214.03
901.99	213.91
902.29	213.93
902.60	213.93
902.90	213.90
903.21	213.85
903.51	213.83
903.82	213.85
904.12	213.83
904.43	213.82
904.73	213.83
905.03	213.85
905.34	214.07
905.64	214.08
905.95	214.08
906.25	214.10
906.56	214.07
906.86	214.07
907.17	214.05
907.47	214.03
907.77	214.02
908.08	213.99
908.38	214.01
908.69	214.01
908.99	214.04
909.30	214.09
909.60	214.12
909.90	214.14
910.21	214.11
910.51	214.07
910.81	214.11
911.12	214.10
911.42	214.09
911.73	213.89
912.03	213.91
912.33	213.98
912.64	213.97
912.94	213.98
913.24	213.95
913.55	213.94
913.85	213.92
914.15	213.94
914.46	213.96
914.76	213.95
915.06	213.93
915.37	213.87
915.67	213.83
915.97	213.84
916.27	213.77
916.58	213.77
916.88	213.77
917.18	213.72
917.49	213.86
917.79	213.85
918.09	213.89
918.39	213.91
918.70	213.85
919.00	213.88
919.30	213.98
919.60	213.97
919.91	213.97
920.21	213.99
920.51	213.96
920.81	213.93
921.12	213.95
921.42	213.95
921.72	213.98
922.02	214.01
922.32	214.01
922.63	214.04
922.93	214.15
923.23	214.17
923.53	214.17
923.83	214.03
924.13	214.05
924.44	214.05
924.74	214.07
925.04	214.13
925.34	214.10
925.64	214.01
925.94	214.00
926.24	214.11
926.55	214.09
926.85	214.14
927.15	214.11
927.45	214.09
927.75	214.09
928.05	214.08
928.35	214.06
928.65	214.10
928.95	214.13
929.26	214.03
929.56	214.05
929.86	214.06
930.16	214.05
930.46	214.04
930.76	214.06
931.06	213.97
931.36	213.91
931.66	213.93
931.96	213.94
932.26	213.94
932.56	213.84
932.86	213.86
933.16	213.82
933.46	213.86
933.76	213.86
934.06	213.93
934.36	214.01
934.66	214.01
934.96	213.98
935.26	213.99
935.56	214.03
935.86	213.99
936.16	214.00
936.46	213.97
936.76	213.96
937.06	213.91
937.36	213.93
937.66	213.94
937.96	213.93
938.26	213.89
938.56	213.87
938.86	213.87
939.16	213.90
939.46	213.94
939.76	213.93
940.06	213.93
940.35	213.87
940.65	213.73
940.95	213.78
941.25	213.73
941.55	213.67
941.85	213.66
942.15	213.71
942.45	213.74
942.75	213.75
943.04	213.73
943.34	213.79
943.64	213.78
943.94	213.76
944.24	213.79
944.54	213.78
944.84	213.79
945.13	213.74
945.43	213.72
945.73	213.69
946.03	213.68
946.33	213.64
946.62	213.60
946.92	213.63
947.22	213.63
947.52	213.64
947.82	213.67
948.11	213.64
948.41	213.60
948.71	213.55
949.01	213.54
949.31	213.54
949.60	213.51
949.90	213.56
950.20	213.55
950.50	213.53
950.79	213.55
951.09	213.60
951.39	213.62
951.69	213.60
951.98	213.63
952.28	213.66
952.58	213.66
952.87	213.67
953.17	213.69
953.47	213.65
953.76	213.66
954.06	213.63
954.36	213.62
954.66	213.62
954.95	213.66
955.25	213.68
955.55	213.70
955.84	213.65
956.14	213.65
956.44	213.68
956.73	213.68
957.03	213.70
957.32	213.68
957.62	213.67
957.92	213.72
958.21	213.70
958.51	213.92
958.81	213.97
959.10	213.97
959.40	214.01
959.69	214.04
959.99	214.08
960.29	214.08
960.58	214.06
960.88	214.12
961.17	214.13
961.47	214.15
961.76	214.14
962.06	214.16
962.36	214.12
962.65	214.11
962.95	214.11
963.24	214.08
963.54	214.14
963.83	214.15
964.13	214.12
964.42	214.06
964.72	213.88
965.01	213.89
965.31	213.91
965.60	213.85
965.90	213.97
966.19	213.89
966.49	213.89
966.78	213.90
967.08	213.88
967.37	213.87
967.67	213.83
967.96	213.89
968.26	213.86
968.55	213.89
968.85	213.88
969.14	213.87
969.43	213.89
969.73	213.84
970.02	213.86
970.32	213.90
970.61	213.90
970.91	213.84
971.20	213.78
971.49	213.76
971.79	213.80
972.08	213.65
972.38	213.65
972.67	213.68
972.96	213.67
973.26	213.62
973.55	213.67
973.85	213.64
974.14	213.58
974.43	213.63
974.73	213.63
975.02	213.60
975.31	213.58
975.61	213.56
975.90	213.52
976.19	213.48
976.49	213.47
976.78	213.48
977.07	213.51
977.37	213.53
977.66	213.55
977.95	213.54
978.24	213.57
978.54	213.66
978.83	213.62
979.12	213.62
979.42	213.63
979.71	213.59
980.00	213.61
980.29	213.66
980.59	213.64
980.88	213.68
981.17	213.70
981.46	213.69
981.76	213.67
982.05	213.75
982.34	213.79
982.63	213.77
982.93	213.80
983.22	213.82
983.51	213.81
983.80	213.84
984.09	213.82
984.39	213.78
984.68	213.73
984.97	213.74
985.26	213.75
985.55	213.77
985.85	213.74
986.14	213.81
986.43	213.82
986.72	213.79
987.01	213.69
987.30	213.69
987.59	213.66
987.89	213.67
988.18	213.61
988.47	213.59
988.76	213.57
989.05	213.52
989.34	213.48
989.63	213.54
989.92	213.53
990.22	213.53
990.51	213.54
990.80	213.56
991.09	213.57
991.38	213.60
991.67	213.59
991.96	213.56
992.25	213.51
992.54	213.48
992.83	213.49
993.12	213.51
993.41	213.53
993.70	213.66
993.99	213.71
994.28	213.74
994.58	213.77
994.87	213.76
995.16	213.78
995.45	213.78
995.74	213.72
996.03	213.70
996.32	213.72
996.61	213.76
996.90	213.70
997.19	213.69
997.48	213.70
997.77	213.68
998.06	213.67
998.34	213.66
998.63	213.68
998.92	213.69
999.21	213.71
999.50	213.71
999.79	213.64
1000.08	213.65
1000.37	213.64
1000.66	213.60
1000.95	213.67
1001.24	213.67
1001.53	213.68
1001.82	213.67
1002.11	213.66
1002.40	213.67
1002.68	213.73
1002.97	213.91
1003.26	213.89
1003.55	213.82
1003.84	213.81
1004.13	213.89
1004.42	213.87
1004.71	213.87
1004.99	213.85
1005.28	213.88
1005.57	213.86
1005.86	213.82
1006.15	213.78
1006.44	213.73
1006.72	213.74
1007.01	213.70
1007.30	213.72
1007.59	213.71
1007.88	213.70
1008.17	213.71
1008.45	213.68
1008.74	213.58
1009.03	213.49
1009.32	213.49
1009.60	213.48
1009.89	213.50
1010.18	213.40
1010.47	213.40
1010.76	213.40
1011.04	213.37
1011.33	213.38
1011.62	213.41
1011.91	213.43
1012.19	213.47
1012.48	213.47
1012.77	213.50
1013.05	213.60
1013.34	213.61
1013.63	213.61
1013.92	213.66
1014.20	213.65
1014.49	213.67
1014.78	213.73
1015.06	213.62
1015.35	213.65
1015.64	213.68
1015.92	213.70
1016.21	213.75
1016.50	213.76
1016.78	213.76
1017.07	213.80
1017.36	213.76
1017.64	213.72
1017.93	213.73
1018.22	213.70
1018.50	213.70
1018.79	213.66
1019.08	213.56
1019.36	213.55
1019.65	213.56
1019.93	213.59
1020.22	213.61
1020.51	213.71
1020.79	213.65
1021.08	213.28
1021.36	213.24
1021.65	213.05
1021.94	213.69
1022.22	213.63
1022.51	213.69
1022.79	214.61
1023.08	214.03
1023.36	216.09
1023.65	213.02
>>>>>End Processed Spectral Data<<<<<
