SpectraSuite Data File
++++++++++++++++++++++++++++++++++++
Date: Tue Jan 29 16:02:34 EST 2013
User: group
Dark Spectrum Present: No
Reference Spectrum Present: No
Number of Sampled Component Spectra: 1
Spectrometers: USB2E7196
Integration Time (usec): 65000 (USB2E7196)
Spectra Averaged: 100 (USB2E7196)
Boxcar Smoothing: 10 (USB2E7196)
Correct for Electrical Dark: No (USB2E7196)
Strobe/Lamp Enabled: No (USB2E7196)
Correct for Detector Non-linearity: No (USB2E7196)
Correct for Stray Light: No (USB2E7196)
Number of Pixels in Processed Spectrum: 2048
>>>>>Begin Processed Spectral Data<<<<<
339.09	0.00
339.48	202.95
339.86	204.28
340.24	205.37
340.63	206.74
341.01	211.36
341.39	209.97
341.78	211.44
342.16	212.12
342.54	212.78
342.93	201.92
343.31	212.13
343.69	212.68
344.07	213.15
344.46	213.60
344.84	214.05
345.22	214.21
345.60	214.45
345.99	214.65
346.37	214.80
346.75	214.94
347.13	215.05
347.52	215.10
347.90	215.23
348.28	215.27
348.66	215.36
349.05	215.36
349.43	215.40
349.81	215.49
350.19	215.52
350.57	215.59
350.96	215.69
351.34	215.77
351.72	215.85
352.10	215.93
352.48	215.99
352.87	216.00
353.25	216.07
353.63	216.14
354.01	216.18
354.39	216.26
354.77	216.32
355.15	216.41
355.54	216.44
355.92	216.42
356.30	216.51
356.68	216.69
357.06	216.75
357.44	216.77
357.82	216.79
358.20	216.90
358.58	216.94
358.97	217.01
359.35	217.12
359.73	217.20
360.11	217.30
360.49	217.37
360.87	217.44
361.25	217.51
361.63	217.61
362.01	217.68
362.39	217.70
362.77	217.76
363.15	217.78
363.53	217.84
363.91	217.88
364.29	217.88
364.67	217.69
365.05	217.70
365.43	217.77
365.81	217.82
366.19	217.92
366.57	218.03
366.95	218.01
367.33	217.97
367.71	217.98
368.09	217.99
368.47	217.95
368.85	217.93
369.23	217.96
369.61	217.92
369.99	217.96
370.37	217.98
370.75	218.06
371.13	218.04
371.51	217.99
371.89	218.02
372.27	218.03
372.65	218.04
373.03	218.04
373.41	217.99
373.78	217.99
374.16	217.84
374.54	217.71
374.92	217.65
375.30	217.62
375.68	217.55
376.06	217.53
376.44	217.50
376.82	217.47
377.19	217.41
377.57	217.34
377.95	217.24
378.33	217.20
378.71	217.02
379.09	216.98
379.47	216.96
379.84	216.85
380.22	216.77
380.60	216.71
380.98	216.68
381.36	216.66
381.73	216.61
382.11	216.61
382.49	216.62
382.87	216.58
383.25	216.54
383.62	216.75
384.00	216.63
384.38	216.59
384.76	216.59
385.13	216.66
385.51	216.62
385.89	216.56
386.27	216.51
386.64	216.53
387.02	216.49
387.40	216.43
387.78	216.41
388.15	216.41
388.53	216.37
388.91	216.30
389.29	216.24
389.66	216.24
390.04	216.20
390.42	216.22
390.79	216.20
391.17	216.20
391.55	215.94
391.92	215.97
392.30	215.98
392.68	215.93
393.05	215.87
393.43	215.88
393.81	215.90
394.18	215.88
394.56	215.85
394.94	215.89
395.31	215.89
395.69	215.99
396.06	215.99
396.44	216.06
396.82	216.04
397.19	216.15
397.57	216.13
397.95	216.17
398.32	216.10
398.70	216.16
399.07	216.21
399.45	216.25
399.82	216.29
400.20	216.35
400.58	216.40
400.95	216.40
401.33	216.51
401.70	216.72
402.08	216.82
402.45	216.93
402.83	217.06
403.20	217.18
403.58	217.25
403.95	217.40
404.33	217.52
404.71	217.67
405.08	217.94
405.46	218.11
405.83	218.30
406.21	218.51
406.58	218.72
406.96	218.94
407.33	219.21
407.70	219.48
408.08	219.90
408.45	220.26
408.83	220.62
409.20	220.95
409.58	221.20
409.95	221.65
410.33	222.09
410.70	222.49
411.08	223.07
411.45	223.61
411.82	224.18
412.20	224.84
412.57	225.66
412.95	226.18
413.32	227.01
413.69	227.82
414.07	228.71
414.44	229.67
414.82	230.65
415.19	231.79
415.56	232.97
415.94	234.09
416.31	235.41
416.68	236.78
417.06	238.29
417.43	239.78
417.81	241.42
418.18	243.13
418.55	245.00
418.93	246.92
419.30	248.98
419.67	251.11
420.04	253.33
420.42	255.64
420.79	258.38
421.16	261.04
421.54	263.88
421.91	266.77
422.28	269.75
422.66	272.98
423.03	276.15
423.40	279.37
423.77	282.82
424.15	286.37
424.52	290.06
424.89	294.11
425.26	298.08
425.64	301.87
426.01	305.98
426.38	310.33
426.75	314.71
427.13	319.27
427.50	324.07
427.87	329.05
428.24	334.06
428.61	338.89
428.99	344.22
429.36	350.02
429.73	355.68
430.10	361.37
430.47	367.22
430.85	373.33
431.22	379.77
431.59	386.64
431.96	393.23
432.33	400.48
432.70	407.51
433.08	415.72
433.45	423.43
433.82	431.21
434.19	439.75
434.56	448.06
434.93	456.07
435.30	464.06
435.68	472.90
436.05	481.55
436.42	490.10
436.79	497.95
437.16	506.38
437.53	515.37
437.90	524.13
438.27	532.74
438.64	541.54
439.01	549.82
439.38	557.18
439.75	564.23
440.13	572.42
440.50	580.07
440.87	586.23
441.24	592.63
441.61	599.71
441.98	604.92
442.35	611.12
442.72	617.23
443.09	623.08
443.46	626.64
443.83	629.01
444.20	631.05
444.57	634.02
444.94	635.36
445.31	636.65
445.68	638.03
446.05	638.53
446.42	637.79
446.79	636.80
447.16	635.72
447.53	634.97
447.90	631.63
448.27	628.38
448.64	623.85
449.01	620.57
449.37	614.86
449.74	609.38
450.11	602.70
450.48	595.54
450.85	588.34
451.22	582.08
451.59	576.18
451.96	570.56
452.33	563.00
452.70	556.17
453.07	548.02
453.43	539.69
453.80	531.77
454.17	524.03
454.54	516.80
454.91	508.91
455.28	501.27
455.65	494.21
456.02	487.05
456.38	481.02
456.75	473.55
457.12	467.26
457.49	460.96
457.86	455.03
458.23	449.94
458.59	444.22
458.96	438.47
459.33	433.42
459.70	428.36
460.07	424.31
460.43	419.62
460.80	415.23
461.17	411.41
461.54	407.42
461.91	403.57
462.27	399.61
462.64	396.31
463.01	392.65
463.38	389.07
463.74	385.47
464.11	382.37
464.48	379.67
464.85	376.63
465.21	374.28
465.58	371.68
465.95	368.62
466.32	366.14
466.68	363.65
467.05	361.13
467.42	358.65
467.78	356.04
468.15	353.61
468.52	351.78
468.88	349.39
469.25	347.19
469.62	345.50
469.98	343.65
470.35	341.86
470.72	340.25
471.08	338.52
471.45	337.13
471.82	335.68
472.18	334.07
472.55	332.98
472.92	331.71
473.28	330.61
473.65	329.51
474.02	328.42
474.38	327.55
474.75	326.90
475.11	326.10
475.48	325.57
475.85	325.15
476.21	324.66
476.58	324.32
476.94	324.18
477.31	323.89
477.67	323.67
478.04	323.64
478.41	323.63
478.77	323.80
479.14	323.76
479.50	323.90
479.87	324.22
480.23	324.55
480.60	324.80
480.96	325.11
481.33	325.74
481.69	326.34
482.06	326.85
482.42	327.34
482.79	327.96
483.15	328.74
483.52	329.75
483.88	330.70
484.25	331.70
484.61	332.71
484.98	333.75
485.34	335.03
485.71	336.41
486.07	337.83
486.44	339.17
486.80	340.80
487.17	342.48
487.53	344.32
487.90	346.18
488.26	348.25
488.62	350.42
488.99	352.44
489.35	354.60
489.72	357.04
490.08	359.57
490.44	362.16
490.81	364.86
491.17	367.50
491.54	370.45
491.90	373.49
492.26	376.75
492.63	380.20
492.99	383.73
493.36	387.38
493.72	391.22
494.08	395.22
494.45	399.41
494.81	403.72
495.17	408.18
495.54	412.87
495.90	417.64
496.26	422.52
496.63	427.72
496.99	433.10
497.35	438.61
497.72	444.42
498.08	450.34
498.44	456.47
498.80	462.91
499.17	469.44
499.53	476.15
499.89	482.97
500.26	489.93
500.62	497.02
500.98	504.43
501.34	511.95
501.71	519.65
502.07	527.44
502.43	535.49
502.79	543.53
503.16	551.84
503.52	560.40
503.88	569.16
504.24	578.10
504.60	587.14
504.97	596.43
505.33	605.72
505.69	615.61
506.05	625.41
506.41	635.16
506.78	645.08
507.14	655.31
507.50	665.77
507.86	676.44
508.22	687.18
508.59	697.80
508.95	708.83
509.31	720.18
509.67	731.55
510.03	742.90
510.39	754.66
510.75	766.52
511.12	778.42
511.48	790.43
511.84	802.57
512.20	814.87
512.56	827.39
512.92	839.97
513.28	852.43
513.64	865.10
514.00	877.95
514.37	890.84
514.73	903.72
515.09	916.59
515.45	929.32
515.81	942.21
516.17	955.42
516.53	968.46
516.89	981.36
517.25	994.44
517.61	1007.76
517.97	1020.94
518.33	1033.98
518.69	1047.34
519.05	1060.85
519.41	1074.36
519.77	1088.06
520.13	1101.18
520.49	1114.23
520.85	1127.41
521.21	1140.55
521.57	1153.92
521.93	1166.87
522.29	1180.48
522.65	1193.93
523.01	1207.43
523.37	1220.32
523.73	1233.38
524.09	1246.27
524.45	1259.48
524.81	1272.69
525.17	1285.83
525.53	1298.73
525.89	1311.74
526.25	1324.58
526.61	1337.20
526.97	1349.99
527.33	1362.61
527.68	1375.77
528.04	1389.00
528.40	1401.93
528.76	1415.11
529.12	1427.76
529.48	1440.71
529.84	1452.80
530.20	1465.22
530.56	1477.59
530.91	1490.66
531.27	1503.26
531.63	1515.88
531.99	1528.43
532.35	1540.36
532.71	1552.45
533.07	1565.01
533.42	1576.91
533.78	1588.75
534.14	1600.50
534.50	1611.58
534.86	1622.93
535.21	1633.63
535.57	1644.73
535.93	1655.82
536.29	1666.68
536.65	1677.80
537.00	1688.56
537.36	1699.54
537.72	1710.31
538.08	1721.13
538.44	1731.74
538.79	1742.52
539.15	1752.90
539.51	1763.15
539.87	1774.21
540.22	1784.77
540.58	1795.36
540.94	1805.98
541.29	1815.82
541.65	1825.23
542.01	1835.45
542.37	1845.17
542.72	1855.04
543.08	1864.63
543.44	1874.73
543.79	1883.63
544.15	1892.89
544.51	1902.72
544.87	1912.32
545.22	1921.17
545.58	1929.91
545.94	1938.50
546.29	1946.80
546.65	1954.88
547.01	1962.99
547.36	1970.48
547.72	1977.83
548.07	1985.32
548.43	1992.80
548.79	2000.53
549.14	2008.54
549.50	2016.52
549.86	2024.10
550.21	2031.29
550.57	2038.56
550.92	2045.17
551.28	2052.35
551.64	2059.49
551.99	2066.73
552.35	2073.63
552.70	2080.26
553.06	2086.74
553.41	2092.81
553.77	2098.97
554.13	2105.23
554.48	2111.93
554.84	2118.81
555.19	2125.29
555.55	2131.62
555.90	2137.70
556.26	2144.34
556.61	2150.22
556.97	2155.12
557.32	2160.94
557.68	2167.29
558.03	2173.14
558.39	2178.21
558.74	2184.25
559.10	2189.69
559.45	2195.16
559.81	2200.70
560.16	2206.29
560.52	2212.09
560.87	2218.57
561.23	2224.65
561.58	2231.40
561.94	2236.74
562.29	2241.47
562.64	2247.70
563.00	2253.29
563.35	2259.07
563.71	2264.93
564.06	2270.51
564.42	2276.51
564.77	2281.76
565.12	2286.83
565.48	2292.06
565.83	2297.57
566.19	2303.19
566.54	2308.60
566.89	2313.18
567.25	2317.78
567.60	2323.39
567.96	2328.70
568.31	2333.19
568.66	2337.52
569.02	2341.33
569.37	2345.20
569.72	2349.63
570.08	2353.13
570.43	2356.24
570.78	2359.27
571.14	2361.95
571.49	2365.29
571.84	2368.83
572.20	2371.54
572.55	2374.82
572.90	2377.06
573.26	2380.25
573.61	2382.60
573.96	2384.85
574.31	2387.01
574.67	2389.14
575.02	2390.24
575.37	2391.75
575.72	2392.75
576.08	2394.38
576.43	2394.82
576.78	2395.73
577.13	2397.82
577.49	2399.08
577.84	2400.72
578.19	2402.33
578.54	2403.11
578.90	2404.18
579.25	2404.33
579.60	2404.72
579.95	2404.19
580.30	2404.67
580.66	2404.15
581.01	2402.74
581.36	2400.84
581.71	2399.66
582.06	2398.83
582.42	2398.18
582.77	2396.40
583.12	2395.19
583.47	2394.19
583.82	2393.88
584.17	2392.66
584.53	2390.54
584.88	2388.75
585.23	2386.91
585.58	2384.81
585.93	2382.75
586.28	2380.80
586.63	2378.55
586.98	2376.44
587.34	2374.68
587.69	2372.60
588.04	2370.75
588.39	2369.53
588.74	2367.06
589.09	2364.81
589.44	2361.92
589.79	2359.73
590.14	2357.90
590.49	2355.09
590.84	2351.36
591.19	2348.72
591.54	2345.61
591.89	2341.64
592.25	2338.57
592.60	2334.39
592.95	2330.50
593.30	2326.51
593.65	2322.11
594.00	2318.02
594.35	2315.05
594.70	2310.53
595.05	2305.93
595.40	2300.60
595.75	2295.15
596.10	2291.73
596.45	2286.78
596.80	2282.27
597.15	2277.03
597.50	2271.30
597.85	2266.55
598.19	2261.41
598.54	2255.39
598.89	2250.47
599.24	2246.20
599.59	2240.17
599.94	2234.86
600.29	2229.04
600.64	2223.30
600.99	2216.80
601.34	2211.47
601.69	2204.52
602.04	2198.28
602.39	2191.85
602.74	2186.00
603.08	2180.46
603.43	2173.99
603.78	2167.35
604.13	2160.30
604.48	2153.41
604.83	2147.35
605.18	2141.07
605.53	2134.26
605.87	2127.43
606.22	2120.72
606.57	2112.88
606.92	2105.18
607.27	2098.14
607.62	2091.70
607.96	2084.86
608.31	2078.31
608.66	2070.54
609.01	2063.06
609.36	2056.03
609.70	2048.31
610.05	2040.54
610.40	2032.29
610.75	2024.04
611.10	2016.58
611.44	2007.96
611.79	1999.11
612.14	1989.11
612.49	1978.64
612.83	1969.68
613.18	1960.59
613.53	1951.08
613.88	1941.47
614.22	1932.86
614.57	1922.85
614.92	1912.28
615.27	1902.24
615.61	1892.52
615.96	1882.81
616.31	1873.41
616.65	1863.96
617.00	1854.06
617.35	1844.46
617.70	1834.79
618.04	1824.76
618.39	1814.25
618.74	1804.53
619.08	1794.89
619.43	1786.32
619.78	1778.17
620.12	1769.19
620.47	1759.18
620.82	1748.92
621.16	1739.16
621.51	1729.16
621.85	1719.24
622.20	1708.68
622.55	1698.05
622.89	1688.01
623.24	1678.32
623.59	1668.57
623.93	1658.41
624.28	1648.91
624.62	1638.61
624.97	1628.24
625.32	1618.70
625.66	1609.93
626.01	1600.91
626.35	1591.46
626.70	1581.28
627.04	1570.95
627.39	1560.88
627.73	1551.85
628.08	1542.75
628.43	1533.13
628.77	1523.78
629.12	1515.01
629.46	1507.12
629.81	1498.64
630.15	1489.00
630.50	1479.26
630.84	1468.76
631.19	1458.82
631.53	1449.19
631.88	1439.06
632.22	1429.06
632.57	1419.63
632.91	1409.41
633.26	1399.68
633.60	1390.20
633.95	1380.83
634.29	1371.48
634.64	1362.06
634.98	1352.06
635.32	1342.87
635.67	1334.35
636.01	1325.18
636.36	1315.37
636.70	1305.85
637.05	1296.59
637.39	1287.53
637.73	1278.81
638.08	1271.16
638.42	1262.92
638.77	1254.18
639.11	1245.96
639.45	1238.15
639.80	1229.35
640.14	1220.71
640.49	1211.76
640.83	1202.92
641.17	1194.87
641.52	1186.53
641.86	1178.01
642.20	1170.14
642.55	1161.40
642.89	1152.57
643.23	1143.78
643.58	1135.60
643.92	1126.59
644.26	1117.86
644.61	1109.55
644.95	1100.67
645.29	1091.29
645.64	1082.09
645.98	1073.78
646.32	1065.90
646.66	1057.34
647.01	1049.00
647.35	1040.79
647.69	1032.43
648.04	1024.07
648.38	1015.03
648.72	1006.36
649.06	997.92
649.41	989.72
649.75	981.76
650.09	973.82
650.43	965.82
650.78	957.62
651.12	949.93
651.46	942.52
651.80	935.19
652.14	927.94
652.49	920.52
652.83	913.16
653.17	905.32
653.51	897.56
653.85	890.35
654.20	883.07
654.54	875.52
654.88	868.39
655.22	861.20
655.56	854.26
655.90	847.53
656.25	840.82
656.59	833.82
656.93	826.88
657.27	819.81
657.61	812.97
657.95	806.91
658.29	801.08
658.64	794.93
658.98	788.52
659.32	781.91
659.66	775.74
660.00	769.52
660.34	763.55
660.68	757.57
661.02	751.28
661.36	745.49
661.70	739.81
662.05	734.12
662.39	728.67
662.73	723.39
663.07	718.01
663.41	712.45
663.75	706.85
664.09	701.27
664.43	696.00
664.77	690.64
665.11	684.87
665.45	678.96
665.79	673.23
666.13	667.59
666.47	662.15
666.81	656.80
667.15	651.60
667.49	646.52
667.83	641.27
668.17	636.09
668.51	630.98
668.85	626.10
669.19	621.27
669.53	616.36
669.87	611.28
670.21	606.55
670.55	601.84
670.89	597.54
671.23	593.31
671.57	588.89
671.91	584.70
672.25	580.61
672.58	576.51
672.92	572.52
673.26	568.66
673.60	564.90
673.94	561.08
674.28	557.37
674.62	553.63
674.96	549.90
675.30	546.44
675.64	542.83
675.97	539.32
676.31	535.78
676.65	532.19
676.99	528.78
677.33	524.97
677.67	521.39
678.01	517.57
678.34	513.92
678.68	510.46
679.02	506.81
679.36	503.14
679.70	499.60
680.04	496.12
680.37	492.70
680.71	489.48
681.05	486.36
681.39	483.21
681.73	480.09
682.06	477.14
682.40	474.06
682.74	470.88
683.08	467.73
683.42	464.57
683.75	461.64
684.09	458.63
684.43	455.88
684.77	453.03
685.10	450.23
685.44	447.38
685.78	444.48
686.12	441.86
686.45	439.18
686.79	436.55
687.13	434.04
687.46	431.45
687.80	428.77
688.14	425.99
688.48	423.38
688.81	420.80
689.15	418.33
689.49	415.79
689.82	413.35
690.16	410.78
690.50	408.41
690.83	405.93
691.17	403.52
691.51	401.14
691.84	398.93
692.18	396.78
692.52	394.62
692.85	392.55
693.19	390.39
693.52	388.26
693.86	386.11
694.20	384.02
694.53	381.92
694.87	379.74
695.21	377.63
695.54	375.52
695.88	373.39
696.21	371.21
696.55	369.13
696.88	367.08
697.22	365.13
697.56	363.32
697.89	361.55
698.23	359.83
698.56	358.10
698.90	356.35
699.23	354.41
699.57	352.57
699.90	350.72
700.24	348.95
700.58	347.25
700.91	345.65
701.25	344.12
701.58	342.55
701.92	340.99
702.25	339.45
702.59	337.92
702.92	336.43
703.26	334.94
703.59	333.50
703.93	332.31
704.26	330.93
704.60	329.39
704.93	327.88
705.26	326.37
705.60	324.90
705.93	323.43
706.27	322.18
706.60	320.99
706.94	319.82
707.27	318.42
707.61	317.16
707.94	315.81
708.27	314.30
708.61	312.90
708.94	311.59
709.28	310.34
709.61	309.09
709.94	307.89
710.28	306.69
710.61	305.53
710.95	304.13
711.28	303.09
711.61	301.96
711.95	300.86
712.28	299.74
712.61	298.63
712.95	297.67
713.28	296.66
713.61	295.49
713.95	294.39
714.28	293.45
714.61	292.39
714.95	291.41
715.28	290.44
715.61	289.47
715.95	288.54
716.28	287.62
716.61	286.68
716.95	285.70
717.28	284.80
717.61	283.88
717.94	282.99
718.28	281.99
718.61	281.12
718.94	280.24
719.27	279.39
719.61	278.60
719.94	277.68
720.27	276.75
720.60	275.91
720.94	275.15
721.27	274.44
721.60	273.80
721.93	273.09
722.27	272.47
722.60	271.83
722.93	271.12
723.26	270.45
723.59	269.82
723.93	269.23
724.26	268.63
724.59	268.01
724.92	267.46
725.25	266.94
725.59	266.40
725.92	265.92
726.25	265.36
726.58	264.77
726.91	264.23
727.24	263.73
727.57	263.22
727.91	262.59
728.24	262.06
728.57	261.43
728.90	260.92
729.23	260.31
729.56	259.89
729.89	259.38
730.22	258.86
730.55	258.34
730.89	257.84
731.22	257.28
731.55	256.79
731.88	256.27
732.21	255.74
732.54	255.19
732.87	254.66
733.20	254.22
733.53	253.76
733.86	253.30
734.19	252.81
734.52	252.42
734.85	252.16
735.18	251.71
735.51	251.37
735.84	250.96
736.17	250.60
736.50	250.08
736.83	249.95
737.16	249.58
737.49	249.18
737.82	248.74
738.15	248.42
738.48	248.06
738.81	247.69
739.14	247.28
739.47	246.91
739.80	246.56
740.13	246.22
740.46	245.83
740.79	245.48
741.12	245.15
741.45	244.75
741.78	244.33
742.11	243.99
742.44	243.63
742.77	243.30
743.10	242.97
743.43	242.60
743.75	242.03
744.08	241.93
744.41	241.61
744.74	241.30
745.07	240.92
745.40	240.62
745.73	240.39
746.06	240.09
746.39	239.84
746.71	239.50
747.04	239.15
747.37	238.82
747.70	238.54
748.03	238.20
748.36	237.95
748.68	237.64
749.01	237.35
749.34	237.04
749.67	236.75
750.00	236.46
750.33	236.36
750.65	236.13
750.98	235.63
751.31	235.38
751.64	235.14
751.97	235.00
752.29	234.75
752.62	234.42
752.95	234.17
753.28	233.88
753.60	233.64
753.93	233.52
754.26	233.30
754.59	233.05
754.91	232.85
755.24	232.63
755.57	232.39
755.90	232.18
756.22	231.97
756.55	231.75
756.88	231.52
757.20	231.20
757.53	230.92
757.86	230.73
758.19	230.55
758.51	230.36
758.84	230.09
759.17	229.88
759.49	229.71
759.82	229.63
760.15	229.48
760.47	229.30
760.80	229.02
761.13	228.86
761.45	228.66
761.78	228.49
762.11	228.31
762.43	228.14
762.76	227.95
763.08	227.80
763.41	227.66
763.74	227.53
764.06	227.38
764.39	227.27
764.71	227.12
765.04	226.95
765.37	226.82
765.69	226.64
766.02	226.54
766.34	226.38
766.67	226.14
767.00	226.06
767.32	226.05
767.65	226.04
767.97	225.94
768.30	225.83
768.62	225.69
768.95	225.55
769.27	225.43
769.60	225.35
769.92	225.20
770.25	225.03
770.57	224.83
770.90	224.70
771.22	224.58
771.55	224.48
771.87	224.36
772.20	224.23
772.52	224.29
772.85	224.39
773.17	224.32
773.50	224.25
773.82	224.13
774.15	223.91
774.47	223.69
774.80	223.56
775.12	223.46
775.45	223.39
775.77	223.30
776.09	223.25
776.42	223.14
776.74	223.15
777.07	223.07
777.39	223.00
777.72	222.92
778.04	222.87
778.36	222.78
778.69	222.72
779.01	222.63
779.33	222.40
779.66	222.08
779.98	221.96
780.31	221.86
780.63	221.84
780.95	221.82
781.28	221.77
781.60	221.71
781.92	221.65
782.25	221.60
782.57	221.54
782.89	221.45
783.22	221.35
783.54	221.20
783.86	221.18
784.19	221.09
784.51	221.07
784.83	220.96
785.16	220.87
785.48	220.81
785.80	220.77
786.12	220.72
786.45	220.67
786.77	220.65
787.09	220.63
787.42	220.53
787.74	220.49
788.06	220.44
788.38	220.37
788.71	220.28
789.03	220.23
789.35	220.18
789.67	220.12
789.99	220.08
790.32	220.05
790.64	220.00
790.96	220.15
791.28	220.04
791.61	219.98
791.93	219.97
792.25	219.91
792.57	219.99
792.89	219.90
793.21	219.82
793.54	219.74
793.86	219.65
794.18	219.63
794.50	219.52
794.82	219.50
795.14	219.49
795.47	219.49
795.79	219.44
796.11	219.37
796.43	219.31
796.75	219.25
797.07	219.19
797.39	219.16
797.71	218.97
798.04	218.97
798.36	218.95
798.68	218.89
799.00	218.89
799.32	218.75
799.64	218.77
799.96	218.79
800.28	218.77
800.60	218.73
800.92	218.70
801.24	218.67
801.56	218.62
801.89	218.54
802.21	218.54
802.53	218.47
802.85	218.49
803.17	218.56
803.49	218.50
803.81	218.47
804.13	218.41
804.45	218.37
804.77	218.31
805.09	218.29
805.41	218.26
805.73	218.14
806.05	218.07
806.37	218.01
806.69	217.97
807.01	217.93
807.33	217.89
807.65	217.78
807.97	217.84
808.28	217.79
808.60	217.79
808.92	217.70
809.24	217.82
809.56	217.73
809.88	217.64
810.20	217.64
810.52	217.66
810.84	217.62
811.16	217.59
811.48	217.56
811.80	217.60
812.12	217.58
812.43	217.62
812.75	217.64
813.07	217.61
813.39	217.58
813.71	217.56
814.03	217.56
814.35	217.55
814.67	217.44
814.98	217.43
815.30	217.39
815.62	217.37
815.94	217.21
816.26	217.25
816.58	217.21
816.89	217.20
817.21	217.11
817.53	217.10
817.85	217.10
818.17	217.08
818.48	216.97
818.80	216.99
819.12	216.94
819.44	216.91
819.76	216.88
820.07	216.84
820.39	216.80
820.71	216.81
821.03	216.78
821.34	216.76
821.66	216.77
821.98	216.76
822.30	216.73
822.61	216.84
822.93	216.78
823.25	216.74
823.57	216.74
823.88	216.76
824.20	216.71
824.52	216.74
824.83	216.74
825.15	216.72
825.47	216.67
825.79	216.65
826.10	216.58
826.42	216.57
826.74	216.59
827.05	216.60
827.37	216.58
827.69	216.53
828.00	216.55
828.32	216.49
828.64	216.47
828.95	216.55
829.27	216.48
829.58	216.49
829.90	216.51
830.22	216.48
830.53	216.43
830.85	216.42
831.17	216.35
831.48	216.35
831.80	216.34
832.11	216.31
832.43	216.32
832.75	216.34
833.06	216.42
833.38	216.35
833.69	216.30
834.01	216.31
834.32	216.31
834.64	216.31
834.96	216.32
835.27	216.33
835.59	216.25
835.90	216.18
836.22	216.16
836.53	216.09
836.85	216.05
837.16	216.26
837.48	216.27
837.79	216.29
838.11	216.27
838.42	216.28
838.74	216.32
839.05	216.28
839.37	216.27
839.68	216.14
840.00	216.14
840.31	216.18
840.63	216.11
840.94	216.08
841.26	216.03
841.57	216.02
841.88	216.02
842.20	216.01
842.51	215.99
842.83	215.97
843.14	216.17
843.46	216.22
843.77	216.09
844.08	216.12
844.40	216.09
844.71	216.06
845.03	216.08
845.34	216.03
845.65	216.03
845.97	216.02
846.28	216.07
846.60	216.08
846.91	216.04
847.22	216.12
847.54	216.16
847.85	216.17
848.16	216.12
848.48	216.08
848.79	216.13
849.10	216.15
849.42	216.19
849.73	216.00
850.04	215.94
850.36	215.87
850.67	215.85
850.98	215.84
851.30	215.90
851.61	215.86
851.92	215.89
852.23	215.95
852.55	215.95
852.86	215.94
853.17	215.96
853.49	215.98
853.80	215.98
854.11	216.00
854.42	216.02
854.74	216.05
855.05	216.06
855.36	216.00
855.67	216.02
855.99	216.01
856.30	216.23
856.61	216.21
856.92	216.21
857.23	216.22
857.55	216.16
857.86	216.10
858.17	216.09
858.48	216.03
858.79	215.98
859.11	216.01
859.42	216.00
859.73	216.00
860.04	216.00
860.35	215.93
860.66	215.87
860.98	215.85
861.29	215.86
861.60	215.84
861.91	215.86
862.22	215.83
862.53	215.82
862.84	215.59
863.16	215.68
863.47	215.66
863.78	215.62
864.09	215.69
864.40	215.72
864.71	215.75
865.02	215.77
865.33	215.73
865.64	215.67
865.95	215.63
866.27	215.73
866.58	215.69
866.89	215.72
867.20	215.72
867.51	215.70
867.82	215.66
868.13	215.70
868.44	215.63
868.75	215.64
869.06	215.62
869.37	215.62
869.68	215.52
869.99	215.55
870.30	215.54
870.61	215.52
870.92	215.47
871.23	215.45
871.54	215.50
871.85	215.55
872.16	215.57
872.47	215.57
872.78	215.44
873.09	215.46
873.40	215.44
873.71	215.44
874.02	215.40
874.33	215.38
874.64	215.38
874.95	215.42
875.26	215.38
875.56	215.38
875.87	215.37
876.18	215.37
876.49	215.55
876.80	215.56
877.11	215.53
877.42	215.55
877.73	215.55
878.04	215.50
878.35	215.49
878.66	215.52
878.96	215.51
879.27	215.50
879.58	215.49
879.89	215.43
880.20	215.50
880.51	215.52
880.82	215.53
881.12	215.51
881.43	215.45
881.74	215.47
882.05	215.43
882.36	215.46
882.67	215.46
882.97	215.24
883.28	215.22
883.59	215.22
883.90	215.23
884.21	215.28
884.51	215.24
884.82	215.19
885.13	215.15
885.44	215.15
885.74	215.17
886.05	215.16
886.36	215.22
886.67	215.12
886.98	215.20
887.28	215.19
887.59	215.20
887.90	215.25
888.20	215.21
888.51	215.25
888.82	215.22
889.13	215.25
889.43	215.44
889.74	215.42
890.05	215.43
890.35	215.39
890.66	215.32
890.97	215.34
891.28	215.35
891.58	215.39
891.89	215.38
892.20	215.34
892.50	215.31
892.81	215.26
893.12	215.29
893.42	215.21
893.73	215.27
894.04	215.26
894.34	215.25
894.65	215.25
894.95	215.24
895.26	215.24
895.57	215.32
895.87	215.13
896.18	215.17
896.48	215.18
896.79	215.21
897.10	215.25
897.40	215.25
897.71	215.27
898.01	215.27
898.32	215.29
898.63	215.31
898.93	215.33
899.24	215.37
899.54	215.38
899.85	215.37
900.15	215.33
900.46	215.33
900.76	215.32
901.07	215.34
901.38	215.31
901.68	215.33
901.99	215.23
902.29	215.22
902.60	215.20
902.90	215.19
903.21	215.19
903.51	215.18
903.82	215.22
904.12	215.22
904.43	215.20
904.73	215.21
905.03	215.20
905.34	215.39
905.64	215.37
905.95	215.35
906.25	215.36
906.56	215.34
906.86	215.34
907.17	215.35
907.47	215.38
907.77	215.35
908.08	215.35
908.38	215.37
908.69	215.44
908.99	215.49
909.30	215.50
909.60	215.46
909.90	215.47
910.21	215.41
910.51	215.38
910.81	215.39
911.12	215.37
911.42	215.38
911.73	215.14
912.03	215.16
912.33	215.21
912.64	215.21
912.94	215.21
913.24	215.16
913.55	215.13
913.85	215.09
914.15	215.13
914.46	215.16
914.76	215.10
915.06	215.05
915.37	214.98
915.67	214.95
915.97	214.98
916.27	214.93
916.58	214.96
916.88	214.91
917.18	214.90
917.49	215.06
917.79	215.05
918.09	215.09
918.39	215.13
918.70	215.11
919.00	215.08
919.30	215.14
919.60	215.13
919.91	215.11
920.21	215.12
920.51	215.09
920.81	215.05
921.12	215.09
921.42	215.08
921.72	215.12
922.02	215.13
922.32	215.13
922.63	215.12
922.93	215.22
923.23	215.27
923.53	215.24
923.83	215.10
924.13	215.12
924.44	215.13
924.74	215.15
925.04	215.19
925.34	215.25
925.64	215.19
925.94	215.18
926.24	215.28
926.55	215.24
926.85	215.24
927.15	215.23
927.45	215.25
927.75	215.24
928.05	215.22
928.35	215.20
928.65	215.23
928.95	215.25
929.26	215.16
929.56	215.18
929.86	215.24
930.16	215.20
930.46	215.16
930.76	215.17
931.06	215.08
931.36	214.99
931.66	214.97
931.96	215.01
932.26	215.06
932.56	214.99
932.86	215.02
933.16	215.03
933.46	215.04
933.76	215.03
934.06	215.07
934.36	215.11
934.66	215.09
934.96	215.07
935.26	215.09
935.56	215.12
935.86	215.07
936.16	214.98
936.46	214.98
936.76	214.99
937.06	214.94
937.36	214.96
937.66	214.99
937.96	214.97
938.26	214.92
938.56	214.89
938.86	214.93
939.16	215.00
939.46	215.03
939.76	215.05
940.06	215.03
940.35	215.00
940.65	214.91
940.95	214.94
941.25	214.88
941.55	214.86
941.85	214.85
942.15	214.90
942.45	215.03
942.75	215.03
943.04	215.03
943.34	215.07
943.64	215.06
943.94	215.02
944.24	215.02
944.54	215.02
944.84	215.03
945.13	214.98
945.43	214.93
945.73	214.92
946.03	214.87
946.33	214.82
946.62	214.82
946.92	214.83
947.22	214.86
947.52	214.90
947.82	214.92
948.11	214.89
948.41	214.85
948.71	214.74
949.01	214.74
949.31	214.73
949.60	214.73
949.90	214.75
950.20	214.75
950.50	214.76
950.79	214.74
951.09	214.78
951.39	214.79
951.69	214.77
951.98	214.80
952.28	214.81
952.58	214.85
952.87	214.82
953.17	214.84
953.47	214.78
953.76	214.77
954.06	214.70
954.36	214.67
954.66	214.67
954.95	214.76
955.25	214.77
955.55	214.79
955.84	214.74
956.14	214.75
956.44	214.76
956.73	214.74
957.03	214.74
957.32	214.71
957.62	214.67
957.92	214.71
958.21	214.69
958.51	214.96
958.81	214.97
959.10	215.00
959.40	215.06
959.69	215.10
959.99	215.14
960.29	215.18
960.58	215.16
960.88	215.23
961.17	215.19
961.47	215.19
961.76	215.15
962.06	215.21
962.36	215.17
962.65	215.20
962.95	215.21
963.24	215.19
963.54	215.18
963.83	215.23
964.13	215.21
964.42	215.16
964.72	214.98
965.01	214.98
965.31	214.97
965.60	214.91
965.90	215.01
966.19	214.91
966.49	214.93
966.78	214.96
967.08	214.93
967.37	214.91
967.67	214.90
967.96	214.92
968.26	214.92
968.55	214.98
968.85	214.95
969.14	214.96
969.43	214.96
969.73	214.97
970.02	214.95
970.32	214.92
970.61	214.91
970.91	214.84
971.20	214.79
971.49	214.80
971.79	214.82
972.08	214.69
972.38	214.73
972.67	214.72
972.96	214.76
973.26	214.74
973.55	214.79
973.85	214.77
974.14	214.77
974.43	214.76
974.73	214.68
975.02	214.67
975.31	214.67
975.61	214.67
975.90	214.66
976.19	214.64
976.49	214.69
976.78	214.70
977.07	214.69
977.37	214.75
977.66	214.76
977.95	214.74
978.24	214.74
978.54	214.81
978.83	214.79
979.12	214.75
979.42	214.74
979.71	214.72
980.00	214.75
980.29	214.75
980.59	214.75
980.88	214.83
981.17	214.84
981.46	214.82
981.76	214.83
982.05	214.86
982.34	214.84
982.63	214.78
982.93	214.77
983.22	214.82
983.51	214.79
983.80	214.81
984.09	214.84
984.39	214.85
984.68	214.79
984.97	214.78
985.26	214.75
985.55	214.77
985.85	214.75
986.14	214.79
986.43	214.82
986.72	214.79
987.01	214.73
987.30	214.69
987.59	214.69
987.89	214.67
988.18	214.65
988.47	214.68
988.76	214.66
989.05	214.65
989.34	214.65
989.63	214.72
989.92	214.70
990.22	214.68
990.51	214.66
990.80	214.66
991.09	214.71
991.38	214.76
991.67	214.74
991.96	214.71
992.25	214.69
992.54	214.64
992.83	214.64
993.12	214.63
993.41	214.70
993.70	214.80
993.99	214.83
994.28	214.87
994.58	214.89
994.87	214.94
995.16	214.95
995.45	214.91
995.74	214.85
996.03	214.87
996.32	214.88
996.61	214.92
996.90	214.92
997.19	214.89
997.48	214.87
997.77	214.83
998.06	214.82
998.34	214.80
998.63	214.82
998.92	214.82
999.21	214.85
999.50	214.84
999.79	214.76
1000.08	214.75
1000.37	214.74
1000.66	214.70
1000.95	214.74
1001.24	214.73
1001.53	214.75
1001.82	214.75
1002.11	214.70
1002.40	214.76
1002.68	214.81
1002.97	214.93
1003.26	214.91
1003.55	214.91
1003.84	214.95
1004.13	215.03
1004.42	215.06
1004.71	215.05
1004.99	215.04
1005.28	215.07
1005.57	215.07
1005.86	215.03
1006.15	215.03
1006.44	215.03
1006.72	215.09
1007.01	215.01
1007.30	215.01
1007.59	215.02
1007.88	215.00
1008.17	215.04
1008.45	214.93
1008.74	214.83
1009.03	214.75
1009.32	214.77
1009.60	214.75
1009.89	214.73
1010.18	214.66
1010.47	214.64
1010.76	214.61
1011.04	214.60
1011.33	214.60
1011.62	214.61
1011.91	214.65
1012.19	214.69
1012.48	214.66
1012.77	214.65
1013.05	214.77
1013.34	214.81
1013.63	214.79
1013.92	214.85
1014.20	214.84
1014.49	214.87
1014.78	214.93
1015.06	214.87
1015.35	214.85
1015.64	214.89
1015.92	214.95
1016.21	214.99
1016.50	214.98
1016.78	215.04
1017.07	215.09
1017.36	215.06
1017.64	215.05
1017.93	215.04
1018.22	215.03
1018.50	215.02
1018.79	215.02
1019.08	214.91
1019.36	214.87
1019.65	214.85
1019.93	214.87
1020.22	214.87
1020.51	214.98
1020.79	214.94
1021.08	215.03
1021.36	214.23
1021.65	214.90
1021.94	214.56
1022.22	214.49
1022.51	214.35
1022.79	215.75
1023.08	214.82
1023.36	217.23
1023.65	214.41
>>>>>End Processed Spectral Data<<<<<
