SpectraSuite Data File
++++++++++++++++++++++++++++++++++++
Date: Tue Jan 29 15:55:31 EST 2013
User: group
Dark Spectrum Present: No
Reference Spectrum Present: No
Number of Sampled Component Spectra: 1
Spectrometers: USB2E7196
Integration Time (usec): 65000 (USB2E7196)
Spectra Averaged: 100 (USB2E7196)
Boxcar Smoothing: 10 (USB2E7196)
Correct for Electrical Dark: No (USB2E7196)
Strobe/Lamp Enabled: No (USB2E7196)
Correct for Detector Non-linearity: No (USB2E7196)
Correct for Stray Light: No (USB2E7196)
Number of Pixels in Processed Spectrum: 2048
>>>>>Begin Processed Spectral Data<<<<<
339.09	0.00
339.48	203.17
339.86	204.18
340.24	205.63
340.63	206.93
341.01	211.81
341.39	210.18
341.78	211.19
342.16	212.83
342.54	213.46
342.93	202.20
343.31	212.42
343.69	212.96
344.07	213.45
344.46	213.93
344.84	214.34
345.22	214.52
345.60	214.81
345.99	215.04
346.37	215.18
346.75	215.30
347.13	215.41
347.52	215.49
347.90	215.64
348.28	215.71
348.66	215.81
349.05	215.81
349.43	215.89
349.81	215.98
350.19	216.05
350.57	216.12
350.96	216.21
351.34	216.33
351.72	216.45
352.10	216.59
352.48	216.64
352.87	216.70
353.25	216.77
353.63	216.81
354.01	216.86
354.39	216.95
354.77	217.01
355.15	217.11
355.54	217.14
355.92	217.12
356.30	217.19
356.68	217.37
357.06	217.48
357.44	217.53
357.82	217.57
358.20	217.65
358.58	217.68
358.97	217.76
359.35	217.83
359.73	217.89
360.11	217.91
360.49	217.97
360.87	218.03
361.25	218.07
361.63	218.16
362.01	218.24
362.39	218.28
362.77	218.33
363.15	218.33
363.53	218.37
363.91	218.36
364.29	218.34
364.67	218.17
365.05	218.13
365.43	218.15
365.81	218.17
366.19	218.26
366.57	218.32
366.95	218.28
367.33	218.23
367.71	218.23
368.09	218.26
368.47	218.23
368.85	218.23
369.23	218.28
369.61	218.19
369.99	218.23
370.37	218.22
370.75	218.27
371.13	218.25
371.51	218.16
371.89	218.19
372.27	218.18
372.65	218.16
373.03	218.17
373.41	218.14
373.78	218.07
374.16	217.92
374.54	217.82
374.92	217.80
375.30	217.76
375.68	217.68
376.06	217.63
376.44	217.59
376.82	217.54
377.19	217.47
377.57	217.45
377.95	217.30
378.33	217.21
378.71	217.05
379.09	217.02
379.47	217.03
379.84	216.97
380.22	216.90
380.60	216.83
380.98	216.72
381.36	216.66
381.73	216.63
382.11	216.65
382.49	216.62
382.87	216.53
383.25	216.50
383.62	216.72
384.00	216.64
384.38	216.61
384.76	216.62
385.13	216.65
385.51	216.60
385.89	216.58
386.27	216.61
386.64	216.61
387.02	216.57
387.40	216.50
387.78	216.48
388.15	216.46
388.53	216.43
388.91	216.46
389.29	216.44
389.66	216.43
390.04	216.36
390.42	216.41
390.79	216.41
391.17	216.40
391.55	216.15
391.92	216.15
392.30	216.16
392.68	216.08
393.05	216.07
393.43	216.08
393.81	216.07
394.18	216.00
394.56	216.00
394.94	216.04
395.31	216.02
395.69	216.10
396.06	216.17
396.44	216.18
396.82	216.17
397.19	216.30
397.57	216.31
397.95	216.37
398.32	216.32
398.70	216.39
399.07	216.45
399.45	216.46
399.82	216.50
400.20	216.52
400.58	216.60
400.95	216.57
401.33	216.68
401.70	216.89
402.08	217.00
402.45	217.08
402.83	217.21
403.20	217.36
403.58	217.44
403.95	217.55
404.33	217.71
404.71	217.85
405.08	218.08
405.46	218.22
405.83	218.39
406.21	218.61
406.58	218.82
406.96	219.03
407.33	219.32
407.70	219.59
408.08	220.05
408.45	220.38
408.83	220.76
409.20	221.04
409.58	221.29
409.95	221.73
410.33	222.18
410.70	222.57
411.08	223.10
411.45	223.65
411.82	224.22
412.20	224.88
412.57	225.68
412.95	226.22
413.32	227.07
413.69	227.87
414.07	228.70
414.44	229.61
414.82	230.61
415.19	231.73
415.56	232.86
415.94	233.99
416.31	235.35
416.68	236.68
417.06	238.23
417.43	239.71
417.81	241.38
418.18	243.10
418.55	245.00
418.93	246.90
419.30	248.91
419.67	251.01
420.04	253.20
420.42	255.48
420.79	258.18
421.16	260.84
421.54	263.63
421.91	266.50
422.28	269.51
422.66	272.66
423.03	275.79
423.40	279.04
423.77	282.48
424.15	285.95
424.52	289.63
424.89	293.62
425.26	297.53
425.64	301.24
426.01	305.38
426.38	309.62
426.75	313.96
427.13	318.47
427.50	323.25
427.87	328.20
428.24	333.17
428.61	337.96
428.99	343.23
429.36	349.00
429.73	354.67
430.10	360.29
430.47	366.08
430.85	372.11
431.22	378.49
431.59	385.31
431.96	391.86
432.33	399.09
432.70	406.07
433.08	414.28
433.45	421.96
433.82	429.64
434.19	438.19
434.56	446.52
434.93	454.52
435.30	462.41
435.68	471.21
436.05	479.82
436.42	488.30
436.79	496.08
437.16	504.45
437.53	513.31
437.90	522.11
438.27	530.72
438.64	539.56
439.01	547.78
439.38	555.09
439.75	562.13
440.13	570.18
440.50	577.81
440.87	583.91
441.24	590.26
441.61	597.24
441.98	602.42
442.35	608.54
442.72	614.57
443.09	620.42
443.46	623.97
443.83	626.35
444.20	628.53
444.57	631.55
444.94	632.91
445.31	634.24
445.68	635.52
446.05	636.10
446.42	635.34
446.79	634.35
447.16	633.34
447.53	632.54
447.90	629.32
448.27	626.12
448.64	621.67
449.01	618.53
449.37	612.88
449.74	607.41
450.11	600.78
450.48	593.69
450.85	586.52
451.22	580.31
451.59	574.45
451.96	568.80
452.33	561.19
452.70	554.38
453.07	546.28
453.43	538.09
453.80	530.14
454.17	522.49
454.54	515.28
454.91	507.40
455.28	499.78
455.65	492.71
456.02	485.59
456.38	479.55
456.75	472.08
457.12	465.85
457.49	459.62
457.86	453.73
458.23	448.63
458.59	443.01
458.96	437.33
459.33	432.27
459.70	427.17
460.07	423.19
460.43	418.62
460.80	414.29
461.17	410.44
461.54	406.46
461.91	402.63
462.27	398.75
462.64	395.48
463.01	391.91
463.38	388.34
463.74	384.81
464.11	381.71
464.48	378.97
464.85	375.97
465.21	373.65
465.58	371.11
465.95	368.12
466.32	365.62
466.68	363.12
467.05	360.61
467.42	358.23
467.78	355.69
468.15	353.23
468.52	351.45
468.88	349.10
469.25	346.96
469.62	345.27
469.98	343.40
470.35	341.68
470.72	340.09
471.08	338.47
471.45	337.05
471.82	335.65
472.18	334.14
472.55	333.06
472.92	331.77
473.28	330.61
473.65	329.56
474.02	328.54
474.38	327.69
474.75	327.04
475.11	326.25
475.48	325.76
475.85	325.33
476.21	324.83
476.58	324.51
476.94	324.35
477.31	324.11
477.67	323.90
478.04	323.77
478.41	323.72
478.77	323.93
479.14	323.87
479.50	324.03
479.87	324.27
480.23	324.56
480.60	324.78
480.96	325.17
481.33	325.77
481.69	326.38
482.06	326.93
482.42	327.38
482.79	328.00
483.15	328.78
483.52	329.78
483.88	330.70
484.25	331.65
484.61	332.63
484.98	333.63
485.34	334.98
485.71	336.34
486.07	337.83
486.44	339.11
486.80	340.72
487.17	342.38
487.53	344.17
487.90	346.01
488.26	348.08
488.62	350.19
488.99	352.19
489.35	354.30
489.72	356.69
490.08	359.22
490.44	361.79
490.81	364.48
491.17	367.18
491.54	370.15
491.90	373.17
492.26	376.46
492.63	379.91
492.99	383.38
493.36	387.10
493.72	390.97
494.08	395.04
494.45	399.22
494.81	403.56
495.17	408.00
495.54	412.72
495.90	417.52
496.26	422.43
496.63	427.66
496.99	433.07
497.35	438.58
497.72	444.38
498.08	450.30
498.44	456.36
498.80	462.71
499.17	469.19
499.53	475.82
499.89	482.67
500.26	489.63
500.62	496.66
500.98	503.99
501.34	511.40
501.71	519.07
502.07	526.85
502.43	534.82
502.79	542.97
503.16	551.32
503.52	559.88
503.88	568.60
504.24	577.55
504.60	586.56
504.97	595.71
505.33	604.91
505.69	614.73
506.05	624.58
506.41	634.36
506.78	644.40
507.14	654.66
507.50	665.09
507.86	675.72
508.22	686.41
508.59	696.98
508.95	707.92
509.31	719.07
509.67	730.52
510.03	741.86
510.39	753.61
510.75	765.38
511.12	777.16
511.48	789.05
511.84	801.19
512.20	813.35
512.56	825.91
512.92	838.62
513.28	851.16
513.64	863.82
514.00	876.51
514.37	889.28
514.73	902.22
515.09	914.99
515.45	927.67
515.81	940.56
516.17	953.77
516.53	966.84
516.89	979.70
517.25	992.65
517.61	1005.86
517.97	1018.83
518.33	1031.68
518.69	1045.05
519.05	1058.55
519.41	1071.98
519.77	1085.68
520.13	1098.79
520.49	1111.76
520.85	1124.89
521.21	1137.90
521.57	1151.41
521.93	1164.33
522.29	1177.82
522.65	1191.25
523.01	1204.63
523.37	1217.61
523.73	1230.67
524.09	1243.61
524.45	1256.88
524.81	1270.06
525.17	1283.29
525.53	1296.28
525.89	1309.29
526.25	1322.10
526.61	1334.64
526.97	1347.39
527.33	1360.03
527.68	1373.13
528.04	1386.18
528.40	1398.86
528.76	1411.85
529.12	1424.30
529.48	1437.05
529.84	1449.05
530.20	1461.41
530.56	1473.61
530.91	1486.46
531.27	1498.85
531.63	1511.20
531.99	1523.41
532.35	1535.24
532.71	1547.20
533.07	1559.73
533.42	1571.60
533.78	1583.21
534.14	1594.96
534.50	1605.75
534.86	1616.79
535.21	1627.25
535.57	1638.38
535.93	1649.35
536.29	1660.07
536.65	1671.13
537.00	1681.72
537.36	1692.53
537.72	1703.14
538.08	1714.12
538.44	1724.60
538.79	1735.32
539.15	1745.81
539.51	1756.29
539.87	1767.24
540.22	1777.62
540.58	1788.14
540.94	1798.71
541.29	1808.60
541.65	1818.00
542.01	1828.27
542.37	1838.13
542.72	1847.95
543.08	1857.30
543.44	1867.33
543.79	1876.17
544.15	1885.28
544.51	1894.95
544.87	1904.41
545.22	1913.15
545.58	1921.66
545.94	1930.16
546.29	1938.30
546.65	1946.14
547.01	1954.02
547.36	1961.19
547.72	1968.56
548.07	1975.74
548.43	1982.96
548.79	1990.57
549.14	1998.39
549.50	2006.19
549.86	2013.55
550.21	2020.79
550.57	2028.30
550.92	2034.76
551.28	2042.05
551.64	2049.00
551.99	2056.28
552.35	2063.25
552.70	2069.86
553.06	2076.34
553.41	2082.48
553.77	2088.85
554.13	2095.15
554.48	2101.95
554.84	2108.91
555.19	2115.29
555.55	2121.52
555.90	2127.75
556.26	2134.39
556.61	2140.22
556.97	2145.02
557.32	2150.81
557.68	2157.00
558.03	2162.50
558.39	2167.68
558.74	2173.55
559.10	2178.99
559.45	2184.41
559.81	2189.80
560.16	2195.21
560.52	2200.90
560.87	2207.16
561.23	2213.07
561.58	2219.69
561.94	2224.83
562.29	2229.65
562.64	2235.91
563.00	2241.61
563.35	2247.24
563.71	2253.01
564.06	2258.58
564.42	2264.63
564.77	2269.67
565.12	2274.80
565.48	2280.12
565.83	2285.80
566.19	2291.30
566.54	2296.68
566.89	2301.35
567.25	2306.02
567.60	2311.87
567.96	2317.11
568.31	2321.73
568.66	2326.06
569.02	2330.04
569.37	2333.81
569.72	2338.15
570.08	2341.57
570.43	2344.77
570.78	2347.80
571.14	2350.36
571.49	2353.75
571.84	2357.47
572.20	2360.50
572.55	2363.72
572.90	2365.99
573.26	2368.97
573.61	2371.76
573.96	2374.16
574.31	2376.23
574.67	2378.34
575.02	2379.32
575.37	2381.04
575.72	2382.02
576.08	2383.58
576.43	2383.96
576.78	2384.83
577.13	2386.84
577.49	2388.21
577.84	2389.49
578.19	2391.37
578.54	2392.39
578.90	2393.39
579.25	2393.48
579.60	2393.85
579.95	2393.43
580.30	2393.86
580.66	2393.42
581.01	2392.01
581.36	2390.07
581.71	2389.08
582.06	2388.26
582.42	2387.64
582.77	2385.73
583.12	2384.54
583.47	2383.60
583.82	2383.44
584.17	2382.34
584.53	2380.53
584.88	2378.75
585.23	2377.26
585.58	2375.11
585.93	2373.28
586.28	2371.40
586.63	2369.45
586.98	2367.53
587.34	2365.99
587.69	2363.92
588.04	2362.12
588.39	2360.82
588.74	2358.54
589.09	2356.25
589.44	2353.34
589.79	2351.33
590.14	2349.69
590.49	2347.06
590.84	2343.46
591.19	2340.62
591.54	2337.80
591.89	2333.98
592.25	2331.00
592.60	2327.16
592.95	2323.47
593.30	2319.67
593.65	2315.53
594.00	2311.31
594.35	2308.50
594.70	2303.90
595.05	2299.63
595.40	2294.36
595.75	2288.93
596.10	2285.44
596.45	2280.69
596.80	2276.34
597.15	2271.09
597.50	2265.25
597.85	2260.46
598.19	2255.42
598.54	2249.77
598.89	2244.73
599.24	2240.40
599.59	2234.52
599.94	2228.89
600.29	2222.89
600.64	2216.94
600.99	2210.30
601.34	2204.85
601.69	2197.80
602.04	2191.69
602.39	2185.06
602.74	2179.08
603.08	2173.63
603.43	2167.30
603.78	2160.66
604.13	2153.74
604.48	2146.70
604.83	2140.81
605.18	2134.68
605.53	2127.89
605.87	2120.85
606.22	2114.07
606.57	2106.15
606.92	2098.15
607.27	2091.10
607.62	2084.66
607.96	2077.98
608.31	2071.68
608.66	2064.08
609.01	2056.66
609.36	2049.63
609.70	2042.07
610.05	2034.50
610.40	2026.36
610.75	2018.19
611.10	2010.53
611.44	2001.93
611.79	1993.30
612.14	1983.33
612.49	1972.82
612.83	1963.59
613.18	1954.46
613.53	1945.25
613.88	1935.62
614.22	1927.20
614.57	1917.49
614.92	1907.11
615.27	1896.91
615.61	1886.80
615.96	1877.07
616.31	1867.65
616.65	1858.10
617.00	1848.40
617.35	1838.78
617.70	1829.02
618.04	1818.99
618.39	1808.83
618.74	1799.04
619.08	1789.58
619.43	1780.84
619.78	1772.38
620.12	1763.73
620.47	1754.22
620.82	1743.83
621.16	1734.27
621.51	1724.31
621.85	1714.35
622.20	1703.82
622.55	1693.15
622.89	1683.37
623.24	1673.85
623.59	1664.00
623.93	1653.95
624.28	1644.11
624.62	1633.92
624.97	1623.59
625.32	1613.79
625.66	1604.96
626.01	1596.14
626.35	1586.60
626.70	1576.49
627.04	1566.52
627.39	1556.36
627.73	1546.95
628.08	1537.97
628.43	1528.31
628.77	1519.07
629.12	1510.18
629.46	1502.27
629.81	1493.89
630.15	1484.21
630.50	1474.24
630.84	1463.75
631.19	1453.88
631.53	1444.66
631.88	1434.58
632.22	1424.55
632.57	1415.13
632.91	1404.88
633.26	1394.86
633.60	1385.29
633.95	1376.11
634.29	1366.81
634.64	1357.53
634.98	1347.53
635.32	1338.40
635.67	1329.82
636.01	1320.62
636.36	1310.89
636.70	1301.43
637.05	1292.03
637.39	1283.12
637.73	1274.50
638.08	1266.86
638.42	1258.67
638.77	1249.79
639.11	1241.44
639.45	1233.64
639.80	1225.18
640.14	1216.46
640.49	1207.68
640.83	1198.95
641.17	1190.75
641.52	1182.54
641.86	1173.89
642.20	1166.04
642.55	1157.24
642.89	1148.43
643.23	1139.69
643.58	1131.58
643.92	1122.41
644.26	1113.75
644.61	1105.34
644.95	1096.53
645.29	1087.35
645.64	1078.12
645.98	1069.59
646.32	1061.68
646.66	1053.13
647.01	1044.74
647.35	1036.53
647.69	1028.19
648.04	1019.69
648.38	1010.81
648.72	1001.96
649.06	993.49
649.41	985.31
649.75	977.45
650.09	969.53
650.43	961.49
650.78	953.15
651.12	945.62
651.46	938.28
651.80	931.00
652.14	923.58
652.49	916.07
652.83	908.72
653.17	901.13
653.51	893.59
653.85	886.34
654.20	879.08
654.54	871.75
654.88	864.56
655.22	857.52
655.56	850.56
655.90	843.82
656.25	837.25
656.59	830.41
656.93	823.46
657.27	816.46
657.61	809.57
657.95	803.62
658.29	797.71
658.64	791.57
658.98	785.15
659.32	778.78
659.66	772.58
660.00	766.31
660.34	760.34
660.68	754.25
661.02	748.01
661.36	742.21
661.70	736.44
662.05	730.87
662.39	725.50
662.73	720.25
663.07	714.95
663.41	709.37
663.75	703.74
664.09	698.13
664.43	692.72
664.77	687.52
665.11	681.70
665.45	675.87
665.79	670.13
666.13	664.47
666.47	659.00
666.81	653.59
667.15	648.25
667.49	643.11
667.83	637.97
668.17	632.89
668.51	627.75
668.85	622.89
669.19	618.11
669.53	613.16
669.87	608.04
670.21	603.32
670.55	598.71
670.89	594.33
671.23	590.12
671.57	585.86
671.91	581.52
672.25	577.48
672.58	573.41
672.92	569.42
673.26	565.62
673.60	561.83
673.94	558.16
674.28	554.64
674.62	550.90
674.96	547.16
675.30	543.69
675.64	540.10
675.97	536.63
676.31	533.09
676.65	529.51
676.99	526.17
677.33	522.39
677.67	518.79
678.01	515.00
678.34	511.39
678.68	507.87
679.02	504.40
679.36	500.77
679.70	497.20
680.04	493.76
680.37	490.41
680.71	487.21
681.05	484.03
681.39	480.87
681.73	477.82
682.06	474.88
682.40	471.83
682.74	468.70
683.08	465.51
683.42	462.42
683.75	459.51
684.09	456.54
684.43	453.82
684.77	450.95
685.10	448.21
685.44	445.34
685.78	442.53
686.12	439.84
686.45	437.14
686.79	434.56
687.13	432.06
687.46	429.51
687.80	426.84
688.14	424.11
688.48	421.55
688.81	418.94
689.15	416.43
689.49	413.94
689.82	411.51
690.16	409.01
690.50	406.61
690.83	404.16
691.17	401.74
691.51	399.38
691.84	397.18
692.18	395.00
692.52	392.87
692.85	390.75
693.19	388.64
693.52	386.57
693.86	384.39
694.20	382.29
694.53	380.16
694.87	378.06
695.21	375.99
695.54	373.90
695.88	371.80
696.21	369.65
696.55	367.53
696.88	365.54
697.22	363.66
697.56	361.80
697.89	359.99
698.23	358.28
698.56	356.53
698.90	354.81
699.23	352.97
699.57	351.19
699.90	349.42
700.24	347.72
700.58	346.04
700.91	344.44
701.25	342.90
701.58	341.38
701.92	339.84
702.25	338.36
702.59	336.80
702.92	335.33
703.26	333.83
703.59	332.49
703.93	331.25
704.26	329.80
704.60	328.36
704.93	326.95
705.26	325.49
705.60	324.07
705.93	322.64
706.27	321.34
706.60	320.11
706.94	318.92
707.27	317.57
707.61	316.23
707.94	314.91
708.27	313.47
708.61	312.03
708.94	310.75
709.28	309.47
709.61	308.27
709.94	307.09
710.28	305.97
710.61	304.78
710.95	303.40
711.28	302.38
711.61	301.25
711.95	300.16
712.28	299.02
712.61	297.91
712.95	296.87
713.28	295.92
713.61	294.82
713.95	293.74
714.28	292.76
714.61	291.76
714.95	290.78
715.28	289.83
715.61	288.86
715.95	287.92
716.28	287.02
716.61	286.11
716.95	285.15
717.28	284.21
717.61	283.29
717.94	282.49
718.28	281.52
718.61	280.68
718.94	279.81
719.27	278.98
719.61	278.18
719.94	277.35
720.27	276.41
720.60	275.58
720.94	274.81
721.27	274.07
721.60	273.43
721.93	272.74
722.27	272.10
722.60	271.43
722.93	270.72
723.26	270.07
723.59	269.38
723.93	268.77
724.26	268.16
724.59	267.57
724.92	266.94
725.25	266.41
725.59	265.86
725.92	265.34
726.25	264.79
726.58	264.19
726.91	263.59
727.24	263.08
727.57	262.55
727.91	261.94
728.24	261.39
728.57	260.83
728.90	260.35
729.23	259.75
729.56	259.33
729.89	258.84
730.22	258.29
730.55	257.78
730.89	257.23
731.22	256.73
731.55	256.17
731.88	255.68
732.21	255.16
732.54	254.66
732.87	254.14
733.20	253.68
733.53	253.21
733.86	252.83
734.19	252.30
734.52	251.92
734.85	251.68
735.18	251.21
735.51	250.86
735.84	250.43
736.17	250.10
736.50	249.62
736.83	249.49
737.16	249.14
737.49	248.79
737.82	248.43
738.15	248.11
738.48	247.78
738.81	247.40
739.14	247.00
739.47	246.61
739.80	246.27
740.13	245.95
740.46	245.66
740.79	245.23
741.12	244.95
741.45	244.56
741.78	244.12
742.11	243.87
742.44	243.47
742.77	243.16
743.10	242.80
743.43	242.46
743.75	241.91
744.08	241.85
744.41	241.49
744.74	241.15
745.07	240.75
745.40	240.48
745.73	240.25
746.06	239.95
746.39	239.67
746.71	239.33
747.04	238.98
747.37	238.63
747.70	238.40
748.03	238.13
748.36	237.89
748.68	237.58
749.01	237.24
749.34	236.98
749.67	236.69
750.00	236.42
750.33	236.32
750.65	236.06
750.98	235.52
751.31	235.30
751.64	235.13
751.97	235.01
752.29	234.73
752.62	234.41
752.95	234.20
753.28	233.95
753.60	233.74
753.93	233.57
754.26	233.40
754.59	233.17
754.91	232.92
755.24	232.70
755.57	232.49
755.90	232.30
756.22	232.08
756.55	231.86
756.88	231.61
757.20	231.26
757.53	231.02
757.86	230.84
758.19	230.66
758.51	230.43
758.84	230.15
759.17	229.97
759.49	229.81
759.82	229.72
760.15	229.55
760.47	229.38
760.80	229.12
761.13	228.96
761.45	228.73
761.78	228.56
762.11	228.36
762.43	228.17
762.76	227.99
763.08	227.88
763.41	227.74
763.74	227.63
764.06	227.49
764.39	227.33
764.71	227.18
765.04	227.03
765.37	226.88
765.69	226.75
766.02	226.61
766.34	226.46
766.67	226.24
767.00	226.16
767.32	226.14
767.65	226.15
767.97	226.04
768.30	225.93
768.62	225.81
768.95	225.69
769.27	225.57
769.60	225.51
769.92	225.34
770.25	225.19
770.57	225.03
770.90	224.91
771.22	224.78
771.55	224.64
771.87	224.52
772.20	224.39
772.52	224.45
772.85	224.58
773.17	224.46
773.50	224.34
773.82	224.20
774.15	224.00
774.47	223.77
774.80	223.64
775.12	223.55
775.45	223.47
775.77	223.39
776.09	223.32
776.42	223.23
776.74	223.22
777.07	223.12
777.39	223.07
777.72	222.97
778.04	222.97
778.36	222.91
778.69	222.85
779.01	222.83
779.33	222.55
779.66	222.21
779.98	222.16
780.31	222.10
780.63	222.13
780.95	222.09
781.28	222.05
781.60	221.98
781.92	221.92
782.25	221.83
782.57	221.78
782.89	221.69
783.22	221.59
783.54	221.43
783.86	221.36
784.19	221.26
784.51	221.25
784.83	221.14
785.16	221.06
785.48	220.98
785.80	220.92
786.12	220.88
786.45	220.80
786.77	220.74
787.09	220.66
787.42	220.47
787.74	220.43
788.06	220.36
788.38	220.27
788.71	220.20
789.03	220.17
789.35	220.13
789.67	220.07
789.99	220.06
790.32	220.03
790.64	220.01
790.96	220.14
791.28	220.03
791.61	219.94
791.93	219.89
792.25	219.85
792.57	219.92
792.89	219.84
793.21	219.88
793.54	219.84
793.86	219.77
794.18	219.76
794.50	219.67
794.82	219.63
795.14	219.62
795.47	219.61
795.79	219.55
796.11	219.46
796.43	219.43
796.75	219.36
797.07	219.34
797.39	219.30
797.71	219.13
798.04	219.10
798.36	219.10
798.68	219.07
799.00	219.04
799.32	218.92
799.64	218.95
799.96	218.88
800.28	218.87
800.60	218.85
800.92	218.84
801.24	218.80
801.56	218.78
801.89	218.73
802.21	218.73
802.53	218.71
802.85	218.71
803.17	218.76
803.49	218.69
803.81	218.63
804.13	218.59
804.45	218.52
804.77	218.52
805.09	218.51
805.41	218.46
805.73	218.40
806.05	218.31
806.37	218.29
806.69	218.23
807.01	218.21
807.33	218.20
807.65	218.12
807.97	218.19
808.28	218.14
808.60	218.09
808.92	218.01
809.24	218.11
809.56	218.07
809.88	217.99
810.20	217.97
810.52	217.97
810.84	217.93
811.16	217.89
811.48	217.83
811.80	217.86
812.12	217.84
812.43	217.86
812.75	217.84
813.07	217.78
813.39	217.79
813.71	217.72
814.03	217.70
814.35	217.65
814.67	217.55
814.98	217.56
815.30	217.54
815.62	217.52
815.94	217.36
816.26	217.35
816.58	217.28
816.89	217.30
817.21	217.25
817.53	217.24
817.85	217.24
818.17	217.23
818.48	217.14
818.80	217.16
819.12	217.10
819.44	217.09
819.76	217.04
820.07	217.01
820.39	217.03
820.71	217.00
821.03	217.00
821.34	216.97
821.66	216.96
821.98	216.99
822.30	216.97
822.61	217.08
822.93	217.03
823.25	217.00
823.57	216.95
823.88	217.00
824.20	216.98
824.52	216.99
824.83	216.97
825.15	216.95
825.47	216.90
825.79	216.89
826.10	216.87
826.42	216.83
826.74	216.81
827.05	216.78
827.37	216.79
827.69	216.78
828.00	216.81
828.32	216.77
828.64	216.72
828.95	216.82
829.27	216.73
829.58	216.74
829.90	216.79
830.22	216.83
830.53	216.77
830.85	216.73
831.17	216.67
831.48	216.65
831.80	216.65
832.11	216.65
832.43	216.63
832.75	216.62
833.06	216.75
833.38	216.70
833.69	216.67
834.01	216.66
834.32	216.63
834.64	216.55
834.96	216.56
835.27	216.56
835.59	216.46
835.90	216.46
836.22	216.45
836.53	216.37
836.85	216.35
837.16	216.53
837.48	216.55
837.79	216.66
838.11	216.67
838.42	216.65
838.74	216.67
839.05	216.65
839.37	216.65
839.68	216.53
840.00	216.53
840.31	216.56
840.63	216.52
840.94	216.48
841.26	216.47
841.57	216.46
841.88	216.48
842.20	216.44
842.51	216.39
842.83	216.40
843.14	216.57
843.46	216.56
843.77	216.42
844.08	216.39
844.40	216.28
844.71	216.26
845.03	216.24
845.34	216.21
845.65	216.22
845.97	216.20
846.28	216.24
846.60	216.25
846.91	216.22
847.22	216.24
847.54	216.34
847.85	216.35
848.16	216.30
848.48	216.25
848.79	216.34
849.10	216.35
849.42	216.31
849.73	216.10
850.04	216.05
850.36	216.00
850.67	216.04
850.98	216.04
851.30	216.03
851.61	216.00
851.92	216.00
852.23	216.02
852.55	216.02
852.86	215.99
853.17	215.97
853.49	215.98
853.80	215.99
854.11	215.96
854.42	216.01
854.74	216.00
855.05	215.98
855.36	215.88
855.67	215.86
855.99	215.88
856.30	216.13
856.61	216.15
856.92	216.15
857.23	216.15
857.55	216.12
857.86	216.11
858.17	216.16
858.48	216.10
858.79	216.06
859.11	216.10
859.42	216.09
859.73	216.05
860.04	216.05
860.35	216.00
860.66	215.93
860.98	215.90
861.29	215.92
861.60	215.89
861.91	215.91
862.22	215.88
862.53	215.84
862.84	215.62
863.16	215.67
863.47	215.61
863.78	215.59
864.09	215.61
864.40	215.60
864.71	215.60
865.02	215.65
865.33	215.62
865.64	215.55
865.95	215.52
866.27	215.69
866.58	215.64
866.89	215.67
867.20	215.68
867.51	215.62
867.82	215.62
868.13	215.74
868.44	215.72
868.75	215.78
869.06	215.79
869.37	215.79
869.68	215.73
869.99	215.73
870.30	215.76
870.61	215.77
870.92	215.79
871.23	215.76
871.54	215.80
871.85	215.87
872.16	215.90
872.47	215.92
872.78	215.78
873.09	215.78
873.40	215.75
873.71	215.77
874.02	215.81
874.33	215.81
874.64	215.74
874.95	215.76
875.26	215.71
875.56	215.73
875.87	215.73
876.18	215.75
876.49	215.99
876.80	215.92
877.11	215.91
877.42	215.89
877.73	215.88
878.04	215.86
878.35	215.84
878.66	215.84
878.96	215.81
879.27	215.79
879.58	215.80
879.89	215.80
880.20	215.86
880.51	215.83
880.82	215.82
881.12	215.83
881.43	215.78
881.74	215.72
882.05	215.69
882.36	215.73
882.67	215.68
882.97	215.45
883.28	215.40
883.59	215.36
883.90	215.38
884.21	215.41
884.51	215.41
884.82	215.38
885.13	215.37
885.44	215.36
885.74	215.34
886.05	215.35
886.36	215.34
886.67	215.24
886.98	215.35
887.28	215.36
887.59	215.33
887.90	215.33
888.20	215.38
888.51	215.40
888.82	215.33
889.13	215.35
889.43	215.52
889.74	215.54
890.05	215.56
890.35	215.53
890.66	215.49
890.97	215.42
891.28	215.41
891.58	215.40
891.89	215.40
892.20	215.39
892.50	215.39
892.81	215.40
893.12	215.42
893.42	215.32
893.73	215.33
894.04	215.34
894.34	215.37
894.65	215.34
894.95	215.31
895.26	215.35
895.57	215.44
895.87	215.24
896.18	215.32
896.48	215.34
896.79	215.30
897.10	215.34
897.40	215.38
897.71	215.39
898.01	215.38
898.32	215.41
898.63	215.44
898.93	215.45
899.24	215.47
899.54	215.46
899.85	215.44
900.15	215.39
900.46	215.40
900.76	215.40
901.07	215.38
901.38	215.40
901.68	215.37
901.99	215.27
902.29	215.27
902.60	215.22
902.90	215.21
903.21	215.27
903.51	215.25
903.82	215.28
904.12	215.28
904.43	215.28
904.73	215.27
905.03	215.29
905.34	215.45
905.64	215.41
905.95	215.40
906.25	215.41
906.56	215.44
906.86	215.44
907.17	215.44
907.47	215.46
907.77	215.45
908.08	215.46
908.38	215.48
908.69	215.51
908.99	215.59
909.30	215.59
909.60	215.58
909.90	215.60
910.21	215.55
910.51	215.52
910.81	215.55
911.12	215.56
911.42	215.53
911.73	215.35
912.03	215.39
912.33	215.43
912.64	215.41
912.94	215.38
913.24	215.33
913.55	215.31
913.85	215.28
914.15	215.30
914.46	215.29
914.76	215.25
915.06	215.22
915.37	215.15
915.67	215.15
915.97	215.15
916.27	215.09
916.58	215.09
916.88	215.10
917.18	215.07
917.49	215.21
917.79	215.20
918.09	215.22
918.39	215.24
918.70	215.23
919.00	215.24
919.30	215.36
919.60	215.34
919.91	215.31
920.21	215.35
920.51	215.31
920.81	215.34
921.12	215.42
921.42	215.43
921.72	215.41
922.02	215.42
922.32	215.41
922.63	215.45
922.93	215.57
923.23	215.57
923.53	215.52
923.83	215.38
924.13	215.42
924.44	215.43
924.74	215.45
925.04	215.50
925.34	215.50
925.64	215.43
925.94	215.46
926.24	215.61
926.55	215.58
926.85	215.62
927.15	215.61
927.45	215.57
927.75	215.56
928.05	215.60
928.35	215.56
928.65	215.61
928.95	215.60
929.26	215.51
929.56	215.55
929.86	215.61
930.16	215.60
930.46	215.58
930.76	215.58
931.06	215.49
931.36	215.43
931.66	215.44
931.96	215.42
932.26	215.39
932.56	215.31
932.86	215.31
933.16	215.31
933.46	215.29
933.76	215.28
934.06	215.30
934.36	215.38
934.66	215.38
934.96	215.34
935.26	215.35
935.56	215.39
935.86	215.33
936.16	215.33
936.46	215.32
936.76	215.32
937.06	215.29
937.36	215.30
937.66	215.33
937.96	215.34
938.26	215.31
938.56	215.35
938.86	215.35
939.16	215.40
939.46	215.40
939.76	215.41
940.06	215.40
940.35	215.38
940.65	215.26
940.95	215.27
941.25	215.25
941.55	215.22
941.85	215.22
942.15	215.27
942.45	215.31
942.75	215.30
943.04	215.26
943.34	215.29
943.64	215.29
943.94	215.21
944.24	215.16
944.54	215.19
944.84	215.15
945.13	215.10
945.43	215.04
945.73	215.02
946.03	215.00
946.33	214.96
946.62	214.94
946.92	214.93
947.22	214.95
947.52	214.96
947.82	214.97
948.11	214.93
948.41	214.87
948.71	214.78
949.01	214.80
949.31	214.81
949.60	214.78
949.90	214.82
950.20	214.85
950.50	214.90
950.79	214.87
951.09	214.91
951.39	214.89
951.69	214.87
951.98	214.91
952.28	214.91
952.58	214.92
952.87	214.91
953.17	214.94
953.47	214.91
953.76	214.91
954.06	214.89
954.36	214.86
954.66	214.86
954.95	214.94
955.25	214.95
955.55	214.95
955.84	214.93
956.14	214.91
956.44	214.91
956.73	214.87
957.03	214.91
957.32	214.91
957.62	214.92
957.92	214.98
958.21	214.94
958.51	215.20
958.81	215.22
959.10	215.28
959.40	215.33
959.69	215.37
959.99	215.37
960.29	215.39
960.58	215.36
960.88	215.43
961.17	215.38
961.47	215.38
961.76	215.37
962.06	215.39
962.36	215.38
962.65	215.39
962.95	215.42
963.24	215.38
963.54	215.39
963.83	215.42
964.13	215.42
964.42	215.37
964.72	215.20
965.01	215.22
965.31	215.17
965.60	215.12
965.90	215.24
966.19	215.21
966.49	215.24
966.78	215.26
967.08	215.24
967.37	215.25
967.67	215.23
967.96	215.26
968.26	215.30
968.55	215.30
968.85	215.31
969.14	215.28
969.43	215.28
969.73	215.25
970.02	215.24
970.32	215.24
970.61	215.24
970.91	215.19
971.20	215.15
971.49	215.15
971.79	215.15
972.08	215.00
972.38	215.01
972.67	214.98
972.96	215.02
973.26	215.01
973.55	215.07
973.85	215.06
974.14	215.06
974.43	215.04
974.73	215.02
975.02	214.97
975.31	214.99
975.61	215.00
975.90	214.99
976.19	214.95
976.49	214.95
976.78	214.95
977.07	214.93
977.37	214.95
977.66	214.99
977.95	214.97
978.24	214.99
978.54	215.07
978.83	215.04
979.12	215.00
979.42	214.98
979.71	214.95
980.00	214.94
980.29	214.95
980.59	214.94
980.88	214.99
981.17	215.00
981.46	215.01
981.76	215.00
982.05	215.06
982.34	215.08
982.63	215.08
982.93	215.09
983.22	215.17
983.51	215.18
983.80	215.21
984.09	215.23
984.39	215.21
984.68	215.14
984.97	215.18
985.26	215.19
985.55	215.23
985.85	215.17
986.14	215.24
986.43	215.25
986.72	215.24
987.01	215.18
987.30	215.19
987.59	215.16
987.89	215.16
988.18	215.11
988.47	215.09
988.76	215.06
989.05	215.05
989.34	215.00
989.63	215.01
989.92	214.97
990.22	214.95
990.51	214.98
990.80	214.98
991.09	214.99
991.38	215.01
991.67	214.99
991.96	215.01
992.25	215.00
992.54	214.96
992.83	214.99
993.12	215.01
993.41	215.04
993.70	215.14
993.99	215.17
994.28	215.20
994.58	215.26
994.87	215.24
995.16	215.26
995.45	215.23
995.74	215.18
996.03	215.20
996.32	215.24
996.61	215.26
996.90	215.26
997.19	215.25
997.48	215.24
997.77	215.22
998.06	215.20
998.34	215.17
998.63	215.16
998.92	215.14
999.21	215.15
999.50	215.16
999.79	215.06
1000.08	215.08
1000.37	215.05
1000.66	215.00
1000.95	215.08
1001.24	215.08
1001.53	215.13
1001.82	215.15
1002.11	215.12
1002.40	215.15
1002.68	215.19
1002.97	215.32
1003.26	215.30
1003.55	215.29
1003.84	215.27
1004.13	215.34
1004.42	215.32
1004.71	215.36
1004.99	215.34
1005.28	215.39
1005.57	215.37
1005.86	215.39
1006.15	215.34
1006.44	215.33
1006.72	215.34
1007.01	215.31
1007.30	215.30
1007.59	215.27
1007.88	215.27
1008.17	215.28
1008.45	215.20
1008.74	215.12
1009.03	215.08
1009.32	215.05
1009.60	215.06
1009.89	215.06
1010.18	214.97
1010.47	214.97
1010.76	214.93
1011.04	214.94
1011.33	214.93
1011.62	214.92
1011.91	214.95
1012.19	214.97
1012.48	215.00
1012.77	215.01
1013.05	215.10
1013.34	215.09
1013.63	215.08
1013.92	215.11
1014.20	215.11
1014.49	215.13
1014.78	215.15
1015.06	215.00
1015.35	215.02
1015.64	215.05
1015.92	215.09
1016.21	215.11
1016.50	215.13
1016.78	215.13
1017.07	215.15
1017.36	215.10
1017.64	215.07
1017.93	215.07
1018.22	215.08
1018.50	215.06
1018.79	215.05
1019.08	214.94
1019.36	214.96
1019.65	214.92
1019.93	214.95
1020.22	214.97
1020.51	215.08
1020.79	215.08
1021.08	215.23
1021.36	214.88
1021.65	214.86
1021.94	214.97
1022.22	214.93
1022.51	214.40
1022.79	215.71
1023.08	215.50
1023.36	217.53
1023.65	215.26
>>>>>End Processed Spectral Data<<<<<
