SpectraSuite Data File
++++++++++++++++++++++++++++++++++++
Date: Tue Jan 29 16:25:33 EST 2013
User: group
Dark Spectrum Present: No
Reference Spectrum Present: No
Number of Sampled Component Spectra: 1
Spectrometers: USB2E7196
Integration Time (usec): 65000 (USB2E7196)
Spectra Averaged: 100 (USB2E7196)
Boxcar Smoothing: 10 (USB2E7196)
Correct for Electrical Dark: No (USB2E7196)
Strobe/Lamp Enabled: No (USB2E7196)
Correct for Detector Non-linearity: No (USB2E7196)
Correct for Stray Light: No (USB2E7196)
Number of Pixels in Processed Spectrum: 2048
>>>>>Begin Processed Spectral Data<<<<<
339.09	0.00
339.48	202.23
339.86	203.63
340.24	204.69
340.63	206.74
341.01	210.91
341.39	209.53
341.78	210.99
342.16	212.14
342.54	212.58
342.93	201.56
343.31	211.72
343.69	212.27
344.07	212.73
344.46	213.19
344.84	213.60
345.22	213.81
345.60	214.07
345.99	214.27
346.37	214.39
346.75	214.50
347.13	214.58
347.52	214.64
347.90	214.74
348.28	214.77
348.66	214.88
349.05	214.84
349.43	214.89
349.81	214.97
350.19	215.02
350.57	215.11
350.96	215.16
351.34	215.28
351.72	215.39
352.10	215.52
352.48	215.59
352.87	215.60
353.25	215.58
353.63	215.65
354.01	215.69
354.39	215.78
354.77	215.82
355.15	215.94
355.54	215.99
355.92	215.95
356.30	216.03
356.68	216.19
357.06	216.23
357.44	216.24
357.82	216.27
358.20	216.32
358.58	216.36
358.97	216.42
359.35	216.52
359.73	216.58
360.11	216.62
360.49	216.69
360.87	216.74
361.25	216.84
361.63	216.93
362.01	216.98
362.39	217.01
362.77	217.07
363.15	217.06
363.53	217.11
363.91	217.15
364.29	217.16
364.67	216.99
365.05	217.04
365.43	217.12
365.81	217.18
366.19	217.25
366.57	217.34
366.95	217.34
367.33	217.27
367.71	217.28
368.09	217.34
368.47	217.33
368.85	217.32
369.23	217.39
369.61	217.32
369.99	217.35
370.37	217.35
370.75	217.46
371.13	217.43
371.51	217.37
371.89	217.36
372.27	217.36
372.65	217.37
373.03	217.35
373.41	217.31
373.78	217.24
374.16	217.09
374.54	216.99
374.92	216.95
375.30	216.93
375.68	216.84
376.06	216.81
376.44	216.73
376.82	216.71
377.19	216.65
377.57	216.62
377.95	216.50
378.33	216.44
378.71	216.30
379.09	216.27
379.47	216.25
379.84	216.23
380.22	216.18
380.60	216.10
380.98	216.04
381.36	215.99
381.73	215.95
382.11	215.98
382.49	215.95
382.87	215.86
383.25	215.82
383.62	216.04
384.00	215.91
384.38	215.91
384.76	215.91
385.13	215.95
385.51	215.88
385.89	215.85
386.27	215.84
386.64	215.77
387.02	215.74
387.40	215.70
387.78	215.66
388.15	215.61
388.53	215.57
388.91	215.53
389.29	215.47
389.66	215.49
390.04	215.45
390.42	215.50
390.79	215.52
391.17	215.52
391.55	215.26
391.92	215.30
392.30	215.29
392.68	215.25
393.05	215.18
393.43	215.18
393.81	215.23
394.18	215.18
394.56	215.22
394.94	215.27
395.31	215.26
395.69	215.32
396.06	215.37
396.44	215.40
396.82	215.43
397.19	215.58
397.57	215.59
397.95	215.65
398.32	215.60
398.70	215.65
399.07	215.69
399.45	215.76
399.82	215.83
400.20	215.87
400.58	215.90
400.95	215.92
401.33	216.05
401.70	216.27
402.08	216.42
402.45	216.48
402.83	216.60
403.20	216.73
403.58	216.84
403.95	216.99
404.33	217.17
404.71	217.32
405.08	217.58
405.46	217.77
405.83	217.96
406.21	218.16
406.58	218.40
406.96	218.64
407.33	218.87
407.70	219.16
408.08	219.60
408.45	219.94
408.83	220.36
409.20	220.70
409.58	220.93
409.95	221.38
410.33	221.89
410.70	222.30
411.08	222.88
411.45	223.45
411.82	224.00
412.20	224.69
412.57	225.51
412.95	226.04
413.32	226.85
413.69	227.70
414.07	228.59
414.44	229.56
414.82	230.56
415.19	231.77
415.56	232.96
415.94	234.13
416.31	235.57
416.68	236.92
417.06	238.49
417.43	240.02
417.81	241.76
418.18	243.54
418.55	245.47
418.93	247.44
419.30	249.55
419.67	251.76
420.04	253.98
420.42	256.35
420.79	259.21
421.16	261.97
421.54	264.85
421.91	267.87
422.28	270.94
422.66	274.26
423.03	277.46
423.40	280.79
423.77	284.36
424.15	288.02
424.52	291.85
424.89	296.03
425.26	300.14
425.64	303.97
426.01	308.22
426.38	312.67
426.75	317.22
427.13	321.91
427.50	326.87
427.87	332.10
428.24	337.29
428.61	342.24
428.99	347.75
429.36	353.72
429.73	359.53
430.10	365.39
430.47	371.38
430.85	377.64
431.22	384.29
431.59	391.40
431.96	398.19
432.33	405.66
432.70	412.87
433.08	421.38
433.45	429.43
433.82	437.48
434.19	446.30
434.56	454.96
434.93	463.28
435.30	471.52
435.68	480.59
436.05	489.51
436.42	498.35
436.79	506.41
437.16	515.20
437.53	524.48
437.90	533.60
438.27	542.55
438.64	551.77
439.01	560.31
439.38	567.80
439.75	575.09
440.13	583.50
440.50	591.41
440.87	597.77
441.24	604.36
441.61	611.61
441.98	616.97
442.35	623.26
442.72	629.53
443.09	635.63
443.46	639.40
443.83	641.91
444.20	644.15
444.57	647.37
444.94	648.79
445.31	650.24
445.68	651.63
446.05	652.20
446.42	651.43
446.79	650.46
447.16	649.39
447.53	648.62
447.90	645.36
448.27	642.10
448.64	637.43
449.01	634.12
449.37	628.29
449.74	622.66
450.11	615.83
450.48	608.46
450.85	600.99
451.22	594.47
451.59	588.29
451.96	582.44
452.33	574.59
452.70	567.49
453.07	558.99
453.43	550.40
453.80	542.16
454.17	534.17
454.54	526.60
454.91	518.51
455.28	510.56
455.65	503.06
456.02	495.49
456.38	489.22
456.75	481.44
457.12	474.86
457.49	468.39
457.86	462.19
458.23	456.85
458.59	450.97
458.96	445.01
459.33	439.82
459.70	434.49
460.07	430.23
460.43	425.36
460.80	420.80
461.17	416.82
461.54	412.63
461.91	408.64
462.27	404.56
462.64	401.13
463.01	397.35
463.38	393.71
463.74	390.12
464.11	386.88
464.48	384.04
464.85	380.93
465.21	378.49
465.58	375.87
465.95	372.70
466.32	370.07
466.68	367.51
467.05	364.88
467.42	362.37
467.78	359.71
468.15	357.20
468.52	355.34
468.88	352.82
469.25	350.64
469.62	348.87
469.98	346.98
470.35	345.19
470.72	343.53
471.08	341.74
471.45	340.28
471.82	338.75
472.18	337.13
472.55	335.95
472.92	334.60
473.28	333.42
473.65	332.33
474.02	331.25
474.38	330.35
474.75	329.62
475.11	328.80
475.48	328.20
475.85	327.71
476.21	327.21
476.58	326.91
476.94	326.69
477.31	326.42
477.67	326.14
478.04	325.95
478.41	325.90
478.77	326.05
479.14	325.96
479.50	326.15
479.87	326.41
480.23	326.74
480.60	326.97
480.96	327.24
481.33	327.84
481.69	328.38
482.06	328.91
482.42	329.43
482.79	330.04
483.15	330.81
483.52	331.80
483.88	332.73
484.25	333.67
484.61	334.70
484.98	335.76
485.34	337.06
485.71	338.51
486.07	339.99
486.44	341.32
486.80	342.95
487.17	344.58
487.53	346.37
487.90	348.25
488.26	350.29
488.62	352.44
488.99	354.52
489.35	356.70
489.72	359.10
490.08	361.61
490.44	364.18
490.81	366.90
491.17	369.58
491.54	372.55
491.90	375.59
492.26	378.90
492.63	382.28
492.99	385.76
493.36	389.42
493.72	393.24
494.08	397.33
494.45	401.59
494.81	405.99
495.17	410.51
495.54	415.19
495.90	420.03
496.26	424.95
496.63	430.17
496.99	435.61
497.35	441.22
497.72	447.10
498.08	453.09
498.44	459.26
498.80	465.71
499.17	472.22
499.53	478.96
499.89	485.85
500.26	492.87
500.62	500.04
500.98	507.45
501.34	514.99
501.71	522.84
502.07	530.70
502.43	538.69
502.79	546.87
503.16	555.30
503.52	563.95
503.88	572.79
504.24	581.75
504.60	590.82
504.97	600.07
505.33	609.38
505.69	619.27
506.05	629.15
506.41	639.09
506.78	649.26
507.14	659.60
507.50	670.06
507.86	680.78
508.22	691.61
508.59	702.35
508.95	713.49
509.31	724.80
509.67	736.33
510.03	747.89
510.39	759.78
510.75	771.75
511.12	783.79
511.48	795.99
511.84	808.32
512.20	820.85
512.56	833.60
512.92	846.55
513.28	859.31
513.64	872.25
514.00	885.17
514.37	898.26
514.73	911.45
515.09	924.61
515.45	937.65
515.81	950.85
516.17	964.41
516.53	977.76
516.89	990.93
517.25	1004.20
517.61	1017.79
517.97	1031.29
518.33	1044.64
518.69	1058.34
519.05	1072.12
519.41	1086.01
519.77	1099.93
520.13	1113.34
520.49	1126.62
520.85	1140.05
521.21	1153.49
521.57	1167.33
521.93	1180.49
522.29	1194.46
522.65	1208.34
523.01	1222.12
523.37	1235.43
523.73	1248.79
524.09	1262.12
524.45	1275.66
524.81	1289.28
525.17	1302.72
525.53	1315.87
525.89	1329.29
526.25	1342.50
526.61	1355.48
526.97	1368.61
527.33	1381.79
527.68	1395.34
528.04	1408.85
528.40	1422.06
528.76	1435.48
529.12	1448.44
529.48	1461.85
529.84	1474.03
530.20	1486.68
530.56	1499.29
530.91	1512.65
531.27	1525.61
531.63	1538.47
531.99	1551.40
532.35	1563.67
532.71	1576.18
533.07	1589.32
533.42	1601.62
533.78	1613.86
534.14	1626.08
534.50	1637.53
534.86	1649.14
535.21	1660.16
535.57	1671.81
535.93	1683.23
536.29	1694.41
536.65	1705.94
537.00	1717.09
537.36	1728.65
537.72	1739.77
538.08	1751.30
538.44	1762.33
538.79	1773.47
539.15	1784.44
539.51	1795.15
539.87	1806.68
540.22	1817.61
540.58	1828.50
540.94	1839.42
541.29	1849.79
541.65	1859.61
542.01	1870.06
542.37	1880.18
542.72	1890.47
543.08	1900.41
543.44	1911.02
543.79	1920.46
544.15	1929.97
544.51	1939.95
544.87	1949.84
545.22	1959.23
545.58	1968.09
545.94	1977.02
546.29	1985.69
546.65	1993.99
547.01	2002.29
547.36	2009.93
547.72	2017.77
548.07	2025.45
548.43	2033.14
548.79	2041.02
549.14	2049.15
549.50	2057.74
549.86	2065.66
550.21	2073.12
550.57	2080.74
550.92	2087.60
551.28	2095.07
551.64	2102.48
551.99	2110.11
552.35	2117.40
552.70	2124.28
553.06	2131.02
553.41	2137.39
553.77	2144.01
554.13	2150.62
554.48	2157.81
554.84	2165.06
555.19	2171.62
555.55	2178.11
555.90	2184.52
556.26	2191.38
556.61	2197.52
556.97	2202.39
557.32	2208.22
557.68	2214.67
558.03	2220.48
558.39	2225.75
558.74	2231.89
559.10	2237.35
559.45	2242.91
559.81	2248.44
560.16	2253.99
560.52	2260.18
560.87	2266.74
561.23	2272.57
561.58	2279.27
561.94	2284.42
562.29	2289.07
562.64	2295.34
563.00	2301.07
563.35	2306.68
563.71	2312.56
564.06	2318.35
564.42	2324.30
564.77	2329.47
565.12	2334.81
565.48	2340.06
565.83	2345.77
566.19	2351.24
566.54	2356.71
566.89	2361.24
567.25	2366.06
567.60	2371.84
567.96	2376.86
568.31	2381.35
568.66	2385.74
569.02	2389.76
569.37	2393.75
569.72	2398.37
570.08	2401.73
570.43	2405.02
570.78	2408.27
571.14	2410.75
571.49	2413.93
571.84	2417.59
572.20	2420.52
572.55	2423.49
572.90	2425.79
573.26	2428.48
573.61	2431.12
573.96	2433.35
574.31	2435.44
574.67	2437.35
575.02	2438.09
575.37	2439.65
575.72	2440.39
576.08	2441.97
576.43	2442.06
576.78	2442.48
577.13	2444.08
577.49	2445.46
577.84	2446.57
578.19	2447.90
578.54	2448.70
578.90	2449.42
579.25	2449.26
579.60	2449.24
579.95	2448.61
580.30	2448.72
580.66	2448.22
581.01	2446.46
581.36	2444.19
581.71	2442.97
582.06	2441.76
582.42	2441.01
582.77	2438.71
583.12	2437.19
583.47	2435.79
583.82	2435.33
584.17	2434.12
584.53	2431.94
584.88	2429.92
585.23	2428.03
585.58	2425.73
585.93	2423.68
586.28	2421.61
586.63	2419.26
586.98	2417.23
587.34	2415.25
587.69	2412.87
588.04	2410.76
588.39	2409.36
588.74	2406.86
589.09	2404.03
589.44	2400.86
589.79	2398.36
590.14	2396.51
590.49	2393.59
590.84	2389.72
591.19	2386.49
591.54	2383.24
591.89	2379.25
592.25	2375.86
592.60	2371.58
592.95	2367.53
593.30	2363.35
593.65	2358.85
594.00	2354.39
594.35	2351.21
594.70	2346.57
595.05	2341.91
595.40	2336.39
595.75	2330.65
596.10	2327.00
596.45	2322.18
596.80	2317.72
597.15	2312.46
597.50	2306.63
597.85	2301.81
598.19	2296.60
598.54	2290.84
598.89	2285.56
599.24	2280.95
599.59	2274.84
599.94	2268.82
600.29	2262.81
600.64	2256.83
600.99	2249.95
601.34	2244.26
601.69	2237.20
602.04	2230.79
602.39	2224.17
602.74	2217.91
603.08	2212.32
603.43	2205.78
603.78	2198.81
604.13	2191.63
604.48	2184.16
604.83	2177.88
605.18	2171.48
605.53	2164.45
605.87	2157.30
606.22	2150.42
606.57	2142.41
606.92	2134.35
607.27	2127.56
607.62	2120.83
607.96	2113.69
608.31	2107.30
608.66	2099.63
609.01	2092.06
609.36	2084.86
609.70	2077.19
610.05	2069.58
610.40	2061.18
610.75	2052.78
611.10	2045.19
611.44	2036.26
611.79	2027.76
612.14	2017.55
612.49	2006.86
612.83	1997.50
613.18	1988.28
613.53	1979.01
613.88	1969.37
614.22	1960.68
614.57	1950.76
614.92	1940.07
615.27	1929.80
615.61	1919.55
615.96	1909.86
616.31	1900.07
616.65	1890.66
617.00	1880.75
617.35	1870.89
617.70	1861.09
618.04	1851.00
618.39	1840.73
618.74	1830.85
619.08	1821.07
619.43	1812.45
619.78	1804.26
620.12	1795.59
620.47	1785.81
620.82	1775.36
621.16	1765.54
621.51	1755.52
621.85	1745.54
622.20	1735.07
622.55	1724.44
622.89	1714.44
623.24	1704.62
623.59	1694.78
623.93	1684.51
624.28	1674.67
624.62	1664.52
624.97	1654.11
625.32	1644.22
625.66	1635.17
626.01	1626.40
626.35	1616.90
626.70	1606.62
627.04	1596.28
627.39	1585.98
627.73	1576.65
628.08	1567.66
628.43	1557.95
628.77	1548.63
629.12	1539.58
629.46	1531.82
629.81	1523.51
630.15	1513.95
630.50	1504.01
630.84	1493.48
631.19	1483.45
631.53	1474.02
631.88	1463.75
632.22	1453.66
632.57	1444.17
632.91	1433.97
633.26	1423.97
633.60	1414.37
633.95	1405.04
634.29	1395.54
634.64	1386.13
634.98	1375.99
635.32	1366.55
635.67	1358.11
636.01	1348.75
636.36	1338.90
636.70	1329.18
637.05	1319.59
637.39	1310.65
637.73	1301.92
638.08	1294.33
638.42	1286.08
638.77	1277.28
639.11	1268.95
639.45	1261.02
639.80	1252.40
640.14	1243.57
640.49	1234.65
640.83	1225.70
641.17	1217.42
641.52	1209.25
641.86	1200.60
642.20	1192.62
642.55	1183.93
642.89	1174.89
643.23	1166.17
643.58	1158.00
643.92	1148.93
644.26	1140.12
644.61	1131.55
644.95	1122.68
645.29	1113.28
645.64	1103.92
645.98	1095.21
646.32	1087.24
646.66	1078.61
647.01	1070.19
647.35	1061.86
647.69	1053.55
648.04	1045.18
648.38	1036.22
648.72	1027.19
649.06	1018.60
649.41	1010.43
649.75	1002.34
650.09	994.27
650.43	986.10
650.78	977.67
651.12	969.81
651.46	962.35
651.80	954.98
652.14	947.55
652.49	939.87
652.83	932.46
653.17	924.75
653.51	917.04
653.85	909.71
654.20	902.49
654.54	895.03
654.88	887.58
655.22	880.26
655.56	873.20
655.90	866.29
656.25	859.54
656.59	852.48
656.93	845.35
657.27	838.11
657.61	831.03
657.95	824.91
658.29	818.88
658.64	812.62
658.98	806.04
659.32	799.45
659.66	793.19
660.00	786.82
660.34	780.70
660.68	774.51
661.02	768.16
661.36	762.03
661.70	756.12
662.05	750.47
662.39	744.92
662.73	739.53
663.07	734.15
663.41	728.53
663.75	722.76
664.09	717.01
664.43	711.55
664.77	706.13
665.11	700.18
665.45	694.25
665.79	688.44
666.13	682.62
666.47	677.03
666.81	671.44
667.15	665.97
667.49	660.69
667.83	655.34
668.17	650.00
668.51	644.79
668.85	639.79
669.19	634.76
669.53	629.61
669.87	624.39
670.21	619.53
670.55	614.71
670.89	610.21
671.23	605.89
671.57	601.50
671.91	597.23
672.25	593.07
672.58	588.90
672.92	584.75
673.26	580.78
673.60	576.88
673.94	573.04
674.28	569.37
674.62	565.53
674.96	561.73
675.30	558.17
675.64	554.46
675.97	550.83
676.31	547.21
676.65	543.59
676.99	540.12
677.33	536.21
677.67	532.53
678.01	528.59
678.34	524.88
678.68	521.30
679.02	517.62
679.36	513.87
679.70	510.13
680.04	506.50
680.37	503.00
680.71	499.61
681.05	496.35
681.39	493.07
681.73	489.87
682.06	486.81
682.40	483.66
682.74	480.48
683.08	477.25
683.42	474.02
683.75	470.97
684.09	467.91
684.43	465.13
684.77	462.18
685.10	459.33
685.44	456.36
685.78	453.38
686.12	450.56
686.45	447.78
686.79	445.05
687.13	442.50
687.46	439.87
687.80	437.16
688.14	434.27
688.48	431.56
688.81	428.84
689.15	426.26
689.49	423.59
689.82	420.97
690.16	418.37
690.50	415.91
690.83	413.37
691.17	410.70
691.51	408.15
691.84	405.86
692.18	403.64
692.52	401.40
692.85	399.26
693.19	397.10
693.52	394.96
693.86	392.79
694.20	390.53
694.53	388.33
694.87	386.07
695.21	383.95
695.54	381.76
695.88	379.56
696.21	377.30
696.55	375.15
696.88	373.13
697.22	371.10
697.56	369.15
697.89	367.23
698.23	365.53
698.56	363.71
698.90	361.91
699.23	359.96
699.57	358.04
699.90	356.12
700.24	354.24
700.58	352.46
700.91	350.75
701.25	349.18
701.58	347.57
701.92	346.00
702.25	344.38
702.59	342.78
702.92	341.20
703.26	339.63
703.59	338.13
703.93	336.80
704.26	335.32
704.60	333.82
704.93	332.33
705.26	330.72
705.60	329.23
705.93	327.66
706.27	326.26
706.60	325.00
706.94	323.73
707.27	322.34
707.61	320.97
707.94	319.57
708.27	318.04
708.61	316.56
708.94	315.17
709.28	313.86
709.61	312.58
709.94	311.39
710.28	310.16
710.61	308.98
710.95	307.56
711.28	306.43
711.61	305.23
711.95	304.10
712.28	302.97
712.61	301.79
712.95	300.77
713.28	299.71
713.61	298.54
713.95	297.41
714.28	296.41
714.61	295.35
714.95	294.34
715.28	293.30
715.61	292.31
715.95	291.33
716.28	290.37
716.61	289.42
716.95	288.37
717.28	287.44
717.61	286.47
717.94	285.57
718.28	284.58
718.61	283.70
718.94	282.79
719.27	281.94
719.61	281.11
719.94	280.21
720.27	279.26
720.60	278.38
720.94	277.56
721.27	276.77
721.60	276.03
721.93	275.29
722.27	274.64
722.60	273.95
722.93	273.21
723.26	272.54
723.59	271.83
723.93	271.21
724.26	270.54
724.59	269.84
724.92	269.23
725.25	268.69
725.59	268.04
725.92	267.48
726.25	266.89
726.58	266.29
726.91	265.67
727.24	265.13
727.57	264.58
727.91	263.96
728.24	263.40
728.57	262.80
728.90	262.22
729.23	261.60
729.56	261.17
729.89	260.64
730.22	260.06
730.55	259.53
730.89	258.96
731.22	258.44
731.55	257.96
731.88	257.43
732.21	256.85
732.54	256.34
732.87	255.80
733.20	255.31
733.53	254.83
733.86	254.40
734.19	253.90
734.52	253.49
734.85	253.17
735.18	252.70
735.51	252.32
735.84	251.94
736.17	251.55
736.50	251.02
736.83	250.85
737.16	250.43
737.49	250.02
737.82	249.62
738.15	249.23
738.48	248.80
738.81	248.42
739.14	248.00
739.47	247.61
739.80	247.25
740.13	246.87
740.46	246.48
740.79	246.07
741.12	245.74
741.45	245.35
741.78	244.92
742.11	244.64
742.44	244.26
742.77	243.95
743.10	243.58
743.43	243.23
743.75	242.65
744.08	242.61
744.41	242.27
744.74	241.94
745.07	241.55
745.40	241.27
745.73	240.98
746.06	240.67
746.39	240.35
746.71	239.98
747.04	239.64
747.37	239.33
747.70	239.03
748.03	238.70
748.36	238.43
748.68	238.10
749.01	237.71
749.34	237.43
749.67	237.10
750.00	236.83
750.33	236.70
750.65	236.45
750.98	235.88
751.31	235.63
751.64	235.38
751.97	235.26
752.29	235.00
752.62	234.66
752.95	234.39
753.28	234.14
753.60	233.91
753.93	233.74
754.26	233.50
754.59	233.27
754.91	233.06
755.24	232.78
755.57	232.57
755.90	232.37
756.22	232.14
756.55	231.93
756.88	231.71
757.20	231.33
757.53	231.08
757.86	230.89
758.19	230.70
758.51	230.50
758.84	230.16
759.17	229.95
759.49	229.77
759.82	229.69
760.15	229.54
760.47	229.37
760.80	229.12
761.13	228.97
761.45	228.76
761.78	228.58
762.11	228.39
762.43	228.19
762.76	227.99
763.08	227.81
763.41	227.64
763.74	227.46
764.06	227.31
764.39	227.13
764.71	226.97
765.04	226.79
765.37	226.61
765.69	226.48
766.02	226.34
766.34	226.20
766.67	226.00
767.00	225.89
767.32	225.86
767.65	225.84
767.97	225.70
768.30	225.61
768.62	225.47
768.95	225.36
769.27	225.23
769.60	225.17
769.92	225.02
770.25	224.84
770.57	224.66
770.90	224.56
771.22	224.41
771.55	224.30
771.87	224.18
772.20	224.07
772.52	224.11
772.85	224.23
773.17	224.14
773.50	224.00
773.82	223.84
774.15	223.62
774.47	223.40
774.80	223.27
775.12	223.11
775.45	223.02
775.77	222.92
776.09	222.87
776.42	222.75
776.74	222.74
777.07	222.69
777.39	222.64
777.72	222.49
778.04	222.44
778.36	222.36
778.69	222.28
779.01	222.20
779.33	221.96
779.66	221.65
779.98	221.53
780.31	221.47
780.63	221.52
780.95	221.47
781.28	221.39
781.60	221.28
781.92	221.23
782.25	221.14
782.57	221.11
782.89	220.97
783.22	220.86
783.54	220.75
783.86	220.69
784.19	220.64
784.51	220.66
784.83	220.57
785.16	220.47
785.48	220.40
785.80	220.36
786.12	220.29
786.45	220.25
786.77	220.22
787.09	220.15
787.42	219.94
787.74	219.91
788.06	219.89
788.38	219.86
788.71	219.80
789.03	219.77
789.35	219.72
789.67	219.68
789.99	219.67
790.32	219.57
790.64	219.52
790.96	219.66
791.28	219.55
791.61	219.52
791.93	219.51
792.25	219.45
792.57	219.59
792.89	219.53
793.21	219.47
793.54	219.40
793.86	219.31
794.18	219.32
794.50	219.23
794.82	219.19
795.14	219.14
795.47	219.10
795.79	219.06
796.11	218.98
796.43	218.91
796.75	218.87
797.07	218.88
797.39	218.81
797.71	218.60
798.04	218.60
798.36	218.57
798.68	218.56
799.00	218.55
799.32	218.42
799.64	218.43
799.96	218.41
800.28	218.44
800.60	218.41
800.92	218.38
801.24	218.31
801.56	218.29
801.89	218.25
802.21	218.24
802.53	218.19
802.85	218.19
803.17	218.28
803.49	218.20
803.81	218.12
804.13	218.09
804.45	218.02
804.77	217.99
805.09	217.98
805.41	217.90
805.73	217.85
806.05	217.73
806.37	217.67
806.69	217.64
807.01	217.57
807.33	217.61
807.65	217.52
807.97	217.62
808.28	217.56
808.60	217.53
808.92	217.51
809.24	217.59
809.56	217.56
809.88	217.46
810.20	217.46
810.52	217.46
810.84	217.42
811.16	217.39
811.48	217.35
811.80	217.37
812.12	217.35
812.43	217.36
812.75	217.35
813.07	217.30
813.39	217.27
813.71	217.22
814.03	217.14
814.35	217.14
814.67	217.04
814.98	217.02
815.30	216.99
815.62	216.91
815.94	216.77
816.26	216.74
816.58	216.69
816.89	216.68
817.21	216.64
817.53	216.65
817.85	216.64
818.17	216.61
818.48	216.49
818.80	216.51
819.12	216.47
819.44	216.41
819.76	216.39
820.07	216.36
820.39	216.37
820.71	216.37
821.03	216.32
821.34	216.29
821.66	216.28
821.98	216.31
822.30	216.28
822.61	216.38
822.93	216.32
823.25	216.31
823.57	216.27
823.88	216.29
824.20	216.27
824.52	216.29
824.83	216.25
825.15	216.22
825.47	216.18
825.79	216.18
826.10	216.16
826.42	216.14
826.74	216.16
827.05	216.12
827.37	216.09
827.69	216.07
828.00	216.05
828.32	216.05
828.64	215.98
828.95	216.07
829.27	216.01
829.58	216.01
829.90	216.04
830.22	216.04
830.53	215.96
830.85	215.94
831.17	215.89
831.48	215.90
831.80	215.89
832.11	215.88
832.43	215.83
832.75	215.84
833.06	215.99
833.38	215.91
833.69	215.88
834.01	215.90
834.32	215.90
834.64	215.87
834.96	215.85
835.27	215.83
835.59	215.73
835.90	215.67
836.22	215.68
836.53	215.60
836.85	215.62
837.16	215.81
837.48	215.79
837.79	215.82
838.11	215.81
838.42	215.82
838.74	215.81
839.05	215.77
839.37	215.74
839.68	215.57
840.00	215.55
840.31	215.57
840.63	215.53
840.94	215.48
841.26	215.48
841.57	215.50
841.88	215.51
842.20	215.50
842.51	215.48
842.83	215.45
843.14	215.66
843.46	215.60
843.77	215.51
844.08	215.47
844.40	215.40
844.71	215.40
845.03	215.36
845.34	215.32
845.65	215.31
845.97	215.33
846.28	215.36
846.60	215.39
846.91	215.37
847.22	215.38
847.54	215.43
847.85	215.46
848.16	215.40
848.48	215.35
848.79	215.43
849.10	215.44
849.42	215.44
849.73	215.21
850.04	215.19
850.36	215.07
850.67	215.12
850.98	215.13
851.30	215.13
851.61	215.14
851.92	215.16
852.23	215.23
852.55	215.20
852.86	215.19
853.17	215.20
853.49	215.24
853.80	215.26
854.11	215.27
854.42	215.22
854.74	215.21
855.05	215.23
855.36	215.10
855.67	215.12
855.99	215.11
856.30	215.40
856.61	215.41
856.92	215.43
857.23	215.40
857.55	215.39
857.86	215.37
858.17	215.41
858.48	215.37
858.79	215.32
859.11	215.37
859.42	215.33
859.73	215.31
860.04	215.26
860.35	215.20
860.66	215.12
860.98	215.14
861.29	215.14
861.60	215.12
861.91	215.15
862.22	215.09
862.53	215.08
862.84	214.78
863.16	214.83
863.47	214.81
863.78	214.78
864.09	214.78
864.40	214.79
864.71	214.80
865.02	214.82
865.33	214.83
865.64	214.77
865.95	214.77
866.27	214.88
866.58	214.87
866.89	214.91
867.20	214.91
867.51	214.87
867.82	214.86
868.13	214.94
868.44	214.91
868.75	214.94
869.06	214.95
869.37	215.03
869.68	214.98
869.99	215.00
870.30	215.02
870.61	215.05
870.92	215.04
871.23	215.00
871.54	215.02
871.85	215.05
872.16	215.06
872.47	215.05
872.78	214.93
873.09	214.93
873.40	214.91
873.71	214.92
874.02	214.94
874.33	214.95
874.64	214.90
874.95	214.95
875.26	214.92
875.56	214.92
875.87	214.87
876.18	214.85
876.49	215.06
876.80	215.06
877.11	215.00
877.42	214.98
877.73	215.00
878.04	214.96
878.35	214.93
878.66	214.94
878.96	214.96
879.27	214.95
879.58	214.93
879.89	214.92
880.20	214.97
880.51	214.97
880.82	214.96
881.12	215.00
881.43	214.94
881.74	214.92
882.05	214.87
882.36	214.89
882.67	214.91
882.97	214.68
883.28	214.64
883.59	214.63
883.90	214.64
884.21	214.68
884.51	214.67
884.82	214.64
885.13	214.64
885.44	214.62
885.74	214.61
886.05	214.62
886.36	214.62
886.67	214.54
886.98	214.65
887.28	214.65
887.59	214.62
887.90	214.64
888.20	214.64
888.51	214.69
888.82	214.66
889.13	214.70
889.43	214.87
889.74	214.90
890.05	214.89
890.35	214.87
890.66	214.78
890.97	214.77
891.28	214.77
891.58	214.75
891.89	214.72
892.20	214.71
892.50	214.70
892.81	214.70
893.12	214.72
893.42	214.61
893.73	214.64
894.04	214.66
894.34	214.67
894.65	214.66
894.95	214.63
895.26	214.65
895.57	214.72
895.87	214.53
896.18	214.55
896.48	214.59
896.79	214.59
897.10	214.61
897.40	214.61
897.71	214.62
898.01	214.63
898.32	214.66
898.63	214.65
898.93	214.65
899.24	214.62
899.54	214.59
899.85	214.57
900.15	214.54
900.46	214.51
900.76	214.53
901.07	214.54
901.38	214.50
901.68	214.50
901.99	214.38
902.29	214.39
902.60	214.38
902.90	214.37
903.21	214.38
903.51	214.39
903.82	214.44
904.12	214.46
904.43	214.47
904.73	214.49
905.03	214.52
905.34	214.73
905.64	214.74
905.95	214.75
906.25	214.75
906.56	214.78
906.86	214.80
907.17	214.77
907.47	214.78
907.77	214.79
908.08	214.77
908.38	214.79
908.69	214.80
908.99	214.81
909.30	214.83
909.60	214.84
909.90	214.89
910.21	214.85
910.51	214.81
910.81	214.80
911.12	214.84
911.42	214.83
911.73	214.60
912.03	214.61
912.33	214.67
912.64	214.69
912.94	214.66
913.24	214.59
913.55	214.60
913.85	214.60
914.15	214.64
914.46	214.69
914.76	214.68
915.06	214.66
915.37	214.63
915.67	214.61
915.97	214.59
916.27	214.49
916.58	214.48
916.88	214.47
917.18	214.49
917.49	214.60
917.79	214.60
918.09	214.62
918.39	214.69
918.70	214.67
919.00	214.68
919.30	214.78
919.60	214.77
919.91	214.73
920.21	214.71
920.51	214.67
920.81	214.63
921.12	214.68
921.42	214.68
921.72	214.67
922.02	214.67
922.32	214.70
922.63	214.71
922.93	214.83
923.23	214.84
923.53	214.78
923.83	214.62
924.13	214.62
924.44	214.62
924.74	214.63
925.04	214.68
925.34	214.68
925.64	214.56
925.94	214.56
926.24	214.71
926.55	214.71
926.85	214.79
927.15	214.81
927.45	214.78
927.75	214.78
928.05	214.78
928.35	214.79
928.65	214.84
928.95	214.85
929.26	214.76
929.56	214.81
929.86	214.83
930.16	214.84
930.46	214.83
930.76	214.84
931.06	214.75
931.36	214.66
931.66	214.66
931.96	214.73
932.26	214.75
932.56	214.65
932.86	214.67
933.16	214.62
933.46	214.59
933.76	214.55
934.06	214.62
934.36	214.70
934.66	214.67
934.96	214.62
935.26	214.65
935.56	214.66
935.86	214.59
936.16	214.58
936.46	214.57
936.76	214.57
937.06	214.55
937.36	214.56
937.66	214.55
937.96	214.53
938.26	214.45
938.56	214.43
938.86	214.43
939.16	214.44
939.46	214.45
939.76	214.45
940.06	214.45
940.35	214.38
940.65	214.27
940.95	214.29
941.25	214.23
941.55	214.19
941.85	214.18
942.15	214.25
942.45	214.30
942.75	214.29
943.04	214.29
943.34	214.34
943.64	214.32
943.94	214.32
944.24	214.34
944.54	214.36
944.84	214.37
945.13	214.38
945.43	214.35
945.73	214.34
946.03	214.29
946.33	214.28
946.62	214.23
946.92	214.26
947.22	214.27
947.52	214.24
947.82	214.28
948.11	214.25
948.41	214.21
948.71	214.20
949.01	214.21
949.31	214.17
949.60	214.13
949.90	214.16
950.20	214.15
950.50	214.14
950.79	214.12
951.09	214.13
951.39	214.10
951.69	214.08
951.98	214.11
952.28	214.14
952.58	214.12
952.87	214.16
953.17	214.18
953.47	214.17
953.76	214.21
954.06	214.18
954.36	214.18
954.66	214.13
954.95	214.14
955.25	214.15
955.55	214.20
955.84	214.17
956.14	214.21
956.44	214.26
956.73	214.26
957.03	214.29
957.32	214.31
957.62	214.31
957.92	214.36
958.21	214.34
958.51	214.59
958.81	214.64
959.10	214.66
959.40	214.70
959.69	214.73
959.99	214.80
960.29	214.78
960.58	214.77
960.88	214.86
961.17	214.84
961.47	214.85
961.76	214.83
962.06	214.90
962.36	214.85
962.65	214.80
962.95	214.80
963.24	214.77
963.54	214.78
963.83	214.81
964.13	214.82
964.42	214.79
964.72	214.61
965.01	214.64
965.31	214.63
965.60	214.57
965.90	214.68
966.19	214.63
966.49	214.67
966.78	214.64
967.08	214.64
967.37	214.66
967.67	214.62
967.96	214.65
968.26	214.61
968.55	214.63
968.85	214.64
969.14	214.62
969.43	214.64
969.73	214.59
970.02	214.55
970.32	214.53
970.61	214.51
970.91	214.46
971.20	214.37
971.49	214.34
971.79	214.38
972.08	214.26
972.38	214.25
972.67	214.21
972.96	214.27
973.26	214.23
973.55	214.29
973.85	214.28
974.14	214.28
974.43	214.29
974.73	214.27
975.02	214.27
975.31	214.26
975.61	214.26
975.90	214.25
976.19	214.26
976.49	214.26
976.78	214.29
977.07	214.28
977.37	214.34
977.66	214.34
977.95	214.30
978.24	214.30
978.54	214.33
978.83	214.32
979.12	214.30
979.42	214.32
979.71	214.26
980.00	214.27
980.29	214.24
980.59	214.18
980.88	214.24
981.17	214.25
981.46	214.28
981.76	214.27
982.05	214.33
982.34	214.33
982.63	214.33
982.93	214.30
983.22	214.37
983.51	214.34
983.80	214.36
984.09	214.38
984.39	214.36
984.68	214.34
984.97	214.34
985.26	214.33
985.55	214.32
985.85	214.32
986.14	214.35
986.43	214.41
986.72	214.41
987.01	214.34
987.30	214.33
987.59	214.32
987.89	214.35
988.18	214.29
988.47	214.27
988.76	214.26
989.05	214.27
989.34	214.22
989.63	214.29
989.92	214.27
990.22	214.23
990.51	214.22
990.80	214.20
991.09	214.26
991.38	214.26
991.67	214.24
991.96	214.21
992.25	214.21
992.54	214.17
992.83	214.18
993.12	214.16
993.41	214.19
993.70	214.26
993.99	214.29
994.28	214.33
994.58	214.35
994.87	214.31
995.16	214.32
995.45	214.30
995.74	214.22
996.03	214.25
996.32	214.31
996.61	214.38
996.90	214.37
997.19	214.34
997.48	214.34
997.77	214.31
998.06	214.30
998.34	214.28
998.63	214.26
998.92	214.27
999.21	214.31
999.50	214.32
999.79	214.24
1000.08	214.22
1000.37	214.19
1000.66	214.18
1000.95	214.27
1001.24	214.26
1001.53	214.29
1001.82	214.30
1002.11	214.28
1002.40	214.31
1002.68	214.31
1002.97	214.46
1003.26	214.45
1003.55	214.42
1003.84	214.47
1004.13	214.57
1004.42	214.58
1004.71	214.58
1004.99	214.57
1005.28	214.64
1005.57	214.65
1005.86	214.63
1006.15	214.63
1006.44	214.63
1006.72	214.66
1007.01	214.60
1007.30	214.60
1007.59	214.58
1007.88	214.59
1008.17	214.59
1008.45	214.50
1008.74	214.41
1009.03	214.33
1009.32	214.34
1009.60	214.35
1009.89	214.34
1010.18	214.23
1010.47	214.22
1010.76	214.23
1011.04	214.24
1011.33	214.24
1011.62	214.20
1011.91	214.21
1012.19	214.22
1012.48	214.20
1012.77	214.17
1013.05	214.25
1013.34	214.25
1013.63	214.26
1013.92	214.24
1014.20	214.22
1014.49	214.28
1014.78	214.28
1015.06	214.20
1015.35	214.18
1015.64	214.20
1015.92	214.19
1016.21	214.22
1016.50	214.23
1016.78	214.25
1017.07	214.22
1017.36	214.17
1017.64	214.17
1017.93	214.19
1018.22	214.14
1018.50	214.17
1018.79	214.17
1019.08	214.08
1019.36	214.07
1019.65	214.03
1019.93	214.10
1020.22	214.12
1020.51	214.21
1020.79	214.22
1021.08	213.60
1021.36	214.20
1021.65	213.99
1021.94	214.23
1022.22	213.62
1022.51	213.62
1022.79	215.13
1023.08	214.23
1023.36	216.57
1023.65	213.81
>>>>>End Processed Spectral Data<<<<<
