SpectraSuite Data File
++++++++++++++++++++++++++++++++++++
Date: Tue Jan 29 16:26:40 EST 2013
User: group
Dark Spectrum Present: No
Reference Spectrum Present: No
Number of Sampled Component Spectra: 1
Spectrometers: USB2E7196
Integration Time (usec): 65000 (USB2E7196)
Spectra Averaged: 100 (USB2E7196)
Boxcar Smoothing: 10 (USB2E7196)
Correct for Electrical Dark: No (USB2E7196)
Strobe/Lamp Enabled: No (USB2E7196)
Correct for Detector Non-linearity: No (USB2E7196)
Correct for Stray Light: No (USB2E7196)
Number of Pixels in Processed Spectrum: 2048
>>>>>Begin Processed Spectral Data<<<<<
339.09	0.00
339.48	202.33
339.86	203.30
340.24	204.95
340.63	205.97
341.01	210.53
341.39	208.72
341.78	210.56
342.16	212.36
342.54	212.09
342.93	201.19
343.31	211.36
343.69	211.90
344.07	212.38
344.46	212.81
344.84	213.22
345.22	213.40
345.60	213.70
345.99	213.89
346.37	213.98
346.75	214.10
347.13	214.21
347.52	214.25
347.90	214.39
348.28	214.42
348.66	214.48
349.05	214.43
349.43	214.49
349.81	214.55
350.19	214.64
350.57	214.71
350.96	214.83
351.34	214.92
351.72	215.01
352.10	215.12
352.48	215.20
352.87	215.26
353.25	215.33
353.63	215.36
354.01	215.43
354.39	215.52
354.77	215.55
355.15	215.68
355.54	215.76
355.92	215.76
356.30	215.84
356.68	216.04
357.06	216.18
357.44	216.26
357.82	216.31
358.20	216.39
358.58	216.45
358.97	216.51
359.35	216.60
359.73	216.71
360.11	216.78
360.49	216.85
360.87	216.91
361.25	217.01
361.63	217.13
362.01	217.19
362.39	217.20
362.77	217.29
363.15	217.29
363.53	217.31
363.91	217.31
364.29	217.37
364.67	217.19
365.05	217.18
365.43	217.22
365.81	217.25
366.19	217.32
366.57	217.44
366.95	217.45
367.33	217.38
367.71	217.38
368.09	217.41
368.47	217.41
368.85	217.42
369.23	217.44
369.61	217.37
369.99	217.41
370.37	217.44
370.75	217.54
371.13	217.49
371.51	217.45
371.89	217.49
372.27	217.48
372.65	217.51
373.03	217.50
373.41	217.42
373.78	217.39
374.16	217.28
374.54	217.17
374.92	217.08
375.30	217.08
375.68	217.00
376.06	216.96
376.44	216.91
376.82	216.87
377.19	216.83
377.57	216.78
377.95	216.69
378.33	216.61
378.71	216.41
379.09	216.40
379.47	216.35
379.84	216.28
380.22	216.18
380.60	216.11
380.98	216.05
381.36	216.00
381.73	215.95
382.11	215.96
382.49	215.92
382.87	215.89
383.25	215.87
383.62	216.06
384.00	215.98
384.38	215.98
384.76	215.97
385.13	216.00
385.51	215.95
385.89	215.90
386.27	215.92
386.64	215.96
387.02	215.93
387.40	215.91
387.78	215.89
388.15	215.89
388.53	215.86
388.91	215.85
389.29	215.83
389.66	215.82
390.04	215.77
390.42	215.76
390.79	215.77
391.17	215.72
391.55	215.49
391.92	215.49
392.30	215.45
392.68	215.39
393.05	215.35
393.43	215.38
393.81	215.37
394.18	215.34
394.56	215.33
394.94	215.38
395.31	215.38
395.69	215.47
396.06	215.48
396.44	215.51
396.82	215.50
397.19	215.63
397.57	215.64
397.95	215.71
398.32	215.72
398.70	215.80
399.07	215.88
399.45	215.91
399.82	215.94
400.20	216.01
400.58	216.08
400.95	216.09
401.33	216.14
401.70	216.37
402.08	216.43
402.45	216.51
402.83	216.63
403.20	216.75
403.58	216.82
403.95	216.97
404.33	217.10
404.71	217.24
405.08	217.51
405.46	217.68
405.83	217.86
406.21	218.06
406.58	218.25
406.96	218.49
407.33	218.74
407.70	219.00
408.08	219.44
408.45	219.79
408.83	220.13
409.20	220.48
409.58	220.73
409.95	221.21
410.33	221.67
410.70	222.12
411.08	222.65
411.45	223.23
411.82	223.83
412.20	224.53
412.57	225.35
412.95	225.90
413.32	226.73
413.69	227.56
414.07	228.47
414.44	229.44
414.82	230.47
415.19	231.67
415.56	232.87
415.94	234.07
416.31	235.47
416.68	236.90
417.06	238.52
417.43	240.08
417.81	241.80
418.18	243.58
418.55	245.48
418.93	247.49
419.30	249.56
419.67	251.78
420.04	254.04
420.42	256.40
420.79	259.23
421.16	262.01
421.54	264.90
421.91	267.85
422.28	270.95
422.66	274.25
423.03	277.48
423.40	280.87
423.77	284.45
424.15	288.09
424.52	291.94
424.89	296.06
425.26	300.13
425.64	304.01
426.01	308.26
426.38	312.73
426.75	317.27
427.13	322.03
427.50	326.98
427.87	332.14
428.24	337.36
428.61	342.32
428.99	347.83
429.36	353.81
429.73	359.69
430.10	365.46
430.47	371.43
430.85	377.73
431.22	384.36
431.59	391.42
431.96	398.23
432.33	405.70
432.70	412.99
433.08	421.47
433.45	429.51
433.82	437.55
434.19	446.43
434.56	455.11
434.93	463.37
435.30	471.66
435.68	480.75
436.05	489.68
436.42	498.59
436.79	506.71
437.16	515.43
437.53	524.72
437.90	533.93
438.27	542.94
438.64	552.15
439.01	560.68
439.38	568.23
439.75	575.53
440.13	583.93
440.50	591.81
440.87	598.21
441.24	604.82
441.61	612.09
441.98	617.39
442.35	623.76
442.72	630.09
443.09	636.02
443.46	639.80
443.83	642.34
444.20	644.53
444.57	647.65
444.94	649.15
445.31	650.59
445.68	651.96
446.05	652.53
446.42	651.68
446.79	650.79
447.16	649.74
447.53	649.02
447.90	645.68
448.27	642.43
448.64	637.83
449.01	634.55
449.37	628.68
449.74	623.02
450.11	616.07
450.48	608.70
450.85	601.29
451.22	594.84
451.59	588.66
451.96	582.81
452.33	575.00
452.70	567.89
453.07	559.46
453.43	550.86
453.80	542.62
454.17	534.69
454.54	527.09
454.91	518.96
455.28	510.95
455.65	503.56
456.02	496.09
456.38	489.77
456.75	481.92
457.12	475.35
457.49	468.94
457.86	462.78
458.23	457.40
458.59	451.56
458.96	445.53
459.33	440.26
459.70	434.90
460.07	430.63
460.43	425.75
460.80	421.13
461.17	417.19
461.54	413.00
461.91	409.02
462.27	404.97
462.64	401.51
463.01	397.72
463.38	394.03
463.74	390.35
464.11	387.09
464.48	384.26
464.85	381.20
465.21	378.79
465.58	376.19
465.95	373.09
466.32	370.47
466.68	367.91
467.05	365.39
467.42	362.87
467.78	360.21
468.15	357.69
468.52	355.81
468.88	353.29
469.25	351.04
469.62	349.20
469.98	347.20
470.35	345.39
470.72	343.72
471.08	341.93
471.45	340.39
471.82	338.91
472.18	337.26
472.55	336.04
472.92	334.67
473.28	333.44
473.65	332.28
474.02	331.19
474.38	330.29
474.75	329.50
475.11	328.68
475.48	328.08
475.85	327.60
476.21	327.14
476.58	326.82
476.94	326.64
477.31	326.37
477.67	326.15
478.04	326.01
478.41	325.97
478.77	326.13
479.14	326.05
479.50	326.15
479.87	326.43
480.23	326.74
480.60	326.95
480.96	327.24
481.33	327.86
481.69	328.42
482.06	328.91
482.42	329.39
482.79	329.98
483.15	330.78
483.52	331.73
483.88	332.60
484.25	333.51
484.61	334.52
484.98	335.59
485.34	336.96
485.71	338.34
486.07	339.78
486.44	341.06
486.80	342.71
487.17	344.44
487.53	346.26
487.90	348.15
488.26	350.16
488.62	352.28
488.99	354.31
489.35	356.46
489.72	358.86
490.08	361.41
490.44	364.02
490.81	366.74
491.17	369.46
491.54	372.45
491.90	375.48
492.26	378.79
492.63	382.13
492.99	385.57
493.36	389.22
493.72	393.12
494.08	397.19
494.45	401.43
494.81	405.78
495.17	410.25
495.54	414.96
495.90	419.82
496.26	424.83
496.63	430.01
496.99	435.39
497.35	440.97
497.72	446.82
498.08	452.78
498.44	458.93
498.80	465.42
499.17	471.91
499.53	478.66
499.89	485.53
500.26	492.57
500.62	499.70
500.98	507.18
501.34	514.70
501.71	522.54
502.07	530.43
502.43	538.48
502.79	546.67
503.16	555.11
503.52	563.76
503.88	572.46
504.24	581.47
504.60	590.66
504.97	599.97
505.33	609.28
505.69	619.24
506.05	629.09
506.41	638.96
506.78	649.10
507.14	659.45
507.50	670.01
507.86	680.81
508.22	691.67
508.59	702.37
508.95	713.52
509.31	724.80
509.67	736.34
510.03	747.85
510.39	759.63
510.75	771.57
511.12	783.57
511.48	795.79
511.84	808.19
512.20	820.52
512.56	833.17
512.92	846.07
513.28	858.80
513.64	871.67
514.00	884.64
514.37	897.67
514.73	910.87
515.09	923.92
515.45	936.95
515.81	950.06
516.17	963.58
516.53	976.86
516.89	990.06
517.25	1003.38
517.61	1016.92
517.97	1030.50
518.33	1043.71
518.69	1057.41
519.05	1071.28
519.41	1085.19
519.77	1099.33
520.13	1112.86
520.49	1126.12
520.85	1139.63
521.21	1153.11
521.57	1166.80
521.93	1180.08
522.29	1193.89
522.65	1207.72
523.01	1221.53
523.37	1234.94
523.73	1248.34
524.09	1261.67
524.45	1275.30
524.81	1288.91
525.17	1302.45
525.53	1315.79
525.89	1329.23
526.25	1342.48
526.61	1355.50
526.97	1368.61
527.33	1381.69
527.68	1395.24
528.04	1408.90
528.40	1422.06
528.76	1435.60
529.12	1448.61
529.48	1462.01
529.84	1474.36
530.20	1487.19
530.56	1499.70
530.91	1513.02
531.27	1525.94
531.63	1538.86
531.99	1551.78
532.35	1564.17
532.71	1576.75
533.07	1589.71
533.42	1602.03
533.78	1614.26
534.14	1626.37
534.50	1637.81
534.86	1649.34
535.21	1660.37
535.57	1672.05
535.93	1683.44
536.29	1694.66
536.65	1706.40
537.00	1717.41
537.36	1728.96
537.72	1740.05
538.08	1751.71
538.44	1762.76
538.79	1774.08
539.15	1785.05
539.51	1795.80
539.87	1807.11
540.22	1817.95
540.58	1829.06
540.94	1840.03
541.29	1850.35
541.65	1860.20
542.01	1870.63
542.37	1880.69
542.72	1890.87
543.08	1900.61
543.44	1911.29
543.79	1920.58
544.15	1930.02
544.51	1940.19
544.87	1950.15
545.22	1959.42
545.58	1968.32
545.94	1977.24
546.29	1985.74
546.65	1994.02
547.01	2002.34
547.36	2010.04
547.72	2017.85
548.07	2025.45
548.43	2033.27
548.79	2041.20
549.14	2049.49
549.50	2058.10
549.86	2066.27
550.21	2073.75
550.57	2081.57
550.92	2088.35
551.28	2096.04
551.64	2103.39
551.99	2110.93
552.35	2118.27
552.70	2125.19
553.06	2131.84
553.41	2138.26
553.77	2144.76
554.13	2151.30
554.48	2158.39
554.84	2165.67
555.19	2172.24
555.55	2178.66
555.90	2185.06
556.26	2191.90
556.61	2198.00
556.97	2202.98
557.32	2208.80
557.68	2215.26
558.03	2221.09
558.39	2226.50
558.74	2232.35
559.10	2237.89
559.45	2243.44
559.81	2248.94
560.16	2254.55
560.52	2260.54
560.87	2266.93
561.23	2273.06
561.58	2279.87
561.94	2285.15
562.29	2289.80
562.64	2296.02
563.00	2301.78
563.35	2307.33
563.71	2313.18
564.06	2318.79
564.42	2324.61
564.77	2329.72
565.12	2335.21
565.48	2340.42
565.83	2345.92
566.19	2351.48
566.54	2356.89
566.89	2361.64
567.25	2366.28
567.60	2372.09
567.96	2377.27
568.31	2381.92
568.66	2386.13
569.02	2390.13
569.37	2393.92
569.72	2398.51
570.08	2401.99
570.43	2405.16
570.78	2408.55
571.14	2411.13
571.49	2414.46
571.84	2418.19
572.20	2421.10
572.55	2424.01
572.90	2426.20
573.26	2428.95
573.61	2431.40
573.96	2433.73
574.31	2435.60
574.67	2437.51
575.02	2438.30
575.37	2439.80
575.72	2440.49
576.08	2441.96
576.43	2442.12
576.78	2442.66
577.13	2444.24
577.49	2445.44
577.84	2446.37
578.19	2447.57
578.54	2448.19
578.90	2448.79
579.25	2448.54
579.60	2448.60
579.95	2447.83
580.30	2448.01
580.66	2447.41
581.01	2445.86
581.36	2443.47
581.71	2442.22
582.06	2441.09
582.42	2440.11
582.77	2437.79
583.12	2436.29
583.47	2434.94
583.82	2434.32
584.17	2432.98
584.53	2430.88
584.88	2428.81
585.23	2426.91
585.58	2424.70
585.93	2422.59
586.28	2420.43
586.63	2418.01
586.98	2415.66
587.34	2413.74
587.69	2411.24
588.04	2409.21
588.39	2407.67
588.74	2405.09
589.09	2402.36
589.44	2399.32
589.79	2396.95
590.14	2394.96
590.49	2392.04
590.84	2388.22
591.19	2384.99
591.54	2381.82
591.89	2377.63
592.25	2374.33
592.60	2370.23
592.95	2366.00
593.30	2361.85
593.65	2357.53
594.00	2353.02
594.35	2350.14
594.70	2345.50
595.05	2340.85
595.40	2335.28
595.75	2329.55
596.10	2325.95
596.45	2321.14
596.80	2316.42
597.15	2311.17
597.50	2305.38
597.85	2300.40
598.19	2295.18
598.54	2289.48
598.89	2284.23
599.24	2279.78
599.59	2273.59
599.94	2267.71
600.29	2261.67
600.64	2255.79
600.99	2248.85
601.34	2243.38
601.69	2236.19
602.04	2229.73
602.39	2223.09
602.74	2217.08
603.08	2211.54
603.43	2204.98
603.78	2197.91
604.13	2190.78
604.48	2183.28
604.83	2177.07
605.18	2170.94
605.53	2163.91
605.87	2156.82
606.22	2149.91
606.57	2141.77
606.92	2133.78
607.27	2126.74
607.62	2120.16
607.96	2113.15
608.31	2106.68
608.66	2098.93
609.01	2091.32
609.36	2084.10
609.70	2076.39
610.05	2068.55
610.40	2060.09
610.75	2051.63
611.10	2044.03
611.44	2035.06
611.79	2026.41
612.14	2016.41
612.49	2005.45
612.83	1996.13
613.18	1986.78
613.53	1977.42
613.88	1967.86
614.22	1959.23
614.57	1949.40
614.92	1938.70
615.27	1928.28
615.61	1918.14
615.96	1908.31
616.31	1898.52
616.65	1889.01
617.00	1879.14
617.35	1869.38
617.70	1859.64
618.04	1849.72
618.39	1839.36
618.74	1829.66
619.08	1820.11
619.43	1811.35
619.78	1803.21
620.12	1794.52
620.47	1784.84
620.82	1774.51
621.16	1764.71
621.51	1754.72
621.85	1744.79
622.20	1734.32
622.55	1723.65
622.89	1713.62
623.24	1703.91
623.59	1694.13
623.93	1683.89
624.28	1674.02
624.62	1663.85
624.97	1653.53
625.32	1643.54
625.66	1634.60
626.01	1625.78
626.35	1616.21
626.70	1605.95
627.04	1595.62
627.39	1585.45
627.73	1576.00
628.08	1566.93
628.43	1557.11
628.77	1547.83
629.12	1538.85
629.46	1530.88
629.81	1522.51
630.15	1512.92
630.50	1502.98
630.84	1492.42
631.19	1482.43
631.53	1473.07
631.88	1462.83
632.22	1452.75
632.57	1443.28
632.91	1433.07
633.26	1423.15
633.60	1413.54
633.95	1404.23
634.29	1394.76
634.64	1385.29
634.98	1375.29
635.32	1365.90
635.67	1357.40
636.01	1347.91
636.36	1338.19
636.70	1328.64
637.05	1319.24
637.39	1310.20
637.73	1301.55
638.08	1293.91
638.42	1285.72
638.77	1276.88
639.11	1268.57
639.45	1260.55
639.80	1252.01
640.14	1243.28
640.49	1234.28
640.83	1225.35
641.17	1217.09
641.52	1208.81
641.86	1200.12
642.20	1192.18
642.55	1183.52
642.89	1174.57
643.23	1165.89
643.58	1157.55
643.92	1148.39
644.26	1139.47
644.61	1130.98
644.95	1121.95
645.29	1112.75
645.64	1103.45
645.98	1094.81
646.32	1086.75
646.66	1078.17
647.01	1069.72
647.35	1061.40
647.69	1052.95
648.04	1044.58
648.38	1035.50
648.72	1026.65
649.06	1018.19
649.41	1009.90
649.75	1001.85
650.09	993.85
650.43	985.69
650.78	977.24
651.12	969.44
651.46	961.94
651.80	954.59
652.14	947.30
652.49	939.65
652.83	932.24
653.17	924.52
653.51	916.89
653.85	909.60
654.20	902.29
654.54	894.78
654.88	887.44
655.22	880.14
655.56	873.08
655.90	866.24
656.25	859.39
656.59	852.33
656.93	845.16
657.27	837.91
657.61	830.89
657.95	824.83
658.29	818.86
658.64	812.67
658.98	806.15
659.32	799.56
659.66	793.24
660.00	786.86
660.34	780.75
660.68	774.51
661.02	768.00
661.36	761.90
661.70	756.09
662.05	750.40
662.39	744.81
662.73	739.39
663.07	733.90
663.41	728.28
663.75	722.55
664.09	716.79
664.43	711.39
664.77	706.06
665.11	700.12
665.45	694.12
665.79	688.24
666.13	682.48
666.47	676.89
666.81	671.41
667.15	665.87
667.49	660.57
667.83	655.26
668.17	649.98
668.51	644.83
668.85	639.74
669.19	634.76
669.53	629.69
669.87	624.54
670.21	619.69
670.55	614.90
670.89	610.47
671.23	606.12
671.57	601.70
671.91	597.28
672.25	593.09
672.58	588.96
672.92	584.91
673.26	580.93
673.60	576.98
673.94	573.04
674.28	569.42
674.62	565.62
674.96	561.83
675.30	558.34
675.64	554.61
675.97	551.01
676.31	547.37
676.65	543.74
676.99	540.23
677.33	536.35
677.67	532.70
678.01	528.74
678.34	525.09
678.68	521.44
679.02	517.84
679.36	514.09
679.70	510.34
680.04	506.68
680.37	503.17
680.71	499.84
681.05	496.64
681.39	493.37
681.73	490.18
682.06	487.15
682.40	484.00
682.74	480.77
683.08	477.57
683.42	474.38
683.75	471.31
684.09	468.25
684.43	465.40
684.77	462.40
685.10	459.51
685.44	456.52
685.78	453.62
686.12	450.78
686.45	448.01
686.79	445.33
687.13	442.80
687.46	440.11
687.80	437.34
688.14	434.49
688.48	431.71
688.81	428.99
689.15	426.35
689.49	423.71
689.82	421.11
690.16	418.41
690.50	415.89
690.83	413.37
691.17	410.85
691.51	408.39
691.84	406.10
692.18	403.89
692.52	401.68
692.85	399.51
693.19	397.34
693.52	395.13
693.86	392.92
694.20	390.71
694.53	388.55
694.87	386.36
695.21	384.19
695.54	382.08
695.88	379.89
696.21	377.62
696.55	375.42
696.88	373.42
697.22	371.44
697.56	369.51
697.89	367.57
698.23	365.74
698.56	363.92
698.90	362.11
699.23	360.17
699.57	358.21
699.90	356.29
700.24	354.44
700.58	352.71
700.91	351.01
701.25	349.40
701.58	347.76
701.92	346.13
702.25	344.49
702.59	342.83
702.92	341.26
703.26	339.73
703.59	338.27
703.93	336.91
704.26	335.48
704.60	333.98
704.93	332.50
705.26	330.98
705.60	329.46
705.93	327.92
706.27	326.53
706.60	325.30
706.94	324.06
707.27	322.64
707.61	321.25
707.94	319.81
708.27	318.26
708.61	316.78
708.94	315.38
709.28	314.05
709.61	312.81
709.94	311.55
710.28	310.27
710.61	309.05
710.95	307.61
711.28	306.47
711.61	305.21
711.95	304.07
712.28	302.89
712.61	301.70
712.95	300.63
713.28	299.57
713.61	298.40
713.95	297.19
714.28	296.15
714.61	295.08
714.95	294.04
715.28	293.02
715.61	292.03
715.95	291.06
716.28	290.09
716.61	289.12
716.95	288.13
717.28	287.22
717.61	286.25
717.94	285.33
718.28	284.27
718.61	283.46
718.94	282.51
719.27	281.61
719.61	280.78
719.94	279.90
720.27	278.96
720.60	278.05
720.94	277.29
721.27	276.57
721.60	275.86
721.93	275.18
722.27	274.55
722.60	273.83
722.93	273.10
723.26	272.43
723.59	271.70
723.93	271.07
724.26	270.39
724.59	269.72
724.92	269.14
725.25	268.64
725.59	268.02
725.92	267.48
726.25	266.92
726.58	266.31
726.91	265.70
727.24	265.18
727.57	264.61
727.91	263.94
728.24	263.33
728.57	262.73
728.90	262.16
729.23	261.52
729.56	261.08
729.89	260.54
730.22	259.95
730.55	259.41
730.89	258.86
731.22	258.35
731.55	257.84
731.88	257.32
732.21	256.69
732.54	256.13
732.87	255.62
733.20	255.12
733.53	254.67
733.86	254.24
734.19	253.72
734.52	253.32
734.85	253.05
735.18	252.59
735.51	252.23
735.84	251.80
736.17	251.42
736.50	250.88
736.83	250.74
737.16	250.34
737.49	249.95
737.82	249.54
738.15	249.16
738.48	248.76
738.81	248.36
739.14	247.96
739.47	247.60
739.80	247.22
740.13	246.87
740.46	246.41
740.79	246.00
741.12	245.66
741.45	245.26
741.78	244.82
742.11	244.52
742.44	244.11
742.77	243.84
743.10	243.46
743.43	243.11
743.75	242.52
744.08	242.50
744.41	242.11
744.74	241.75
745.07	241.38
745.40	241.09
745.73	240.84
746.06	240.51
746.39	240.18
746.71	239.84
747.04	239.49
747.37	239.22
747.70	238.96
748.03	238.66
748.36	238.40
748.68	238.08
749.01	237.75
749.34	237.45
749.67	237.13
750.00	236.91
750.33	236.78
750.65	236.52
750.98	236.00
751.31	235.80
751.64	235.57
751.97	235.47
752.29	235.19
752.62	234.87
752.95	234.63
753.28	234.39
753.60	234.16
753.93	234.01
754.26	233.75
754.59	233.45
754.91	233.19
755.24	232.91
755.57	232.67
755.90	232.42
756.22	232.19
756.55	231.89
756.88	231.61
757.20	231.26
757.53	231.02
757.86	230.79
758.19	230.59
758.51	230.39
758.84	230.05
759.17	229.83
759.49	229.65
759.82	229.57
760.15	229.40
760.47	229.22
760.80	228.95
761.13	228.81
761.45	228.60
761.78	228.40
762.11	228.26
762.43	228.06
762.76	227.90
763.08	227.78
763.41	227.64
763.74	227.54
764.06	227.39
764.39	227.23
764.71	227.06
765.04	226.87
765.37	226.70
765.69	226.55
766.02	226.43
766.34	226.28
766.67	226.04
767.00	225.94
767.32	225.91
767.65	225.89
767.97	225.74
768.30	225.67
768.62	225.55
768.95	225.37
769.27	225.26
769.60	225.17
769.92	225.01
770.25	224.86
770.57	224.67
770.90	224.54
771.22	224.41
771.55	224.28
771.87	224.18
772.20	224.04
772.52	224.09
772.85	224.23
773.17	224.12
773.50	224.05
773.82	223.89
774.15	223.69
774.47	223.48
774.80	223.35
775.12	223.24
775.45	223.15
775.77	223.09
776.09	222.99
776.42	222.86
776.74	222.81
777.07	222.70
777.39	222.62
777.72	222.51
778.04	222.44
778.36	222.39
778.69	222.32
779.01	222.29
779.33	222.04
779.66	221.71
779.98	221.62
780.31	221.52
780.63	221.53
780.95	221.52
781.28	221.42
781.60	221.36
781.92	221.29
782.25	221.23
782.57	221.14
782.89	221.07
783.22	221.02
783.54	220.92
783.86	220.92
784.19	220.84
784.51	220.86
784.83	220.78
785.16	220.70
785.48	220.57
785.80	220.49
786.12	220.43
786.45	220.38
786.77	220.32
787.09	220.27
787.42	220.14
787.74	220.03
788.06	219.99
788.38	219.92
788.71	219.86
789.03	219.82
789.35	219.82
789.67	219.72
789.99	219.70
790.32	219.61
790.64	219.56
790.96	219.68
791.28	219.55
791.61	219.49
791.93	219.46
792.25	219.44
792.57	219.56
792.89	219.48
793.21	219.43
793.54	219.38
793.86	219.29
794.18	219.29
794.50	219.20
794.82	219.15
795.14	219.14
795.47	219.09
795.79	219.01
796.11	218.89
796.43	218.88
796.75	218.83
797.07	218.79
797.39	218.71
797.71	218.52
798.04	218.53
798.36	218.50
798.68	218.45
799.00	218.44
799.32	218.28
799.64	218.29
799.96	218.28
800.28	218.27
800.60	218.24
800.92	218.17
801.24	218.14
801.56	218.11
801.89	218.05
802.21	218.05
802.53	217.99
802.85	218.03
803.17	218.08
803.49	218.00
803.81	217.97
804.13	217.94
804.45	217.91
804.77	217.90
805.09	217.89
805.41	217.84
805.73	217.74
806.05	217.64
806.37	217.58
806.69	217.53
807.01	217.47
807.33	217.48
807.65	217.41
807.97	217.48
808.28	217.44
808.60	217.41
808.92	217.37
809.24	217.48
809.56	217.42
809.88	217.35
810.20	217.33
810.52	217.38
810.84	217.31
811.16	217.26
811.48	217.18
811.80	217.21
812.12	217.17
812.43	217.20
812.75	217.21
813.07	217.20
813.39	217.18
813.71	217.13
814.03	217.08
814.35	217.05
814.67	216.97
814.98	216.94
815.30	216.93
815.62	216.87
815.94	216.71
816.26	216.70
816.58	216.64
816.89	216.65
817.21	216.58
817.53	216.59
817.85	216.57
818.17	216.56
818.48	216.47
818.80	216.50
819.12	216.49
819.44	216.44
819.76	216.37
820.07	216.31
820.39	216.29
820.71	216.29
821.03	216.27
821.34	216.20
821.66	216.20
821.98	216.16
822.30	216.11
822.61	216.22
822.93	216.17
823.25	216.17
823.57	216.11
823.88	216.12
824.20	216.09
824.52	216.09
824.83	216.07
825.15	216.02
825.47	215.97
825.79	215.98
826.10	215.94
826.42	215.95
826.74	216.00
827.05	215.98
827.37	215.98
827.69	215.93
828.00	215.96
828.32	215.94
828.64	215.91
828.95	216.05
829.27	215.96
829.58	215.96
829.90	215.96
830.22	215.98
830.53	215.89
830.85	215.87
831.17	215.80
831.48	215.80
831.80	215.80
832.11	215.80
832.43	215.74
832.75	215.73
833.06	215.86
833.38	215.77
833.69	215.74
834.01	215.71
834.32	215.72
834.64	215.68
834.96	215.70
835.27	215.70
835.59	215.57
835.90	215.53
836.22	215.52
836.53	215.48
836.85	215.43
837.16	215.62
837.48	215.63
837.79	215.72
838.11	215.72
838.42	215.70
838.74	215.70
839.05	215.68
839.37	215.69
839.68	215.53
840.00	215.54
840.31	215.59
840.63	215.57
840.94	215.56
841.26	215.56
841.57	215.53
841.88	215.55
842.20	215.56
842.51	215.52
842.83	215.52
843.14	215.69
843.46	215.69
843.77	215.59
844.08	215.56
844.40	215.48
844.71	215.44
845.03	215.45
845.34	215.47
845.65	215.45
845.97	215.44
846.28	215.40
846.60	215.40
846.91	215.38
847.22	215.38
847.54	215.42
847.85	215.39
848.16	215.38
848.48	215.31
848.79	215.36
849.10	215.40
849.42	215.39
849.73	215.20
850.04	215.15
850.36	215.06
850.67	215.11
850.98	215.14
851.30	215.16
851.61	215.10
851.92	215.02
852.23	215.07
852.55	215.07
852.86	215.08
853.17	215.08
853.49	215.11
853.80	215.13
854.11	215.12
854.42	215.16
854.74	215.11
855.05	215.14
855.36	215.02
855.67	215.02
855.99	215.02
856.30	215.26
856.61	215.30
856.92	215.30
857.23	215.26
857.55	215.22
857.86	215.19
858.17	215.24
858.48	215.25
858.79	215.20
859.11	215.22
859.42	215.22
859.73	215.19
860.04	215.16
860.35	215.10
860.66	215.04
860.98	215.04
861.29	215.09
861.60	215.06
861.91	215.10
862.22	215.08
862.53	215.04
862.84	214.80
863.16	214.84
863.47	214.81
863.78	214.81
864.09	214.80
864.40	214.82
864.71	214.81
865.02	214.82
865.33	214.82
865.64	214.81
865.95	214.82
866.27	214.96
866.58	214.95
866.89	214.97
867.20	214.96
867.51	214.90
867.82	214.90
868.13	214.98
868.44	214.95
868.75	215.00
869.06	215.00
869.37	215.01
869.68	214.93
869.99	214.99
870.30	215.00
870.61	215.03
870.92	215.00
871.23	215.00
871.54	215.03
871.85	215.07
872.16	215.07
872.47	215.05
872.78	214.93
873.09	214.93
873.40	214.91
873.71	214.94
874.02	214.95
874.33	214.92
874.64	214.88
874.95	214.88
875.26	214.80
875.56	214.81
875.87	214.80
876.18	214.83
876.49	215.01
876.80	214.99
877.11	214.93
877.42	214.93
877.73	214.92
878.04	214.87
878.35	214.86
878.66	214.84
878.96	214.86
879.27	214.82
879.58	214.79
879.89	214.80
880.20	214.84
880.51	214.82
880.82	214.81
881.12	214.80
881.43	214.78
881.74	214.80
882.05	214.77
882.36	214.78
882.67	214.76
882.97	214.52
883.28	214.52
883.59	214.56
883.90	214.58
884.21	214.62
884.51	214.62
884.82	214.58
885.13	214.60
885.44	214.57
885.74	214.58
886.05	214.56
886.36	214.57
886.67	214.47
886.98	214.58
887.28	214.59
887.59	214.59
887.90	214.61
888.20	214.57
888.51	214.63
888.82	214.59
889.13	214.60
889.43	214.78
889.74	214.77
890.05	214.72
890.35	214.71
890.66	214.63
890.97	214.59
891.28	214.57
891.58	214.57
891.89	214.57
892.20	214.55
892.50	214.52
892.81	214.53
893.12	214.55
893.42	214.45
893.73	214.47
894.04	214.48
894.34	214.49
894.65	214.50
894.95	214.45
895.26	214.48
895.57	214.55
895.87	214.34
896.18	214.38
896.48	214.42
896.79	214.41
897.10	214.46
897.40	214.48
897.71	214.50
898.01	214.45
898.32	214.50
898.63	214.49
898.93	214.52
899.24	214.50
899.54	214.51
899.85	214.49
900.15	214.49
900.46	214.48
900.76	214.50
901.07	214.49
901.38	214.50
901.68	214.49
901.99	214.42
902.29	214.44
902.60	214.42
902.90	214.39
903.21	214.41
903.51	214.40
903.82	214.46
904.12	214.47
904.43	214.48
904.73	214.46
905.03	214.49
905.34	214.70
905.64	214.69
905.95	214.66
906.25	214.67
906.56	214.65
906.86	214.64
907.17	214.58
907.47	214.60
907.77	214.57
908.08	214.55
908.38	214.56
908.69	214.58
908.99	214.62
909.30	214.64
909.60	214.59
909.90	214.60
910.21	214.53
910.51	214.50
910.81	214.54
911.12	214.54
911.42	214.56
911.73	214.35
912.03	214.38
912.33	214.42
912.64	214.42
912.94	214.37
913.24	214.36
913.55	214.39
913.85	214.36
914.15	214.43
914.46	214.45
914.76	214.45
915.06	214.46
915.37	214.44
915.67	214.42
915.97	214.44
916.27	214.40
916.58	214.44
916.88	214.45
917.18	214.44
917.49	214.56
917.79	214.51
918.09	214.55
918.39	214.60
918.70	214.59
919.00	214.61
919.30	214.73
919.60	214.73
919.91	214.69
920.21	214.70
920.51	214.64
920.81	214.61
921.12	214.64
921.42	214.61
921.72	214.59
922.02	214.59
922.32	214.63
922.63	214.62
922.93	214.73
923.23	214.72
923.53	214.70
923.83	214.56
924.13	214.61
924.44	214.58
924.74	214.62
925.04	214.68
925.34	214.65
925.64	214.58
925.94	214.55
926.24	214.67
926.55	214.66
926.85	214.67
927.15	214.68
927.45	214.67
927.75	214.67
928.05	214.68
928.35	214.66
928.65	214.67
928.95	214.69
929.26	214.58
929.56	214.61
929.86	214.66
930.16	214.67
930.46	214.65
930.76	214.66
931.06	214.55
931.36	214.49
931.66	214.54
931.96	214.55
932.26	214.58
932.56	214.51
932.86	214.51
933.16	214.52
933.46	214.51
933.76	214.47
934.06	214.50
934.36	214.54
934.66	214.54
934.96	214.55
935.26	214.57
935.56	214.57
935.86	214.58
936.16	214.55
936.46	214.54
936.76	214.52
937.06	214.48
937.36	214.49
937.66	214.50
937.96	214.50
938.26	214.46
938.56	214.45
938.86	214.44
939.16	214.51
939.46	214.55
939.76	214.55
940.06	214.57
940.35	214.54
940.65	214.46
940.95	214.47
941.25	214.41
941.55	214.37
941.85	214.40
942.15	214.39
942.45	214.43
942.75	214.40
943.04	214.43
943.34	214.48
943.64	214.46
943.94	214.42
944.24	214.40
944.54	214.39
944.84	214.38
945.13	214.38
945.43	214.34
945.73	214.31
946.03	214.30
946.33	214.29
946.62	214.24
946.92	214.26
947.22	214.27
947.52	214.27
947.82	214.29
948.11	214.26
948.41	214.24
948.71	214.16
949.01	214.19
949.31	214.17
949.60	214.16
949.90	214.20
950.20	214.21
950.50	214.20
950.79	214.21
951.09	214.23
951.39	214.22
951.69	214.17
951.98	214.22
952.28	214.22
952.58	214.21
952.87	214.22
953.17	214.22
953.47	214.17
953.76	214.16
954.06	214.15
954.36	214.09
954.66	214.07
954.95	214.14
955.25	214.13
955.55	214.13
955.84	214.09
956.14	214.08
956.44	214.09
956.73	214.05
957.03	214.05
957.32	214.05
957.62	214.02
957.92	214.05
958.21	214.01
958.51	214.26
958.81	214.27
959.10	214.33
959.40	214.40
959.69	214.44
959.99	214.51
960.29	214.49
960.58	214.51
960.88	214.60
961.17	214.58
961.47	214.61
961.76	214.59
962.06	214.62
962.36	214.60
962.65	214.59
962.95	214.63
963.24	214.63
963.54	214.64
963.83	214.70
964.13	214.70
964.42	214.66
964.72	214.50
965.01	214.50
965.31	214.48
965.60	214.40
965.90	214.54
966.19	214.48
966.49	214.49
966.78	214.49
967.08	214.46
967.37	214.46
967.67	214.42
967.96	214.45
968.26	214.43
968.55	214.47
968.85	214.48
969.14	214.46
969.43	214.50
969.73	214.48
970.02	214.44
970.32	214.42
970.61	214.42
970.91	214.35
971.20	214.34
971.49	214.32
971.79	214.36
972.08	214.20
972.38	214.22
972.67	214.22
972.96	214.28
973.26	214.22
973.55	214.29
973.85	214.27
974.14	214.23
974.43	214.26
974.73	214.21
975.02	214.19
975.31	214.20
975.61	214.17
975.90	214.16
976.19	214.15
976.49	214.19
976.78	214.18
977.07	214.15
977.37	214.17
977.66	214.19
977.95	214.15
978.24	214.16
978.54	214.21
978.83	214.21
979.12	214.15
979.42	214.19
979.71	214.12
980.00	214.14
980.29	214.19
980.59	214.15
980.88	214.22
981.17	214.23
981.46	214.25
981.76	214.25
982.05	214.31
982.34	214.32
982.63	214.30
982.93	214.35
983.22	214.44
983.51	214.45
983.80	214.45
984.09	214.51
984.39	214.48
984.68	214.43
984.97	214.45
985.26	214.43
985.55	214.41
985.85	214.39
986.14	214.44
986.43	214.45
986.72	214.47
987.01	214.39
987.30	214.39
987.59	214.36
987.89	214.37
988.18	214.30
988.47	214.29
988.76	214.29
989.05	214.23
989.34	214.14
989.63	214.18
989.92	214.17
990.22	214.14
990.51	214.18
990.80	214.16
991.09	214.14
991.38	214.15
991.67	214.16
991.96	214.12
992.25	214.10
992.54	214.05
992.83	214.03
993.12	214.03
993.41	214.04
993.70	214.12
993.99	214.12
994.28	214.13
994.58	214.19
994.87	214.17
995.16	214.21
995.45	214.24
995.74	214.19
996.03	214.22
996.32	214.27
996.61	214.28
996.90	214.31
997.19	214.31
997.48	214.34
997.77	214.33
998.06	214.37
998.34	214.36
998.63	214.37
998.92	214.39
999.21	214.44
999.50	214.46
999.79	214.38
1000.08	214.38
1000.37	214.39
1000.66	214.35
1000.95	214.39
1001.24	214.38
1001.53	214.42
1001.82	214.38
1002.11	214.32
1002.40	214.31
1002.68	214.33
1002.97	214.47
1003.26	214.45
1003.55	214.42
1003.84	214.44
1004.13	214.55
1004.42	214.53
1004.71	214.56
1004.99	214.58
1005.28	214.60
1005.57	214.57
1005.86	214.54
1006.15	214.53
1006.44	214.48
1006.72	214.51
1007.01	214.48
1007.30	214.47
1007.59	214.44
1007.88	214.45
1008.17	214.46
1008.45	214.46
1008.74	214.40
1009.03	214.28
1009.32	214.28
1009.60	214.28
1009.89	214.28
1010.18	214.14
1010.47	214.13
1010.76	214.11
1011.04	214.09
1011.33	214.09
1011.62	214.10
1011.91	214.15
1012.19	214.17
1012.48	214.19
1012.77	214.20
1013.05	214.32
1013.34	214.33
1013.63	214.34
1013.92	214.34
1014.20	214.33
1014.49	214.32
1014.78	214.34
1015.06	214.28
1015.35	214.29
1015.64	214.31
1015.92	214.30
1016.21	214.32
1016.50	214.31
1016.78	214.30
1017.07	214.29
1017.36	214.22
1017.64	214.20
1017.93	214.18
1018.22	214.16
1018.50	214.16
1018.79	214.14
1019.08	214.00
1019.36	214.04
1019.65	214.01
1019.93	214.05
1020.22	214.08
1020.51	214.17
1020.79	214.14
1021.08	213.95
1021.36	213.91
1021.65	214.10
1021.94	214.04
1022.22	214.93
1022.51	213.81
1022.79	214.85
1023.08	214.32
1023.36	216.37
1023.65	213.65
>>>>>End Processed Spectral Data<<<<<
