SpectraSuite Data File
++++++++++++++++++++++++++++++++++++
Date: Tue Jan 29 16:37:36 EST 2013
User: group
Dark Spectrum Present: No
Reference Spectrum Present: No
Number of Sampled Component Spectra: 1
Spectrometers: USB2E7196
Integration Time (usec): 65000 (USB2E7196)
Spectra Averaged: 100 (USB2E7196)
Boxcar Smoothing: 10 (USB2E7196)
Correct for Electrical Dark: No (USB2E7196)
Strobe/Lamp Enabled: No (USB2E7196)
Correct for Detector Non-linearity: No (USB2E7196)
Correct for Stray Light: No (USB2E7196)
Number of Pixels in Processed Spectrum: 2048
>>>>>Begin Processed Spectral Data<<<<<
339.09	0.00
339.48	202.45
339.86	203.28
340.24	204.62
340.63	206.51
341.01	210.48
341.39	208.40
341.78	210.34
342.16	211.84
342.54	211.96
342.93	201.18
343.31	211.34
343.69	211.88
344.07	212.36
344.46	212.81
344.84	213.19
345.22	213.36
345.60	213.66
345.99	213.88
346.37	214.03
346.75	214.16
347.13	214.22
347.52	214.31
347.90	214.44
348.28	214.49
348.66	214.57
349.05	214.52
349.43	214.63
349.81	214.70
350.19	214.73
350.57	214.78
350.96	214.87
351.34	215.00
351.72	215.10
352.10	215.21
352.48	215.28
352.87	215.34
353.25	215.40
353.63	215.46
354.01	215.52
354.39	215.58
354.77	215.64
355.15	215.77
355.54	215.81
355.92	215.80
356.30	215.88
356.68	216.07
357.06	216.14
357.44	216.15
357.82	216.19
358.20	216.30
358.58	216.36
358.97	216.44
359.35	216.53
359.73	216.62
360.11	216.65
360.49	216.69
360.87	216.72
361.25	216.79
361.63	216.91
362.01	216.96
362.39	216.98
362.77	217.02
363.15	217.01
363.53	217.02
363.91	217.06
364.29	217.07
364.67	216.89
365.05	216.90
365.43	216.96
365.81	217.00
366.19	217.07
366.57	217.15
366.95	217.17
367.33	217.10
367.71	217.06
368.09	217.09
368.47	217.11
368.85	217.11
369.23	217.13
369.61	217.02
369.99	217.04
370.37	217.02
370.75	217.11
371.13	217.07
371.51	217.04
371.89	217.00
372.27	216.97
372.65	216.96
373.03	216.94
373.41	216.88
373.78	216.83
374.16	216.72
374.54	216.61
374.92	216.53
375.30	216.52
375.68	216.44
376.06	216.40
376.44	216.33
376.82	216.30
377.19	216.27
377.57	216.23
377.95	216.12
378.33	216.11
378.71	215.95
379.09	215.98
379.47	215.98
379.84	215.95
380.22	215.88
380.60	215.81
380.98	215.75
381.36	215.71
381.73	215.64
382.11	215.62
382.49	215.60
382.87	215.54
383.25	215.49
383.62	215.69
384.00	215.65
384.38	215.61
384.76	215.61
385.13	215.64
385.51	215.61
385.89	215.58
386.27	215.53
386.64	215.50
387.02	215.41
387.40	215.34
387.78	215.33
388.15	215.36
388.53	215.33
388.91	215.28
389.29	215.26
389.66	215.29
390.04	215.27
390.42	215.30
390.79	215.30
391.17	215.25
391.55	215.01
391.92	214.97
392.30	215.00
392.68	214.94
393.05	214.91
393.43	214.89
393.81	214.90
394.18	214.86
394.56	214.89
394.94	214.95
395.31	214.97
395.69	215.05
396.06	215.04
396.44	215.10
396.82	215.14
397.19	215.26
397.57	215.23
397.95	215.28
398.32	215.24
398.70	215.29
399.07	215.39
399.45	215.48
399.82	215.52
400.20	215.53
400.58	215.61
400.95	215.58
401.33	215.70
401.70	215.92
402.08	216.06
402.45	216.15
402.83	216.32
403.20	216.41
403.58	216.47
403.95	216.64
404.33	216.79
404.71	216.96
405.08	217.20
405.46	217.40
405.83	217.62
406.21	217.83
406.58	218.09
406.96	218.32
407.33	218.58
407.70	218.89
408.08	219.39
408.45	219.73
408.83	220.15
409.20	220.52
409.58	220.78
409.95	221.22
410.33	221.70
410.70	222.11
411.08	222.68
411.45	223.26
411.82	223.87
412.20	224.55
412.57	225.36
412.95	225.96
413.32	226.78
413.69	227.57
414.07	228.47
414.44	229.42
414.82	230.49
415.19	231.65
415.56	232.85
415.94	234.02
416.31	235.46
416.68	236.85
417.06	238.43
417.43	240.00
417.81	241.73
418.18	243.52
418.55	245.46
418.93	247.49
419.30	249.63
419.67	251.86
420.04	254.14
420.42	256.53
420.79	259.39
421.16	262.19
421.54	265.13
421.91	268.17
422.28	271.26
422.66	274.54
423.03	277.82
423.40	281.17
423.77	284.75
424.15	288.44
424.52	292.29
424.89	296.50
425.26	300.61
425.64	304.56
426.01	308.84
426.38	313.31
426.75	317.87
427.13	322.57
427.50	327.53
427.87	332.78
428.24	337.99
428.61	342.94
428.99	348.50
429.36	354.52
429.73	360.41
430.10	366.29
430.47	372.38
430.85	378.69
431.22	385.42
431.59	392.59
431.96	399.41
432.33	406.94
432.70	414.19
433.08	422.73
433.45	430.77
433.82	438.85
434.19	447.83
434.56	456.51
434.93	464.85
435.30	473.14
435.68	482.24
436.05	491.25
436.42	500.23
436.79	508.41
437.16	517.21
437.53	526.54
437.90	535.73
438.27	544.73
438.64	553.95
439.01	562.47
439.38	570.04
439.75	577.39
440.13	585.93
440.50	593.98
440.87	600.45
441.24	607.11
441.61	614.41
441.98	619.72
442.35	626.12
442.72	632.50
443.09	638.60
443.46	642.39
443.83	644.89
444.20	647.05
444.57	650.18
444.94	651.65
445.31	653.06
445.68	654.51
446.05	655.14
446.42	654.43
446.79	653.53
447.16	652.47
447.53	651.68
447.90	648.32
448.27	644.89
448.64	640.17
449.01	636.91
449.37	631.04
449.74	625.35
450.11	618.41
450.48	610.98
450.85	603.46
451.22	596.98
451.59	590.88
451.96	585.06
452.33	577.15
452.70	569.98
453.07	561.50
453.43	552.86
453.80	544.48
454.17	536.42
454.54	528.81
454.91	520.56
455.28	512.55
455.65	505.09
456.02	497.61
456.38	491.28
456.75	483.32
457.12	476.70
457.49	470.17
457.86	463.92
458.23	458.56
458.59	452.65
458.96	446.62
459.33	441.26
459.70	435.84
460.07	431.57
460.43	426.70
460.80	422.06
461.17	418.01
461.54	413.81
461.91	409.76
462.27	405.67
462.64	402.29
463.01	398.53
463.38	394.79
463.74	391.11
464.11	387.89
464.48	385.07
464.85	381.95
465.21	379.53
465.58	376.92
465.95	373.72
466.32	371.10
466.68	368.49
467.05	365.88
467.42	363.37
467.78	360.68
468.15	358.12
468.52	356.24
468.88	353.75
469.25	351.51
469.62	349.71
469.98	347.74
470.35	345.90
470.72	344.19
471.08	342.35
471.45	340.82
471.82	339.21
472.18	337.52
472.55	336.33
472.92	334.93
473.28	333.74
473.65	332.60
474.02	331.51
474.38	330.60
474.75	329.86
475.11	328.99
475.48	328.43
475.85	327.92
476.21	327.42
476.58	327.05
476.94	326.87
477.31	326.59
477.67	326.37
478.04	326.17
478.41	326.11
478.77	326.27
479.14	326.22
479.50	326.38
479.87	326.66
480.23	327.00
480.60	327.23
480.96	327.44
481.33	328.10
481.69	328.61
482.06	329.09
482.42	329.55
482.79	330.21
483.15	330.97
483.52	331.94
483.88	332.81
484.25	333.73
484.61	334.71
484.98	335.74
485.34	337.03
485.71	338.43
486.07	339.86
486.44	341.23
486.80	342.87
487.17	344.55
487.53	346.40
487.90	348.25
488.26	350.33
488.62	352.52
488.99	354.52
489.35	356.73
489.72	359.15
490.08	361.71
490.44	364.18
490.81	366.90
491.17	369.60
491.54	372.57
491.90	375.63
492.26	378.92
492.63	382.31
492.99	385.77
493.36	389.46
493.72	393.38
494.08	397.39
494.45	401.59
494.81	405.94
495.17	410.36
495.54	415.09
495.90	419.90
496.26	424.86
496.63	430.11
496.99	435.51
497.35	441.11
497.72	446.96
498.08	452.94
498.44	459.05
498.80	465.50
499.17	471.99
499.53	478.74
499.89	485.57
500.26	492.63
500.62	499.76
500.98	507.14
501.34	514.59
501.71	522.29
502.07	530.09
502.43	538.14
502.79	546.27
503.16	554.61
503.52	563.25
503.88	572.01
504.24	580.99
504.60	590.02
504.97	599.26
505.33	608.51
505.69	618.37
506.05	628.27
506.41	638.09
506.78	648.24
507.14	658.48
507.50	668.98
507.86	679.67
508.22	690.45
508.59	701.17
508.95	712.28
509.31	723.70
509.67	735.26
510.03	746.72
510.39	758.53
510.75	770.41
511.12	782.30
511.48	794.42
511.84	806.71
512.20	819.15
512.56	831.91
512.92	844.74
513.28	857.55
513.64	870.39
514.00	883.35
514.37	896.41
514.73	909.61
515.09	922.66
515.45	935.73
515.81	948.88
516.17	962.30
516.53	975.62
516.89	988.78
517.25	1002.01
517.61	1015.54
517.97	1029.03
518.33	1042.37
518.69	1055.97
519.05	1069.79
519.41	1083.49
519.77	1097.39
520.13	1110.66
520.49	1123.96
520.85	1137.39
521.21	1150.82
521.57	1164.59
521.93	1177.66
522.29	1191.47
522.65	1205.12
523.01	1218.80
523.37	1232.07
523.73	1245.60
524.09	1258.81
524.45	1272.38
524.81	1285.97
525.17	1299.42
525.53	1312.63
525.89	1325.96
526.25	1339.23
526.61	1352.12
526.97	1365.32
527.33	1378.43
527.68	1392.02
528.04	1405.67
528.40	1418.90
528.76	1432.33
529.12	1445.36
529.48	1458.90
529.84	1471.27
530.20	1484.26
530.56	1496.95
530.91	1510.26
531.27	1523.03
531.63	1535.82
531.99	1548.60
532.35	1560.91
532.71	1573.57
533.07	1586.61
533.42	1598.97
533.78	1611.23
534.14	1623.45
534.50	1634.91
534.86	1646.66
535.21	1657.68
535.57	1669.28
535.93	1680.61
536.29	1691.77
536.65	1703.40
537.00	1714.40
537.36	1725.92
537.72	1736.98
538.08	1748.56
538.44	1759.75
538.79	1771.03
539.15	1782.17
539.51	1793.08
539.87	1804.55
540.22	1815.28
540.58	1826.43
540.94	1837.37
541.29	1847.73
541.65	1857.60
542.01	1868.08
542.37	1878.26
542.72	1888.62
543.08	1898.41
543.44	1909.18
543.79	1918.57
544.15	1927.96
544.51	1938.12
544.87	1948.18
545.22	1957.60
545.58	1966.41
545.94	1975.31
546.29	1983.87
546.65	1992.31
547.01	2000.63
547.36	2008.38
547.72	2016.28
548.07	2023.88
548.43	2031.90
548.79	2039.86
549.14	2048.08
549.50	2056.75
549.86	2064.59
550.21	2071.98
550.57	2079.78
550.92	2086.45
551.28	2094.05
551.64	2101.44
551.99	2109.01
552.35	2116.15
552.70	2123.01
553.06	2129.72
553.41	2136.03
553.77	2142.80
554.13	2149.24
554.48	2156.29
554.84	2163.43
555.19	2170.11
555.55	2176.58
555.90	2182.82
556.26	2189.76
556.61	2195.85
556.97	2200.60
557.32	2206.47
557.68	2212.99
558.03	2218.80
558.39	2224.16
558.74	2230.13
559.10	2235.53
559.45	2240.97
559.81	2246.47
560.16	2252.13
560.52	2258.08
560.87	2264.58
561.23	2270.39
561.58	2277.12
561.94	2282.26
562.29	2286.94
562.64	2292.93
563.00	2298.48
563.35	2304.05
563.71	2309.77
564.06	2315.53
564.42	2321.58
564.77	2326.65
565.12	2331.75
565.48	2336.83
565.83	2342.42
566.19	2347.79
566.54	2353.16
566.89	2357.81
567.25	2362.29
567.60	2367.91
567.96	2373.06
568.31	2377.49
568.66	2381.83
569.02	2385.64
569.37	2389.40
569.72	2393.85
570.08	2397.26
570.43	2400.40
570.78	2403.47
571.14	2405.77
571.49	2408.70
571.84	2412.09
572.20	2415.10
572.55	2418.07
572.90	2420.24
573.26	2422.86
573.61	2425.39
573.96	2427.66
574.31	2429.60
574.67	2431.53
575.02	2432.19
575.37	2433.57
575.72	2434.22
576.08	2435.52
576.43	2435.68
576.78	2436.06
577.13	2437.44
577.49	2438.60
577.84	2439.66
578.19	2440.89
578.54	2441.49
578.90	2442.15
579.25	2441.91
579.60	2441.47
579.95	2440.64
580.30	2440.72
580.66	2440.07
581.01	2438.53
581.36	2436.11
581.71	2434.59
582.06	2433.31
582.42	2432.36
582.77	2429.86
583.12	2428.20
583.47	2426.73
583.82	2425.97
584.17	2424.71
584.53	2422.45
584.88	2420.16
585.23	2418.04
585.58	2415.77
585.93	2413.70
586.28	2411.45
586.63	2408.90
586.98	2406.71
587.34	2404.66
587.69	2402.13
588.04	2399.90
588.39	2398.13
588.74	2395.43
589.09	2392.56
589.44	2389.51
589.79	2386.78
590.14	2384.89
590.49	2382.07
590.84	2378.13
591.19	2374.88
591.54	2371.43
591.89	2367.27
592.25	2364.01
592.60	2359.60
592.95	2355.24
593.30	2350.89
593.65	2346.46
594.00	2341.87
594.35	2338.74
594.70	2333.92
595.05	2329.19
595.40	2323.66
595.75	2317.71
596.10	2314.05
596.45	2309.19
596.80	2304.26
597.15	2299.11
597.50	2293.12
597.85	2287.98
598.19	2282.61
598.54	2276.73
598.89	2271.34
599.24	2266.69
599.59	2260.35
599.94	2254.54
600.29	2248.62
600.64	2242.66
600.99	2235.82
601.34	2230.42
601.69	2223.35
602.04	2216.94
602.39	2210.32
602.74	2204.10
603.08	2198.67
603.43	2192.20
603.78	2185.32
604.13	2178.36
604.48	2171.00
604.83	2164.81
605.18	2158.48
605.53	2151.58
605.87	2144.53
606.22	2137.83
606.57	2129.91
606.92	2121.98
607.27	2115.02
607.62	2108.27
607.96	2101.23
608.31	2094.71
608.66	2086.91
609.01	2079.25
609.36	2072.16
609.70	2064.39
610.05	2056.69
610.40	2048.38
610.75	2039.78
611.10	2031.99
611.44	2022.97
611.79	2014.19
612.14	2004.21
612.49	1993.49
612.83	1984.04
613.18	1974.67
613.53	1965.28
613.88	1955.82
614.22	1947.19
614.57	1937.37
614.92	1926.70
615.27	1916.36
615.61	1906.25
615.96	1896.57
616.31	1887.06
616.65	1877.73
617.00	1867.95
617.35	1858.30
617.70	1848.54
618.04	1838.59
618.39	1828.38
618.74	1818.69
619.08	1809.12
619.43	1800.41
619.78	1792.24
620.12	1783.73
620.47	1774.26
620.82	1763.99
621.16	1754.23
621.51	1744.37
621.85	1734.53
622.20	1724.29
622.55	1713.87
622.89	1703.85
623.24	1694.18
623.59	1684.39
623.93	1674.04
624.28	1664.37
624.62	1654.25
624.97	1643.80
625.32	1634.04
625.66	1625.23
626.01	1616.59
626.35	1607.19
626.70	1597.14
627.04	1586.96
627.39	1576.80
627.73	1567.52
628.08	1558.58
628.43	1548.94
628.77	1539.64
629.12	1530.84
629.46	1522.90
629.81	1514.43
630.15	1505.01
630.50	1495.14
630.84	1484.66
631.19	1474.77
631.53	1465.43
631.88	1455.32
632.22	1445.42
632.57	1436.02
632.91	1425.91
633.26	1416.02
633.60	1406.46
633.95	1397.07
634.29	1387.76
634.64	1378.40
634.98	1368.46
635.32	1359.19
635.67	1350.78
636.01	1341.60
636.36	1331.76
636.70	1322.27
637.05	1313.00
637.39	1304.10
637.73	1295.47
638.08	1287.91
638.42	1279.81
638.77	1271.08
639.11	1262.78
639.45	1255.03
639.80	1246.54
640.14	1237.87
640.49	1229.02
640.83	1220.21
641.17	1212.13
641.52	1203.89
641.86	1195.46
642.20	1187.47
642.55	1178.83
642.89	1169.82
643.23	1161.12
643.58	1153.00
643.92	1144.01
644.26	1135.31
644.61	1126.80
644.95	1117.95
645.29	1108.66
645.64	1099.48
645.98	1090.81
646.32	1082.88
646.66	1074.30
647.01	1065.97
647.35	1057.76
647.69	1049.42
648.04	1041.13
648.38	1032.16
648.72	1023.32
649.06	1014.78
649.41	1006.67
649.75	998.70
650.09	990.97
650.43	982.99
650.78	974.72
651.12	966.96
651.46	959.55
651.80	952.31
652.14	944.96
652.49	937.46
652.83	930.11
653.17	922.52
653.51	914.84
653.85	907.52
654.20	900.27
654.54	892.78
654.88	885.46
655.22	878.14
655.56	871.22
655.90	864.45
656.25	857.71
656.59	850.72
656.93	843.71
657.27	836.48
657.61	829.47
657.95	823.32
658.29	817.39
658.64	811.16
658.98	804.62
659.32	798.07
659.66	791.76
660.00	785.37
660.34	779.23
660.68	773.12
661.02	766.81
661.36	760.71
661.70	754.93
662.05	749.30
662.39	743.82
662.73	738.40
663.07	732.98
663.41	727.39
663.75	721.70
664.09	715.94
664.43	710.47
664.77	705.07
665.11	699.21
665.45	693.28
665.79	687.51
666.13	681.86
666.47	676.35
666.81	670.88
667.15	665.41
667.49	660.21
667.83	654.94
668.17	649.62
668.51	644.53
668.85	639.53
669.19	634.56
669.53	629.55
669.87	624.32
670.21	619.52
670.55	614.72
670.89	610.23
671.23	605.89
671.57	601.53
671.91	597.18
672.25	592.97
672.58	588.74
672.92	584.67
673.26	580.65
673.60	576.81
673.94	573.02
674.28	569.42
674.62	565.63
674.96	561.82
675.30	558.34
675.64	554.63
675.97	551.01
676.31	547.37
676.65	543.72
676.99	540.29
677.33	536.38
677.67	532.71
678.01	528.81
678.34	525.17
678.68	521.59
679.02	517.96
679.36	514.31
679.70	510.66
680.04	506.95
680.37	503.49
680.71	500.06
681.05	496.79
681.39	493.53
681.73	490.28
682.06	487.25
682.40	484.10
682.74	480.84
683.08	477.61
683.42	474.37
683.75	471.35
684.09	468.33
684.43	465.56
684.77	462.57
685.10	459.71
685.44	456.72
685.78	453.72
686.12	450.94
686.45	448.13
686.79	445.48
687.13	442.98
687.46	440.38
687.80	437.68
688.14	434.84
688.48	432.14
688.81	429.43
689.15	426.77
689.49	424.08
689.82	421.55
690.16	418.95
690.50	416.54
690.83	414.01
691.17	411.36
691.51	408.82
691.84	406.55
692.18	404.28
692.52	402.06
692.85	399.90
693.19	397.70
693.52	395.49
693.86	393.21
694.20	390.95
694.53	388.74
694.87	386.50
695.21	384.31
695.54	382.15
695.88	379.98
696.21	377.76
696.55	375.60
696.88	373.46
697.22	371.37
697.56	369.42
697.89	367.44
698.23	365.65
698.56	363.82
698.90	362.06
699.23	360.15
699.57	358.22
699.90	356.31
700.24	354.49
700.58	352.69
700.91	350.99
701.25	349.38
701.58	347.77
701.92	346.18
702.25	344.55
702.59	342.89
702.92	341.31
703.26	339.75
703.59	338.26
703.93	337.00
704.26	335.60
704.60	334.06
704.93	332.58
705.26	331.11
705.60	329.64
705.93	328.06
706.27	326.70
706.60	325.41
706.94	324.17
707.27	322.76
707.61	321.40
707.94	320.04
708.27	318.50
708.61	316.97
708.94	315.55
709.28	314.26
709.61	312.97
709.94	311.74
710.28	310.48
710.61	309.33
710.95	307.93
711.28	306.85
711.61	305.64
711.95	304.51
712.28	303.27
712.61	302.05
712.95	301.00
713.28	299.94
713.61	298.79
713.95	297.63
714.28	296.59
714.61	295.46
714.95	294.39
715.28	293.40
715.61	292.38
715.95	291.43
716.28	290.45
716.61	289.51
716.95	288.50
717.28	287.56
717.61	286.53
717.94	285.60
718.28	284.53
718.61	283.65
718.94	282.75
719.27	281.88
719.61	281.06
719.94	280.12
720.27	279.17
720.60	278.33
720.94	277.47
721.27	276.75
721.60	276.10
721.93	275.37
722.27	274.69
722.60	274.01
722.93	273.30
723.26	272.58
723.59	271.89
723.93	271.28
724.26	270.63
724.59	269.98
724.92	269.36
725.25	268.83
725.59	268.24
725.92	267.68
726.25	267.09
726.58	266.53
726.91	265.96
727.24	265.39
727.57	264.78
727.91	264.15
728.24	263.57
728.57	262.98
728.90	262.44
729.23	261.84
729.56	261.37
729.89	260.78
730.22	260.22
730.55	259.62
730.89	259.05
731.22	258.51
731.55	257.99
731.88	257.45
732.21	256.88
732.54	256.30
732.87	255.73
733.20	255.25
733.53	254.73
733.86	254.26
734.19	253.75
734.52	253.34
734.85	253.06
735.18	252.56
735.51	252.14
735.84	251.67
736.17	251.28
736.50	250.79
736.83	250.61
737.16	250.23
737.49	249.87
737.82	249.48
738.15	249.13
738.48	248.72
738.81	248.33
739.14	247.91
739.47	247.51
739.80	247.18
740.13	246.84
740.46	246.46
740.79	246.03
741.12	245.67
741.45	245.26
741.78	244.79
742.11	244.52
742.44	244.14
742.77	243.86
743.10	243.50
743.43	243.13
743.75	242.58
744.08	242.51
744.41	242.11
744.74	241.77
745.07	241.38
745.40	241.08
745.73	240.83
746.06	240.50
746.39	240.25
746.71	239.88
747.04	239.49
747.37	239.18
747.70	238.91
748.03	238.63
748.36	238.37
748.68	238.06
749.01	237.70
749.34	237.40
749.67	237.06
750.00	236.76
750.33	236.65
750.65	236.36
750.98	235.83
751.31	235.62
751.64	235.36
751.97	235.18
752.29	234.93
752.62	234.57
752.95	234.33
753.28	234.03
753.60	233.76
753.93	233.60
754.26	233.36
754.59	233.08
754.91	232.81
755.24	232.57
755.57	232.30
755.90	232.08
756.22	231.83
756.55	231.59
756.88	231.35
757.20	231.01
757.53	230.78
757.86	230.56
758.19	230.36
758.51	230.15
758.84	229.85
759.17	229.63
759.49	229.46
759.82	229.39
760.15	229.25
760.47	229.09
760.80	228.83
761.13	228.69
761.45	228.52
761.78	228.36
762.11	228.15
762.43	228.01
762.76	227.84
763.08	227.69
763.41	227.51
763.74	227.37
764.06	227.20
764.39	227.05
764.71	226.86
765.04	226.69
765.37	226.50
765.69	226.36
766.02	226.21
766.34	226.05
766.67	225.79
767.00	225.67
767.32	225.65
767.65	225.64
767.97	225.49
768.30	225.39
768.62	225.25
768.95	225.16
769.27	225.03
769.60	224.93
769.92	224.77
770.25	224.66
770.57	224.50
770.90	224.39
771.22	224.24
771.55	224.15
771.87	224.07
772.20	223.95
772.52	224.03
772.85	224.17
773.17	224.09
773.50	224.01
773.82	223.89
774.15	223.70
774.47	223.48
774.80	223.35
775.12	223.22
775.45	223.16
775.77	223.05
776.09	222.97
776.42	222.88
776.74	222.86
777.07	222.73
777.39	222.68
777.72	222.54
778.04	222.49
778.36	222.39
778.69	222.30
779.01	222.25
779.33	221.96
779.66	221.63
779.98	221.56
780.31	221.46
780.63	221.46
780.95	221.43
781.28	221.34
781.60	221.24
781.92	221.20
782.25	221.11
782.57	221.04
782.89	220.95
783.22	220.86
783.54	220.73
783.86	220.71
784.19	220.57
784.51	220.59
784.83	220.53
785.16	220.46
785.48	220.38
785.80	220.31
786.12	220.30
786.45	220.28
786.77	220.22
787.09	220.14
787.42	219.99
787.74	219.91
788.06	219.87
788.38	219.82
788.71	219.73
789.03	219.65
789.35	219.63
789.67	219.56
789.99	219.53
790.32	219.47
790.64	219.42
790.96	219.54
791.28	219.40
791.61	219.33
791.93	219.26
792.25	219.21
792.57	219.33
792.89	219.22
793.21	219.17
793.54	219.09
793.86	219.02
794.18	218.97
794.50	218.89
794.82	218.87
795.14	218.87
795.47	218.85
795.79	218.81
796.11	218.71
796.43	218.63
796.75	218.60
797.07	218.55
797.39	218.50
797.71	218.35
798.04	218.34
798.36	218.32
798.68	218.34
799.00	218.32
799.32	218.15
799.64	218.18
799.96	218.12
800.28	218.15
800.60	218.11
800.92	218.11
801.24	218.03
801.56	217.97
801.89	217.93
802.21	217.91
802.53	217.84
802.85	217.86
803.17	217.95
803.49	217.83
803.81	217.82
804.13	217.79
804.45	217.73
804.77	217.72
805.09	217.67
805.41	217.60
805.73	217.52
806.05	217.48
806.37	217.42
806.69	217.38
807.01	217.29
807.33	217.28
807.65	217.17
807.97	217.26
808.28	217.23
808.60	217.16
808.92	217.10
809.24	217.22
809.56	217.17
809.88	217.09
810.20	217.10
810.52	217.13
810.84	217.08
811.16	217.02
811.48	216.99
811.80	217.04
812.12	217.01
812.43	217.04
812.75	217.00
813.07	216.96
813.39	216.95
813.71	216.91
814.03	216.88
814.35	216.86
814.67	216.72
814.98	216.68
815.30	216.65
815.62	216.57
815.94	216.41
816.26	216.38
816.58	216.30
816.89	216.30
817.21	216.18
817.53	216.17
817.85	216.18
818.17	216.17
818.48	216.06
818.80	216.08
819.12	215.98
819.44	215.95
819.76	215.92
820.07	215.90
820.39	215.88
820.71	215.88
821.03	215.85
821.34	215.82
821.66	215.84
821.98	215.91
822.30	215.90
822.61	216.02
822.93	215.98
823.25	215.96
823.57	215.91
823.88	215.97
824.20	215.92
824.52	215.95
824.83	215.91
825.15	215.89
825.47	215.82
825.79	215.86
826.10	215.84
826.42	215.83
826.74	215.85
827.05	215.85
827.37	215.84
827.69	215.86
828.00	215.87
828.32	215.84
828.64	215.72
828.95	215.83
829.27	215.76
829.58	215.75
829.90	215.78
830.22	215.81
830.53	215.72
830.85	215.70
831.17	215.60
831.48	215.59
831.80	215.59
832.11	215.57
832.43	215.51
832.75	215.45
833.06	215.55
833.38	215.47
833.69	215.45
834.01	215.44
834.32	215.40
834.64	215.37
834.96	215.35
835.27	215.40
835.59	215.34
835.90	215.30
836.22	215.30
836.53	215.26
836.85	215.20
837.16	215.39
837.48	215.39
837.79	215.48
838.11	215.47
838.42	215.47
838.74	215.52
839.05	215.51
839.37	215.53
839.68	215.38
840.00	215.34
840.31	215.38
840.63	215.33
840.94	215.34
841.26	215.31
841.57	215.30
841.88	215.33
842.20	215.27
842.51	215.24
842.83	215.20
843.14	215.37
843.46	215.40
843.77	215.28
844.08	215.28
844.40	215.19
844.71	215.20
845.03	215.17
845.34	215.12
845.65	215.12
845.97	215.13
846.28	215.16
846.60	215.18
846.91	215.11
847.22	215.10
847.54	215.13
847.85	215.11
848.16	215.11
848.48	215.03
848.79	215.12
849.10	215.13
849.42	215.15
849.73	214.98
850.04	214.92
850.36	214.88
850.67	214.88
850.98	214.89
851.30	214.87
851.61	214.86
851.92	214.84
852.23	214.89
852.55	214.90
852.86	214.86
853.17	214.87
853.49	214.96
853.80	215.03
854.11	215.02
854.42	215.07
854.74	215.04
855.05	215.06
855.36	214.92
855.67	214.91
855.99	214.92
856.30	215.16
856.61	215.18
856.92	215.12
857.23	215.15
857.55	215.11
857.86	215.09
858.17	215.11
858.48	215.09
858.79	215.05
859.11	215.08
859.42	215.10
859.73	215.06
860.04	215.00
860.35	214.90
860.66	214.84
860.98	214.84
861.29	214.85
861.60	214.86
861.91	214.92
862.22	214.89
862.53	214.83
862.84	214.57
863.16	214.60
863.47	214.60
863.78	214.53
864.09	214.57
864.40	214.57
864.71	214.54
865.02	214.55
865.33	214.50
865.64	214.47
865.95	214.44
866.27	214.61
866.58	214.58
866.89	214.60
867.20	214.59
867.51	214.53
867.82	214.52
868.13	214.56
868.44	214.51
868.75	214.58
869.06	214.60
869.37	214.61
869.68	214.56
869.99	214.60
870.30	214.66
870.61	214.66
870.92	214.63
871.23	214.65
871.54	214.68
871.85	214.76
872.16	214.77
872.47	214.72
872.78	214.57
873.09	214.60
873.40	214.58
873.71	214.60
874.02	214.62
874.33	214.59
874.64	214.55
874.95	214.55
875.26	214.49
875.56	214.48
875.87	214.48
876.18	214.47
876.49	214.69
876.80	214.65
877.11	214.59
877.42	214.58
877.73	214.57
878.04	214.55
878.35	214.53
878.66	214.50
878.96	214.52
879.27	214.51
879.58	214.51
879.89	214.53
880.20	214.58
880.51	214.54
880.82	214.57
881.12	214.60
881.43	214.57
881.74	214.52
882.05	214.53
882.36	214.54
882.67	214.56
882.97	214.31
883.28	214.31
883.59	214.33
883.90	214.39
884.21	214.43
884.51	214.42
884.82	214.40
885.13	214.38
885.44	214.40
885.74	214.42
886.05	214.43
886.36	214.43
886.67	214.36
886.98	214.49
887.28	214.52
887.59	214.49
887.90	214.51
888.20	214.52
888.51	214.54
888.82	214.51
889.13	214.50
889.43	214.68
889.74	214.63
890.05	214.64
890.35	214.59
890.66	214.55
890.97	214.52
891.28	214.50
891.58	214.54
891.89	214.51
892.20	214.50
892.50	214.46
892.81	214.46
893.12	214.49
893.42	214.39
893.73	214.38
894.04	214.35
894.34	214.37
894.65	214.38
894.95	214.33
895.26	214.33
895.57	214.43
895.87	214.23
896.18	214.27
896.48	214.27
896.79	214.28
897.10	214.33
897.40	214.33
897.71	214.38
898.01	214.37
898.32	214.42
898.63	214.41
898.93	214.41
899.24	214.39
899.54	214.36
899.85	214.32
900.15	214.29
900.46	214.27
900.76	214.28
901.07	214.29
901.38	214.30
901.68	214.32
901.99	214.20
902.29	214.23
902.60	214.22
902.90	214.19
903.21	214.18
903.51	214.12
903.82	214.19
904.12	214.15
904.43	214.15
904.73	214.10
905.03	214.13
905.34	214.32
905.64	214.31
905.95	214.33
906.25	214.31
906.56	214.34
906.86	214.36
907.17	214.33
907.47	214.34
907.77	214.32
908.08	214.28
908.38	214.31
908.69	214.32
908.99	214.37
909.30	214.39
909.60	214.37
909.90	214.36
910.21	214.28
910.51	214.22
910.81	214.23
911.12	214.26
911.42	214.26
911.73	214.06
912.03	214.05
912.33	214.08
912.64	214.13
912.94	214.12
913.24	214.11
913.55	214.12
913.85	214.10
914.15	214.14
914.46	214.17
914.76	214.14
915.06	214.09
915.37	214.05
915.67	214.05
915.97	214.09
916.27	214.08
916.58	214.11
916.88	214.14
917.18	214.11
917.49	214.25
917.79	214.24
918.09	214.27
918.39	214.35
918.70	214.33
919.00	214.33
919.30	214.44
919.60	214.42
919.91	214.40
920.21	214.42
920.51	214.39
920.81	214.38
921.12	214.40
921.42	214.41
921.72	214.41
922.02	214.40
922.32	214.41
922.63	214.40
922.93	214.47
923.23	214.47
923.53	214.47
923.83	214.32
924.13	214.33
924.44	214.31
924.74	214.36
925.04	214.42
925.34	214.40
925.64	214.26
925.94	214.26
926.24	214.36
926.55	214.34
926.85	214.35
927.15	214.33
927.45	214.35
927.75	214.34
928.05	214.35
928.35	214.33
928.65	214.37
928.95	214.41
929.26	214.35
929.56	214.41
929.86	214.41
930.16	214.40
930.46	214.38
930.76	214.39
931.06	214.29
931.36	214.26
931.66	214.28
931.96	214.33
932.26	214.34
932.56	214.26
932.86	214.27
933.16	214.25
933.46	214.24
933.76	214.16
934.06	214.25
934.36	214.30
934.66	214.30
934.96	214.24
935.26	214.24
935.56	214.28
935.86	214.20
936.16	214.20
936.46	214.19
936.76	214.21
937.06	214.16
937.36	214.17
937.66	214.15
937.96	214.18
938.26	214.13
938.56	214.13
938.86	214.14
939.16	214.18
939.46	214.24
939.76	214.25
940.06	214.29
940.35	214.22
940.65	214.13
940.95	214.14
941.25	214.13
941.55	214.10
941.85	214.08
942.15	214.14
942.45	214.14
942.75	214.17
943.04	214.15
943.34	214.23
943.64	214.19
943.94	214.18
944.24	214.13
944.54	214.16
944.84	214.13
945.13	214.10
945.43	214.05
945.73	214.03
946.03	214.05
946.33	214.01
946.62	213.98
946.92	214.00
947.22	214.05
947.52	214.07
947.82	214.07
948.11	214.05
948.41	213.98
948.71	213.96
949.01	213.92
949.31	213.94
949.60	213.92
949.90	213.95
950.20	213.92
950.50	213.91
950.79	213.90
951.09	213.94
951.39	213.93
951.69	213.92
951.98	213.96
952.28	213.95
952.58	213.99
952.87	213.98
953.17	214.03
953.47	213.98
953.76	213.98
954.06	213.97
954.36	213.96
954.66	214.02
954.95	214.10
955.25	214.15
955.55	214.16
955.84	214.13
956.14	214.16
956.44	214.19
956.73	214.14
957.03	214.15
957.32	214.16
957.62	214.17
957.92	214.20
958.21	214.17
958.51	214.40
958.81	214.40
959.10	214.43
959.40	214.44
959.69	214.45
959.99	214.47
960.29	214.49
960.58	214.50
960.88	214.53
961.17	214.49
961.47	214.47
961.76	214.43
962.06	214.49
962.36	214.42
962.65	214.43
962.95	214.48
963.24	214.46
963.54	214.45
963.83	214.46
964.13	214.43
964.42	214.40
964.72	214.19
965.01	214.20
965.31	214.20
965.60	214.14
965.90	214.25
966.19	214.20
966.49	214.22
966.78	214.21
967.08	214.20
967.37	214.20
967.67	214.17
967.96	214.20
968.26	214.17
968.55	214.22
968.85	214.22
969.14	214.22
969.43	214.25
969.73	214.23
970.02	214.22
970.32	214.23
970.61	214.19
970.91	214.17
971.20	214.16
971.49	214.16
971.79	214.17
972.08	214.04
972.38	214.07
972.67	214.06
972.96	214.09
973.26	214.05
973.55	214.11
973.85	214.15
974.14	214.15
974.43	214.17
974.73	214.11
975.02	214.10
975.31	214.09
975.61	214.10
975.90	214.10
976.19	214.09
976.49	214.15
976.78	214.21
977.07	214.19
977.37	214.20
977.66	214.21
977.95	214.17
978.24	214.18
978.54	214.21
978.83	214.19
979.12	214.17
979.42	214.17
979.71	214.12
980.00	214.09
980.29	214.12
980.59	214.06
980.88	214.12
981.17	214.09
981.46	214.11
981.76	214.07
982.05	214.14
982.34	214.16
982.63	214.10
982.93	214.07
983.22	214.14
983.51	214.14
983.80	214.16
984.09	214.21
984.39	214.21
984.68	214.15
984.97	214.16
985.26	214.16
985.55	214.17
985.85	214.13
986.14	214.12
986.43	214.11
986.72	214.10
987.01	214.05
987.30	214.04
987.59	213.99
987.89	214.01
988.18	213.95
988.47	213.92
988.76	213.91
989.05	213.90
989.34	213.83
989.63	213.88
989.92	213.87
990.22	213.84
990.51	213.83
990.80	213.82
991.09	213.84
991.38	213.89
991.67	213.89
991.96	213.88
992.25	213.90
992.54	213.89
992.83	213.89
993.12	213.87
993.41	213.94
993.70	214.07
993.99	214.09
994.28	214.12
994.58	214.16
994.87	214.14
995.16	214.15
995.45	214.14
995.74	214.05
996.03	214.08
996.32	214.12
996.61	214.18
996.90	214.19
997.19	214.19
997.48	214.13
997.77	214.09
998.06	214.11
998.34	214.10
998.63	214.10
998.92	214.12
999.21	214.18
999.50	214.15
999.79	214.06
1000.08	214.04
1000.37	214.01
1000.66	213.98
1000.95	214.04
1001.24	214.03
1001.53	214.07
1001.82	214.06
1002.11	213.99
1002.40	213.97
1002.68	213.98
1002.97	214.11
1003.26	214.06
1003.55	214.07
1003.84	214.10
1004.13	214.17
1004.42	214.16
1004.71	214.14
1004.99	214.15
1005.28	214.20
1005.57	214.17
1005.86	214.14
1006.15	214.12
1006.44	214.08
1006.72	214.10
1007.01	214.03
1007.30	214.01
1007.59	213.99
1007.88	214.01
1008.17	214.04
1008.45	214.00
1008.74	213.94
1009.03	213.83
1009.32	213.84
1009.60	213.83
1009.89	213.82
1010.18	213.70
1010.47	213.66
1010.76	213.66
1011.04	213.63
1011.33	213.61
1011.62	213.63
1011.91	213.68
1012.19	213.71
1012.48	213.73
1012.77	213.74
1013.05	213.86
1013.34	213.90
1013.63	213.88
1013.92	213.87
1014.20	213.87
1014.49	213.89
1014.78	213.89
1015.06	213.84
1015.35	213.84
1015.64	213.88
1015.92	213.89
1016.21	213.92
1016.50	213.95
1016.78	213.97
1017.07	214.00
1017.36	213.98
1017.64	213.94
1017.93	213.93
1018.22	213.91
1018.50	213.91
1018.79	213.88
1019.08	213.79
1019.36	213.80
1019.65	213.81
1019.93	213.86
1020.22	213.87
1020.51	214.00
1020.79	213.98
1021.08	213.83
1021.36	213.52
1021.65	213.62
1021.94	213.59
1022.22	214.44
1022.51	213.57
1022.79	214.55
1023.08	214.02
1023.36	216.54
1023.65	213.31
>>>>>End Processed Spectral Data<<<<<
