SpectraSuite Data File
++++++++++++++++++++++++++++++++++++
Date: Wed Nov 07 18:31:31 EST 2012
User: group
Dark Spectrum Present: No
Reference Spectrum Present: No
Number of Sampled Component Spectra: 1
Spectrometers: USB2E7196
Integration Time (usec): 1000000 (USB2E7196)
Spectra Averaged: 1 (USB2E7196)
Boxcar Smoothing: 10 (USB2E7196)
Correct for Electrical Dark: No (USB2E7196)
Strobe/Lamp Enabled: No (USB2E7196)
Correct for Detector Non-linearity: No (USB2E7196)
Correct for Stray Light: No (USB2E7196)
Number of Pixels in Processed Spectrum: 2048
>>>>>Begin Processed Spectral Data<<<<<
339.09	0.00
339.48	217.00
339.86	219.00
340.24	220.00
340.63	226.00
341.01	260.00
341.39	221.00
341.78	226.00
342.16	239.00
342.54	233.00
342.93	221.14
343.31	232.43
343.69	233.10
344.07	233.52
344.46	234.33
344.84	234.62
345.22	233.52
345.60	234.19
345.99	234.67
346.37	234.52
346.75	234.43
347.13	234.29
347.52	234.43
347.90	235.29
348.28	235.57
348.66	236.19
349.05	235.33
349.43	235.81
349.81	236.10
350.19	236.29
350.57	236.57
350.96	236.52
351.34	236.57
351.72	236.86
352.10	237.19
352.48	237.05
352.87	237.33
353.25	237.19
353.63	237.19
354.01	236.95
354.39	237.33
354.77	237.29
355.15	238.24
355.54	238.10
355.92	237.71
356.30	237.86
356.68	239.33
357.06	240.05
357.44	239.43
357.82	239.10
358.20	239.29
358.58	239.43
358.97	239.76
359.35	240.38
359.73	241.00
360.11	240.71
360.49	241.10
360.87	241.14
361.25	241.71
361.63	242.86
362.01	243.33
362.39	243.33
362.77	244.00
363.15	244.00
363.53	244.29
363.91	244.10
364.29	244.29
364.67	242.33
365.05	242.38
365.43	243.10
365.81	243.81
366.19	245.14
366.57	246.00
366.95	245.76
367.33	245.19
367.71	244.86
368.09	245.62
368.47	245.57
368.85	245.52
369.23	245.86
369.61	244.86
369.99	245.48
370.37	245.48
370.75	246.71
371.13	246.48
371.51	246.14
371.89	246.33
372.27	246.05
372.65	246.05
373.03	246.19
373.41	246.00
373.78	245.76
374.16	244.33
374.54	243.48
374.92	243.48
375.30	243.57
375.68	243.29
376.06	243.33
376.44	243.19
376.82	243.29
377.19	242.76
377.57	242.71
377.95	241.86
378.33	241.57
378.71	239.81
379.09	239.81
379.47	240.05
379.84	240.10
380.22	240.14
380.60	239.67
380.98	239.57
381.36	239.48
381.73	239.14
382.11	239.57
382.49	239.57
382.87	239.43
383.25	239.10
383.62	242.14
384.00	241.67
384.38	241.57
384.76	242.10
385.13	243.43
385.51	243.19
385.89	243.29
386.27	243.43
386.64	243.71
387.02	243.52
387.40	243.19
387.78	243.14
388.15	243.00
388.53	243.05
388.91	242.86
389.29	242.29
389.66	242.71
390.04	242.24
390.42	242.90
390.79	242.76
391.17	243.14
391.55	240.19
391.92	240.38
392.30	240.76
392.68	240.10
393.05	239.62
393.43	239.86
393.81	239.67
394.18	239.10
394.56	239.76
394.94	240.52
395.31	240.62
395.69	241.43
396.06	241.71
396.44	241.62
396.82	241.57
397.19	243.05
397.57	242.48
397.95	242.81
398.32	241.95
398.70	242.38
399.07	242.67
399.45	242.81
399.82	242.71
400.20	242.43
400.58	242.67
400.95	242.33
401.33	243.05
401.70	245.00
402.08	245.81
402.45	245.62
402.83	246.14
403.20	246.19
403.58	246.00
403.95	246.81
404.33	247.57
404.71	247.67
405.08	249.48
405.46	249.95
405.83	250.57
406.21	250.90
406.58	251.33
406.96	251.76
407.33	252.19
407.70	253.10
408.08	255.48
408.45	256.29
408.83	257.14
409.20	257.57
409.58	257.05
409.95	258.14
410.33	259.24
410.70	259.29
411.08	261.00
411.45	262.14
411.82	262.43
412.20	264.00
412.57	266.90
412.95	265.86
413.32	268.19
413.69	269.62
414.07	271.48
414.44	273.14
414.82	275.38
415.19	278.00
415.56	280.29
415.94	281.71
416.31	284.76
416.68	287.43
417.06	290.62
417.43	294.33
417.81	297.57
418.18	301.14
418.55	305.00
418.93	309.19
419.30	313.71
419.67	318.95
420.04	323.38
420.42	327.24
420.79	334.95
421.16	340.48
421.54	348.05
421.91	354.14
422.28	360.62
422.66	367.33
423.03	376.05
423.40	382.86
423.77	389.90
424.15	396.62
424.52	404.05
424.89	412.29
425.26	419.67
425.64	427.76
426.01	436.05
426.38	444.86
426.75	454.14
427.13	462.81
427.50	472.62
427.87	482.43
428.24	492.86
428.61	500.33
428.99	511.29
429.36	521.57
429.73	533.05
430.10	544.90
430.47	556.95
430.85	567.67
431.22	581.71
431.59	597.57
431.96	611.90
432.33	626.48
432.70	641.67
433.08	658.29
433.45	673.86
433.82	689.19
434.19	706.67
434.56	722.62
434.93	737.71
435.30	753.10
435.68	770.48
436.05	786.86
436.42	804.10
436.79	820.14
437.16	836.52
437.53	854.14
437.90	870.05
438.27	886.81
438.64	903.10
439.01	918.76
439.38	930.10
439.75	942.29
440.13	958.24
440.50	971.33
440.87	983.00
441.24	993.57
441.61	1006.33
441.98	1015.10
442.35	1025.52
442.72	1037.52
443.09	1048.95
443.46	1054.29
443.83	1058.86
444.20	1061.76
444.57	1065.57
444.94	1066.05
445.31	1067.29
445.68	1072.24
446.05	1070.67
446.42	1066.95
446.79	1063.10
447.16	1059.00
447.53	1055.86
447.90	1047.14
448.27	1039.76
448.64	1029.81
449.01	1023.00
449.37	1010.52
449.74	998.48
450.11	987.43
450.48	971.86
450.85	955.67
451.22	942.90
451.59	930.33
451.96	918.62
452.33	902.48
452.70	888.38
453.07	871.10
453.43	851.67
453.80	837.00
454.17	822.24
454.54	807.00
454.91	792.10
455.28	776.71
455.65	762.33
456.02	750.95
456.38	737.86
456.75	723.14
457.12	710.52
457.49	698.19
457.86	683.71
458.23	674.05
458.59	662.57
458.96	651.67
459.33	641.24
459.70	630.86
460.07	622.62
460.43	614.43
460.80	606.86
461.17	598.29
461.54	589.57
461.91	581.62
462.27	573.95
462.64	567.14
463.01	560.90
463.38	555.90
463.74	545.43
464.11	539.57
464.48	534.19
464.85	528.48
465.21	524.48
465.58	519.86
465.95	513.76
466.32	509.38
466.68	504.43
467.05	499.86
467.42	495.14
467.78	490.76
468.15	486.00
468.52	482.71
468.88	479.05
469.25	475.24
469.62	472.90
469.98	469.24
470.35	466.00
470.72	462.62
471.08	457.33
471.45	455.05
471.82	452.29
472.18	449.14
472.55	447.19
472.92	443.90
473.28	441.00
473.65	438.90
474.02	436.57
474.38	435.05
474.75	433.00
475.11	431.05
475.48	429.81
475.85	428.14
476.21	426.05
476.58	424.29
476.94	423.29
477.31	421.76
477.67	421.05
478.04	420.00
478.41	419.52
478.77	422.10
479.14	421.38
479.50	421.71
479.87	421.48
480.23	421.57
480.60	421.52
480.96	422.33
481.33	423.71
481.69	424.14
482.06	424.33
482.42	426.05
482.79	427.19
483.15	427.90
483.52	429.67
483.88	430.86
484.25	432.86
484.61	434.71
484.98	435.95
485.34	438.57
485.71	441.38
486.07	443.10
486.44	442.29
486.80	444.10
487.17	445.57
487.53	448.29
487.90	450.48
488.26	454.14
488.62	456.57
488.99	457.29
489.35	459.95
489.72	462.10
490.08	463.24
490.44	465.52
490.81	468.43
491.17	470.10
491.54	472.43
491.90	475.05
492.26	476.10
492.63	478.57
492.99	480.00
493.36	482.10
493.72	485.05
494.08	487.62
494.45	490.52
494.81	493.29
495.17	495.81
495.54	498.95
495.90	500.86
496.26	503.76
496.63	508.14
496.99	510.86
497.35	514.48
497.72	518.48
498.08	521.62
498.44	524.71
498.80	529.24
499.17	533.05
499.53	536.14
499.89	540.71
500.26	545.38
500.62	549.52
500.98	554.90
501.34	559.24
501.71	564.05
502.07	568.67
502.43	573.62
502.79	578.10
503.16	582.19
503.52	587.24
503.88	592.10
504.24	596.76
504.60	602.14
504.97	607.29
505.33	612.19
505.69	618.29
506.05	623.57
506.41	628.05
506.78	633.86
507.14	639.14
507.50	644.33
507.86	649.10
508.22	653.95
508.59	657.67
508.95	662.57
509.31	668.95
509.67	674.14
510.03	678.81
510.39	684.19
510.75	689.33
511.12	694.14
511.48	699.24
511.84	703.95
512.20	708.19
512.56	713.24
512.92	718.33
513.28	722.19
513.64	727.24
514.00	731.57
514.37	735.48
514.73	740.14
515.09	745.24
515.45	749.95
515.81	754.62
516.17	758.81
516.53	763.29
516.89	765.95
517.25	770.10
517.61	774.14
517.97	777.62
518.33	782.00
518.69	786.43
519.05	790.38
519.41	793.90
519.77	799.43
520.13	802.05
520.49	804.38
520.85	808.33
521.21	811.62
521.57	815.48
521.93	818.10
522.29	821.19
522.65	823.10
523.01	825.48
523.37	827.62
523.73	830.33
524.09	831.76
524.45	834.00
524.81	835.29
525.17	837.52
525.53	839.86
525.89	841.10
526.25	843.10
526.61	844.10
526.97	845.71
527.33	846.52
527.68	851.19
528.04	852.90
528.40	853.90
528.76	855.29
529.12	855.86
529.48	857.90
529.84	858.52
530.20	860.43
530.56	861.76
530.91	863.52
531.27	864.76
531.63	866.48
531.99	867.10
532.35	868.71
532.71	869.71
533.07	870.52
533.42	875.29
533.78	875.00
534.14	876.05
534.50	877.86
534.86	879.24
535.21	878.90
535.57	881.24
535.93	882.48
536.29	885.52
536.65	888.81
537.00	890.90
537.36	893.81
537.72	897.29
538.08	901.10
538.44	905.24
538.79	910.38
539.15	915.05
539.51	921.19
539.87	926.24
540.22	931.38
540.58	937.00
540.94	939.71
541.29	946.67
541.65	951.48
542.01	956.38
542.37	960.76
542.72	962.86
543.08	964.90
543.44	966.90
543.79	965.95
544.15	966.00
544.51	966.90
544.87	966.57
545.22	964.95
545.58	963.90
545.94	960.90
546.29	956.05
546.65	951.43
547.01	946.52
547.36	941.67
547.72	936.57
548.07	931.38
548.43	925.33
548.79	917.71
549.14	912.10
549.50	906.48
549.86	899.33
550.21	894.52
550.57	890.48
550.92	886.24
551.28	883.81
551.64	880.33
551.99	876.43
552.35	873.33
552.70	869.86
553.06	865.62
553.41	862.29
553.77	861.62
554.13	859.86
554.48	857.81
554.84	856.05
555.19	853.43
555.55	852.38
555.90	849.57
556.26	847.95
556.61	845.05
556.97	841.33
557.32	839.14
557.68	837.29
558.03	834.52
558.39	832.67
558.74	829.76
559.10	827.29
559.45	825.33
559.81	823.38
560.16	820.71
560.52	818.76
560.87	817.71
561.23	814.62
561.58	814.48
561.94	811.19
562.29	809.43
562.64	808.10
563.00	803.57
563.35	802.57
563.71	800.33
564.06	799.48
564.42	797.67
564.77	796.71
565.12	795.29
565.48	795.95
565.83	795.19
566.19	793.62
566.54	792.14
566.89	790.95
567.25	790.14
567.60	790.86
567.96	791.86
568.31	792.48
568.66	792.43
569.02	788.95
569.37	788.81
569.72	787.62
570.08	785.86
570.43	785.67
570.78	783.81
571.14	783.57
571.49	781.90
571.84	781.00
572.20	780.62
572.55	779.48
572.90	776.38
573.26	775.05
573.61	774.05
573.96	773.19
574.31	772.67
574.67	771.00
575.02	768.71
575.37	765.62
575.72	763.24
576.08	762.33
576.43	761.95
576.78	760.43
577.13	759.43
577.49	759.38
577.84	758.38
578.19	757.67
578.54	756.43
578.90	756.57
579.25	756.10
579.60	754.38
579.95	753.19
580.30	752.81
580.66	752.52
581.01	752.24
581.36	750.76
581.71	748.71
582.06	749.14
582.42	747.86
582.77	746.95
583.12	745.48
583.47	743.71
583.82	742.57
584.17	741.43
584.53	740.19
584.88	738.52
585.23	737.38
585.58	734.90
585.93	732.86
586.28	730.67
586.63	728.81
586.98	727.67
587.34	726.48
587.69	724.19
588.04	720.81
588.39	717.76
588.74	715.67
589.09	714.24
589.44	709.38
589.79	706.71
590.14	703.29
590.49	699.71
590.84	695.86
591.19	692.14
591.54	688.90
591.89	684.95
592.25	683.29
592.60	679.48
592.95	677.10
593.30	673.90
593.65	670.71
594.00	667.76
594.35	670.38
594.70	665.81
595.05	662.19
595.40	658.81
595.75	655.86
596.10	652.38
596.45	648.29
596.80	646.24
597.15	643.05
597.50	640.14
597.85	638.10
598.19	634.95
598.54	632.24
598.89	628.86
599.24	626.19
599.59	621.62
599.94	618.90
600.29	616.24
600.64	613.86
600.99	611.95
601.34	609.43
601.69	599.81
602.04	598.10
602.39	595.19
602.74	593.62
603.08	590.81
603.43	590.24
603.78	588.48
604.13	586.10
604.48	585.05
604.83	583.76
605.18	582.76
605.53	583.62
605.87	586.48
606.22	592.00
606.57	598.38
606.92	605.38
607.27	613.62
607.62	622.14
607.96	629.43
608.31	635.52
608.66	640.67
609.01	646.29
609.36	651.05
609.70	656.86
610.05	660.38
610.40	665.57
610.75	667.81
611.10	670.24
611.44	672.00
611.79	672.48
612.14	673.00
612.49	671.71
612.83	669.38
613.18	664.62
613.53	657.38
613.88	649.52
614.22	639.62
614.57	629.14
614.92	618.00
615.27	609.10
615.61	599.76
615.96	591.62
616.31	584.05
616.65	576.90
617.00	568.86
617.35	562.43
617.70	555.19
618.04	548.95
618.39	543.52
618.74	539.43
619.08	535.29
619.43	531.33
619.78	527.24
620.12	523.67
620.47	520.86
620.82	518.14
621.16	514.33
621.51	513.48
621.85	510.71
622.20	508.67
622.55	505.24
622.89	502.76
623.24	500.71
623.59	497.86
623.93	495.24
624.28	492.86
624.62	493.14
624.97	492.43
625.32	490.48
625.66	487.95
626.01	485.76
626.35	484.29
626.70	482.57
627.04	481.90
627.39	480.57
627.73	479.43
628.08	477.48
628.43	475.14
628.77	471.62
629.12	469.14
629.46	466.95
629.81	464.95
630.15	462.48
630.50	460.19
630.84	458.29
631.19	455.62
631.53	453.57
631.88	448.43
632.22	444.10
632.57	441.76
632.91	439.71
633.26	437.29
633.60	433.43
633.95	430.24
634.29	426.95
634.64	423.81
634.98	419.90
635.32	418.14
635.67	416.43
636.01	414.76
636.36	413.00
636.70	411.52
637.05	409.00
637.39	407.29
637.73	405.24
638.08	404.14
638.42	402.52
638.77	400.86
639.11	399.33
639.45	397.71
639.80	396.00
640.14	394.24
640.49	392.10
640.83	391.57
641.17	390.90
641.52	389.38
641.86	388.86
642.20	389.05
642.55	386.76
642.89	385.76
643.23	384.57
643.58	384.48
643.92	381.95
644.26	381.19
644.61	380.19
644.95	378.86
645.29	376.95
645.64	377.05
645.98	376.24
646.32	375.52
646.66	374.24
647.01	373.48
647.35	372.81
647.69	372.57
648.04	371.48
648.38	370.00
648.72	369.48
649.06	367.95
649.41	366.14
649.75	365.57
650.09	364.90
650.43	363.33
650.78	361.71
651.12	360.71
651.46	359.67
651.80	358.00
652.14	357.10
652.49	357.00
652.83	355.29
653.17	354.48
653.51	353.14
653.85	352.48
654.20	351.05
654.54	349.29
654.88	347.52
655.22	345.90
655.56	344.67
655.90	343.71
656.25	343.19
656.59	342.43
656.93	341.86
657.27	341.05
657.61	340.38
657.95	339.90
658.29	339.81
658.64	339.86
658.98	339.48
659.32	338.62
659.66	337.14
660.00	336.19
660.34	335.33
660.68	334.76
661.02	334.43
661.36	333.57
661.70	333.05
662.05	332.71
662.39	333.19
662.73	333.62
663.07	334.10
663.41	333.57
663.75	332.67
664.09	332.24
664.43	331.29
664.77	331.00
665.11	329.71
665.45	328.76
665.79	328.00
666.13	327.43
666.47	327.10
666.81	326.43
667.15	325.38
667.49	324.43
667.83	324.10
668.17	322.76
668.51	322.29
668.85	322.05
669.19	322.43
669.53	321.19
669.87	319.81
670.21	318.14
670.55	317.10
670.89	317.71
671.23	316.71
671.57	316.00
671.91	315.24
672.25	314.90
672.58	314.95
672.92	313.57
673.26	312.81
673.60	311.71
673.94	311.29
674.28	311.19
674.62	311.57
674.96	310.95
675.30	310.67
675.64	310.14
675.97	309.10
676.31	307.48
676.65	306.38
676.99	306.71
677.33	305.71
677.67	305.29
678.01	303.48
678.34	303.05
678.68	303.19
679.02	302.33
679.36	301.29
679.70	300.33
680.04	300.14
680.37	299.57
680.71	299.19
681.05	299.10
681.39	298.86
681.73	297.33
682.06	296.76
682.40	296.38
682.74	296.05
683.08	297.10
683.42	296.95
683.75	297.24
684.09	296.14
684.43	295.76
684.77	295.00
685.10	294.76
685.44	294.57
685.78	293.57
686.12	292.86
686.45	292.86
686.79	292.29
687.13	292.14
687.46	292.10
687.80	292.48
688.14	291.76
688.48	291.14
688.81	291.19
689.15	291.10
689.49	290.57
689.82	290.38
690.16	288.52
690.50	288.05
690.83	287.43
691.17	286.33
691.51	286.33
691.84	286.52
692.18	285.95
692.52	284.86
692.85	284.76
693.19	285.95
693.52	285.67
693.86	284.90
694.20	284.38
694.53	283.90
694.87	282.81
695.21	281.81
695.54	281.57
695.88	280.57
696.21	279.29
696.55	278.48
696.88	277.71
697.22	277.52
697.56	277.05
697.89	276.76
698.23	277.43
698.56	276.86
698.90	276.81
699.23	276.38
699.57	276.38
699.90	275.76
700.24	274.76
700.58	274.57
700.91	275.10
701.25	277.10
701.58	277.81
701.92	278.67
702.25	279.57
702.59	279.86
702.92	280.38
703.26	281.43
703.59	282.29
703.93	284.95
704.26	285.86
704.60	286.52
704.93	287.05
705.26	286.81
705.60	287.71
705.93	287.48
706.27	288.71
706.60	289.67
706.94	291.19
707.27	291.10
707.61	291.57
707.94	291.81
708.27	290.10
708.61	289.00
708.94	288.33
709.28	287.71
709.61	286.52
709.94	286.43
710.28	285.57
710.61	285.05
710.95	282.19
711.28	282.86
711.61	282.05
711.95	281.67
712.28	280.67
712.61	279.67
712.95	280.24
713.28	280.00
713.61	278.71
713.95	277.10
714.28	276.19
714.61	274.86
714.95	274.10
715.28	272.81
715.61	272.29
715.95	271.62
716.28	270.86
716.61	270.48
716.95	269.38
717.28	268.71
717.61	268.14
717.94	267.90
718.28	265.29
718.61	264.43
718.94	263.29
719.27	263.00
719.61	262.48
719.94	261.43
720.27	259.95
720.60	259.81
720.94	259.33
721.27	259.57
721.60	260.00
721.93	259.52
722.27	260.33
722.60	260.81
722.93	260.71
723.26	260.81
723.59	260.81
723.93	261.19
724.26	261.43
724.59	261.10
724.92	261.00
725.25	261.71
725.59	261.81
725.92	262.24
726.25	262.19
726.58	262.43
726.91	262.33
727.24	262.81
727.57	262.38
727.91	262.19
728.24	261.90
728.57	261.52
728.90	261.71
729.23	260.57
729.56	261.29
729.89	261.00
730.22	260.43
730.55	260.05
730.89	259.52
731.22	259.24
731.55	259.14
731.88	259.05
732.21	258.76
732.54	258.43
732.87	258.00
733.20	257.86
733.53	257.76
733.86	257.33
734.19	256.71
734.52	257.24
734.85	258.43
735.18	258.19
735.51	258.43
735.84	258.05
736.17	258.86
736.50	257.33
736.83	260.00
737.16	260.33
737.49	260.86
737.82	261.00
738.15	260.90
738.48	260.90
738.81	260.33
739.14	259.86
739.47	259.67
739.80	259.62
740.13	260.24
740.46	259.76
740.79	259.52
741.12	259.48
741.45	258.52
741.78	257.43
742.11	258.00
742.44	257.38
742.77	257.81
743.10	257.29
743.43	257.43
743.75	255.10
744.08	257.57
744.41	256.67
744.74	256.38
745.07	255.90
745.40	256.05
745.73	257.10
746.06	256.86
746.39	257.14
746.71	257.33
747.04	256.48
747.37	256.33
747.70	256.86
748.03	256.86
748.36	257.52
748.68	257.33
749.01	256.14
749.34	255.95
749.67	255.29
750.00	255.24
750.33	256.90
750.65	256.62
750.98	253.76
751.31	254.00
751.64	253.95
751.97	255.52
752.29	255.29
752.62	254.38
752.95	254.33
753.28	253.76
753.60	253.29
753.93	254.14
754.26	254.33
754.59	253.48
754.91	253.00
755.24	252.38
755.57	251.90
755.90	251.95
756.22	251.86
756.55	251.76
756.88	251.10
757.20	249.29
757.53	248.57
757.86	248.86
758.19	249.10
758.51	249.10
758.84	247.57
759.17	247.52
759.49	247.48
759.82	248.81
760.15	248.95
760.47	248.67
760.80	247.48
761.13	247.81
761.45	247.67
761.78	247.62
762.11	247.90
762.43	247.95
762.76	248.14
763.08	248.29
763.41	248.33
763.74	248.48
764.06	247.90
764.39	248.33
764.71	248.10
765.04	247.81
765.37	247.38
765.69	247.52
766.02	247.19
766.34	246.95
766.67	245.57
767.00	246.33
767.32	247.86
767.65	249.52
767.97	249.00
768.30	249.00
768.62	249.29
768.95	249.10
769.27	249.00
769.60	249.10
769.92	248.71
770.25	248.10
770.57	247.62
770.90	247.81
771.22	247.38
771.55	247.38
771.87	247.43
772.20	247.48
772.52	249.33
772.85	252.57
773.17	252.76
773.50	253.00
773.82	252.29
774.15	251.05
774.47	249.57
774.80	249.43
775.12	249.43
775.45	249.14
775.77	249.00
776.09	249.19
776.42	249.14
776.74	249.81
777.07	249.90
777.39	250.14
777.72	250.00
778.04	250.24
778.36	249.76
778.69	250.19
779.01	250.19
779.33	247.95
779.66	244.95
779.98	244.62
780.31	244.43
780.63	245.29
780.95	245.67
781.28	245.33
781.60	244.76
781.92	244.86
782.25	245.05
782.57	245.29
782.89	245.19
783.22	245.19
783.54	244.52
783.86	244.81
784.19	244.90
784.51	245.57
784.83	245.24
785.16	245.33
785.48	244.86
785.80	244.67
786.12	244.76
786.45	244.57
786.77	244.76
787.09	244.81
787.42	243.90
787.74	243.71
788.06	243.90
788.38	244.05
788.71	243.67
789.03	243.33
789.35	243.71
789.67	243.29
789.99	243.38
790.32	243.43
790.64	243.71
790.96	245.57
791.28	244.71
791.61	244.38
791.93	244.38
792.25	244.24
792.57	246.10
792.89	245.95
793.21	245.90
793.54	245.62
793.86	245.24
794.18	245.52
794.50	245.14
794.82	245.33
795.14	245.76
795.47	246.48
795.79	246.67
796.11	245.67
796.43	245.62
796.75	245.67
797.07	245.76
797.39	245.48
797.71	243.48
798.04	243.67
798.36	244.19
798.68	244.05
799.00	244.19
799.32	243.05
799.64	243.48
799.96	243.81
800.28	244.10
800.60	244.05
800.92	244.10
801.24	244.00
801.56	244.00
801.89	243.67
802.21	243.48
802.53	243.24
802.85	243.76
803.17	245.00
803.49	244.43
803.81	244.14
804.13	244.00
804.45	243.86
804.77	244.00
805.09	243.81
805.41	243.95
805.73	243.38
806.05	242.86
806.37	242.52
806.69	242.33
807.01	242.05
807.33	242.05
807.65	241.38
807.97	242.24
808.28	242.10
808.60	241.86
808.92	241.62
809.24	242.90
809.56	242.33
809.88	241.29
810.20	241.14
810.52	241.52
810.84	241.48
811.16	241.67
811.48	241.71
811.80	242.67
812.12	242.43
812.43	243.19
812.75	243.38
813.07	243.43
813.39	243.43
813.71	243.48
814.03	243.52
814.35	243.52
814.67	242.81
814.98	242.33
815.30	242.67
815.62	242.29
815.94	240.81
816.26	242.38
816.58	242.24
816.89	242.81
817.21	242.10
817.53	242.00
817.85	241.81
818.17	242.00
818.48	241.10
818.80	241.71
819.12	241.24
819.44	240.57
819.76	240.24
820.07	240.05
820.39	239.76
820.71	239.86
821.03	239.86
821.34	239.67
821.66	240.24
821.98	240.29
822.30	240.48
822.61	242.05
822.93	240.67
823.25	240.33
823.57	240.00
823.88	241.00
824.20	241.14
824.52	241.67
824.83	241.33
825.15	241.14
825.47	241.29
825.79	241.71
826.10	241.62
826.42	241.81
826.74	242.29
827.05	242.38
827.37	242.95
827.69	242.90
828.00	243.14
828.32	242.95
828.64	242.67
828.95	244.05
829.27	243.29
829.58	243.33
829.90	244.05
830.22	244.43
830.53	243.62
830.85	243.38
831.17	242.67
831.48	242.52
831.80	242.48
832.11	241.81
832.43	241.52
832.75	241.67
833.06	242.86
833.38	242.33
833.69	242.29
834.01	241.86
834.32	241.76
834.64	241.48
834.96	241.81
835.27	242.14
835.59	241.10
835.90	240.81
836.22	240.71
836.53	240.05
836.85	239.71
837.16	242.57
837.48	242.62
837.79	243.43
838.11	243.81
838.42	243.95
838.74	244.52
839.05	244.33
839.37	244.57
839.68	243.29
840.00	242.95
840.31	243.10
840.63	243.19
840.94	243.05
841.26	243.00
841.57	242.67
841.88	243.00
842.20	242.52
842.51	241.95
842.83	242.14
843.14	244.38
843.46	244.38
843.77	242.67
844.08	242.33
844.40	241.67
844.71	241.19
845.03	241.38
845.34	241.05
845.65	240.90
845.97	240.57
846.28	240.81
846.60	241.29
846.91	240.81
847.22	240.86
847.54	241.71
847.85	241.43
848.16	241.38
848.48	240.81
848.79	241.90
849.10	242.48
849.42	242.57
849.73	240.38
850.04	240.14
850.36	239.19
850.67	239.90
850.98	239.76
851.30	240.05
851.61	239.48
851.92	239.52
852.23	240.10
852.55	240.48
852.86	240.24
853.17	240.24
853.49	241.29
853.80	241.43
854.11	241.48
854.42	242.10
854.74	241.62
855.05	241.76
855.36	240.24
855.67	240.29
855.99	240.33
856.30	243.29
856.61	243.38
856.92	243.76
857.23	243.57
857.55	243.33
857.86	243.19
858.17	243.86
858.48	243.48
858.79	243.05
859.11	243.10
859.42	243.10
859.73	242.38
860.04	241.95
860.35	240.90
860.66	240.10
860.98	240.14
861.29	240.76
861.60	240.29
861.91	241.43
862.22	240.86
862.53	240.48
862.84	237.48
863.16	237.90
863.47	237.33
863.78	237.24
864.09	237.57
864.40	237.81
864.71	237.76
865.02	238.19
865.33	237.90
865.64	237.43
865.95	237.14
866.27	238.76
866.58	238.38
866.89	239.00
867.20	238.71
867.51	238.62
867.82	238.52
868.13	239.52
868.44	238.81
868.75	239.57
869.06	239.67
869.37	240.24
869.68	239.76
869.99	240.14
870.30	240.19
870.61	240.48
870.92	239.71
871.23	239.38
871.54	239.43
871.85	240.62
872.16	241.19
872.47	241.38
872.78	240.24
873.09	240.76
873.40	240.48
873.71	240.81
874.02	240.76
874.33	240.05
874.64	239.19
874.95	239.62
875.26	239.10
875.56	238.95
875.87	238.62
876.18	238.57
876.49	241.00
876.80	240.81
877.11	240.43
877.42	240.71
877.73	240.71
878.04	240.43
878.35	239.86
878.66	239.90
878.96	239.81
879.27	239.48
879.58	239.38
879.89	239.29
880.20	240.14
880.51	239.90
880.82	240.33
881.12	240.86
881.43	240.43
881.74	240.00
882.05	239.86
882.36	240.05
882.67	240.05
882.97	237.52
883.28	237.52
883.59	237.52
883.90	237.90
884.21	238.43
884.51	238.33
884.82	238.14
885.13	238.10
885.44	237.81
885.74	238.19
886.05	237.81
886.36	237.90
886.67	236.90
886.98	237.95
887.28	238.24
887.59	238.19
887.90	238.19
888.20	238.38
888.51	238.95
888.82	238.71
889.13	238.90
889.43	240.95
889.74	240.62
890.05	240.33
890.35	240.10
890.66	239.71
890.97	239.86
891.28	239.43
891.58	239.19
891.89	239.71
892.20	239.52
892.50	239.71
892.81	239.67
893.12	239.95
893.42	239.29
893.73	239.29
894.04	239.29
894.34	239.62
894.65	239.62
894.95	239.57
895.26	239.48
895.57	240.62
895.87	238.05
896.18	238.38
896.48	238.81
896.79	238.95
897.10	239.14
897.40	239.05
897.71	239.52
898.01	239.62
898.32	239.67
898.63	239.81
898.93	239.95
899.24	239.86
899.54	239.38
899.85	238.86
900.15	238.67
900.46	238.38
900.76	238.57
901.07	238.48
901.38	238.00
901.68	238.14
901.99	236.90
902.29	237.48
902.60	237.52
902.90	237.24
903.21	237.00
903.51	236.81
903.82	237.43
904.12	237.38
904.43	237.38
904.73	237.24
905.03	237.29
905.34	239.24
905.64	239.43
905.95	239.76
906.25	239.76
906.56	239.86
906.86	240.00
907.17	239.67
907.47	239.81
907.77	239.81
908.08	239.71
908.38	240.10
908.69	240.24
908.99	240.57
909.30	240.71
909.60	240.81
909.90	240.90
910.21	239.86
910.51	239.43
910.81	239.57
911.12	239.76
911.42	239.67
911.73	237.14
912.03	237.19
912.33	237.48
912.64	237.48
912.94	237.33
913.24	236.67
913.55	236.48
913.85	236.43
914.15	237.24
914.46	237.38
914.76	237.00
915.06	236.76
915.37	236.43
915.67	236.24
915.97	236.14
916.27	235.76
916.58	236.14
916.88	236.33
917.18	235.95
917.49	237.57
917.79	237.62
918.09	238.29
918.39	239.00
918.70	238.81
919.00	238.81
919.30	239.90
919.60	240.19
919.91	240.24
920.21	240.38
920.51	239.43
920.81	239.29
921.12	239.38
921.42	239.38
921.72	239.67
922.02	240.14
922.32	240.57
922.63	241.05
922.93	242.14
923.23	242.10
923.53	241.95
923.83	240.33
924.13	240.33
924.44	240.57
924.74	240.81
925.04	241.43
925.34	241.43
925.64	240.67
925.94	240.57
926.24	242.14
926.55	241.90
926.85	242.57
927.15	242.62
927.45	242.67
927.75	242.33
928.05	242.57
928.35	242.33
928.65	242.95
928.95	243.10
929.26	242.10
929.56	242.62
929.86	243.05
930.16	242.76
930.46	242.71
930.76	242.43
931.06	241.52
931.36	240.95
931.66	241.48
931.96	241.86
932.26	242.05
932.56	240.71
932.86	240.86
933.16	240.62
933.46	240.29
933.76	240.10
934.06	241.14
934.36	241.57
934.66	241.43
934.96	241.05
935.26	241.14
935.56	241.95
935.86	241.29
936.16	240.86
936.46	240.76
936.76	240.67
937.06	240.19
937.36	240.14
937.66	240.38
937.96	240.33
938.26	239.48
938.56	239.38
938.86	239.48
939.16	239.95
939.46	240.38
939.76	240.81
940.06	241.10
940.35	240.05
940.65	238.71
940.95	239.05
941.25	238.57
941.55	238.29
941.85	238.05
942.15	238.48
942.45	239.19
942.75	239.24
943.04	239.43
943.34	240.19
943.64	240.29
943.94	240.05
944.24	239.95
944.54	240.00
944.84	240.00
945.13	239.48
945.43	239.29
945.73	239.14
946.03	239.10
946.33	239.00
946.62	238.95
946.92	239.05
947.22	239.00
947.52	239.00
947.82	239.19
948.11	238.57
948.41	238.14
948.71	237.67
949.01	237.81
949.31	237.71
949.60	237.43
949.90	237.81
950.20	237.43
950.50	237.38
950.79	237.62
951.09	238.14
951.39	238.38
951.69	238.05
951.98	238.14
952.28	237.95
952.58	237.57
952.87	237.52
953.17	238.10
953.47	238.00
953.76	238.00
954.06	237.48
954.36	237.24
954.66	237.52
954.95	237.95
955.25	237.90
955.55	237.95
955.84	237.48
956.14	237.29
956.44	237.33
956.73	236.95
957.03	236.81
957.32	236.81
957.62	236.86
957.92	237.14
958.21	236.81
958.51	239.52
958.81	239.76
959.10	240.38
959.40	240.95
959.69	240.95
959.99	241.62
960.29	241.76
960.58	241.76
960.88	243.05
961.17	242.81
961.47	243.05
961.76	242.90
962.06	243.67
962.36	243.48
962.65	243.67
962.95	243.90
963.24	244.10
963.54	244.19
963.83	244.24
964.13	244.24
964.42	243.86
964.72	242.00
965.01	242.00
965.31	241.57
965.60	240.81
965.90	242.29
966.19	241.33
966.49	241.38
966.78	241.48
967.08	240.57
967.37	240.71
967.67	240.33
967.96	240.81
968.26	240.33
968.55	240.95
968.85	240.90
969.14	240.95
969.43	240.52
969.73	240.05
970.02	239.86
970.32	239.86
970.61	240.10
970.91	239.38
971.20	239.19
971.49	239.10
971.79	239.24
972.08	237.76
972.38	238.05
972.67	237.86
972.96	238.14
973.26	237.90
973.55	238.38
973.85	238.24
974.14	238.24
974.43	238.71
974.73	238.10
975.02	238.00
975.31	238.19
975.61	238.29
975.90	238.00
976.19	237.90
976.49	237.95
976.78	237.86
977.07	238.00
977.37	238.33
977.66	238.86
977.95	238.67
978.24	238.57
978.54	239.10
978.83	238.81
979.12	238.90
979.42	238.90
979.71	238.48
980.00	238.62
980.29	238.48
980.59	237.86
980.88	238.71
981.17	238.81
981.46	238.52
981.76	238.62
982.05	239.62
982.34	240.05
982.63	240.14
982.93	240.52
983.22	241.33
983.51	241.38
983.80	241.90
984.09	242.52
984.39	242.62
984.68	242.52
984.97	243.14
985.26	243.10
985.55	243.43
985.85	243.00
986.14	243.57
986.43	244.14
986.72	244.10
987.01	243.29
987.30	243.33
987.59	243.29
987.89	243.57
988.18	243.00
988.47	242.62
988.76	242.33
989.05	241.95
989.34	241.48
989.63	242.14
989.92	241.43
990.22	241.00
990.51	241.05
990.80	240.86
991.09	240.76
991.38	240.57
991.67	240.52
991.96	240.57
992.25	240.43
992.54	239.86
992.83	239.81
993.12	239.38
993.41	239.86
993.70	241.05
993.99	241.38
994.28	241.52
994.58	241.90
994.87	241.90
995.16	241.90
995.45	241.52
995.74	240.57
996.03	241.00
996.32	241.38
996.61	241.57
996.90	241.19
997.19	241.10
997.48	241.14
997.77	240.95
998.06	240.90
998.34	240.43
998.63	240.43
998.92	240.71
999.21	241.33
999.50	241.19
999.79	240.19
1000.08	239.76
1000.37	239.86
1000.66	239.71
1000.95	240.10
1001.24	240.29
1001.53	240.76
1001.82	240.76
1002.11	240.14
1002.40	239.95
1002.68	240.67
1002.97	242.48
1003.26	242.29
1003.55	242.10
1003.84	242.05
1004.13	243.00
1004.42	243.24
1004.71	243.05
1004.99	242.86
1005.28	243.10
1005.57	242.86
1005.86	242.29
1006.15	242.14
1006.44	241.95
1006.72	241.86
1007.01	241.24
1007.30	241.00
1007.59	240.76
1007.88	240.71
1008.17	240.90
1008.45	240.67
1008.74	239.86
1009.03	238.86
1009.32	238.90
1009.60	238.90
1009.89	238.38
1010.18	237.33
1010.47	237.05
1010.76	236.86
1011.04	236.76
1011.33	236.33
1011.62	236.57
1011.91	236.81
1012.19	236.95
1012.48	236.62
1012.77	236.67
1013.05	238.14
1013.34	238.05
1013.63	237.81
1013.92	237.95
1014.20	237.71
1014.49	237.95
1014.78	238.10
1015.06	237.10
1015.35	236.81
1015.64	237.05
1015.92	237.48
1016.21	237.38
1016.50	237.43
1016.78	237.81
1017.07	237.81
1017.36	238.19
1017.64	237.71
1017.93	238.19
1018.22	238.05
1018.50	237.76
1018.79	237.67
1019.08	236.33
1019.36	236.62
1019.65	236.19
1019.93	236.86
1020.22	237.19
1020.51	238.14
1020.79	237.48
1021.08	234.00
1021.36	227.00
1021.65	237.00
1021.94	236.00
1022.22	239.00
1022.51	229.00
1022.79	251.00
1023.08	241.00
1023.36	266.00
1023.65	228.00
>>>>>End Processed Spectral Data<<<<<
