SpectraSuite Data File
++++++++++++++++++++++++++++++++++++
Date: Wed Nov 07 18:33:07 EST 2012
User: group
Dark Spectrum Present: No
Reference Spectrum Present: No
Number of Sampled Component Spectra: 1
Spectrometers: USB2E7196
Integration Time (usec): 1000000 (USB2E7196)
Spectra Averaged: 1 (USB2E7196)
Boxcar Smoothing: 10 (USB2E7196)
Correct for Electrical Dark: No (USB2E7196)
Strobe/Lamp Enabled: No (USB2E7196)
Correct for Detector Non-linearity: No (USB2E7196)
Correct for Stray Light: No (USB2E7196)
Number of Pixels in Processed Spectrum: 2048
>>>>>Begin Processed Spectral Data<<<<<
339.09	0.00
339.48	219.00
339.86	218.00
340.24	213.00
340.63	218.00
341.01	261.00
341.39	226.00
341.78	235.00
342.16	233.00
342.54	230.00
342.93	220.67
343.31	231.57
343.69	232.00
344.07	232.67
344.46	233.90
344.84	234.52
345.22	233.29
345.60	233.52
345.99	233.48
346.37	233.24
346.75	233.24
347.13	233.05
347.52	233.43
347.90	234.19
348.28	234.29
348.66	234.76
349.05	234.05
349.43	234.57
349.81	234.62
350.19	234.62
350.57	234.76
350.96	235.05
351.34	235.24
351.72	235.62
352.10	235.71
352.48	235.33
352.87	235.38
353.25	235.38
353.63	235.38
354.01	235.19
354.39	236.05
354.77	236.29
355.15	236.95
355.54	236.76
355.92	235.86
356.30	235.67
356.68	237.38
357.06	237.43
357.44	236.90
357.82	237.38
358.20	237.71
358.58	238.10
358.97	238.33
359.35	239.14
359.73	239.62
360.11	239.95
360.49	240.00
360.87	240.24
361.25	240.81
361.63	241.81
362.01	242.24
362.39	241.62
362.77	241.81
363.15	241.86
363.53	241.71
363.91	242.14
364.29	242.52
364.67	240.19
365.05	240.19
365.43	240.62
365.81	240.57
366.19	241.86
366.57	242.81
366.95	242.81
367.33	242.52
367.71	242.48
368.09	242.76
368.47	243.05
368.85	243.19
369.23	243.48
369.61	242.43
369.99	243.38
370.37	244.00
370.75	245.48
371.13	245.05
371.51	245.14
371.89	245.48
372.27	245.71
372.65	245.81
373.03	246.05
373.41	245.71
373.78	245.81
374.16	244.38
374.54	243.29
374.92	243.05
375.30	242.86
375.68	242.57
376.06	242.48
376.44	242.14
376.82	242.19
377.19	241.95
377.57	242.10
377.95	241.10
378.33	240.67
378.71	238.81
379.09	239.48
379.47	239.52
379.84	239.48
380.22	239.14
380.60	239.00
380.98	238.81
381.36	239.10
381.73	238.71
382.11	239.43
382.49	239.43
382.87	239.43
383.25	239.29
383.62	241.95
384.00	241.62
384.38	242.00
384.76	242.38
385.13	243.52
385.51	243.57
385.89	243.33
386.27	243.29
386.64	243.90
387.02	243.24
387.40	243.10
387.78	243.10
388.15	243.10
388.53	242.86
388.91	243.05
389.29	242.52
389.66	242.86
390.04	242.00
390.42	242.38
390.79	242.52
391.17	242.62
391.55	239.90
391.92	239.90
392.30	239.90
392.68	239.33
393.05	239.05
393.43	239.14
393.81	239.52
394.18	239.67
394.56	239.38
394.94	239.95
395.31	239.86
395.69	240.52
396.06	240.71
396.44	241.14
396.82	240.81
397.19	242.19
397.57	242.19
397.95	243.24
398.32	242.62
398.70	242.57
399.07	243.14
399.45	242.95
399.82	243.10
400.20	242.81
400.58	243.29
400.95	242.33
401.33	242.95
401.70	244.33
402.08	244.29
402.45	244.48
402.83	245.29
403.20	245.86
403.58	245.14
403.95	246.10
404.33	246.90
404.71	247.48
405.08	248.76
405.46	249.05
405.83	249.38
406.21	249.81
406.58	250.48
406.96	250.81
407.33	251.81
407.70	252.29
408.08	255.24
408.45	255.62
408.83	256.62
409.20	257.14
409.58	257.05
409.95	258.29
410.33	259.33
410.70	259.38
411.08	260.33
411.45	262.19
411.82	262.52
412.20	263.67
412.57	266.24
412.95	265.52
413.32	267.43
413.69	268.48
414.07	270.19
414.44	271.81
414.82	273.81
415.19	276.05
415.56	278.33
415.94	278.86
416.31	282.10
416.68	284.62
417.06	288.00
417.43	290.90
417.81	294.62
418.18	298.62
418.55	302.43
418.93	306.67
419.30	310.43
419.67	314.86
420.04	318.95
420.42	323.43
420.79	330.90
421.16	336.29
421.54	343.86
421.91	350.81
422.28	357.14
422.66	363.71
423.03	371.71
423.40	379.05
423.77	387.05
424.15	393.90
424.52	402.19
424.89	411.10
425.26	419.19
425.64	426.62
426.01	434.71
426.38	443.38
426.75	452.76
427.13	461.81
427.50	471.38
427.87	481.62
428.24	491.19
428.61	499.24
428.99	510.57
429.36	520.76
429.73	531.67
430.10	543.33
430.47	555.43
430.85	566.43
431.22	579.48
431.59	594.95
431.96	608.57
432.33	622.71
432.70	636.00
433.08	652.52
433.45	667.76
433.82	683.24
434.19	700.52
434.56	716.19
434.93	731.14
435.30	747.38
435.68	765.52
436.05	782.33
436.42	799.38
436.79	814.38
437.16	830.62
437.53	848.00
437.90	864.10
438.27	881.38
438.64	897.67
439.01	913.86
439.38	925.76
439.75	938.33
440.13	953.29
440.50	967.29
440.87	977.90
441.24	989.90
441.61	1002.90
441.98	1011.52
442.35	1022.10
442.72	1034.48
443.09	1046.19
443.46	1052.10
443.83	1055.14
444.20	1058.81
444.57	1064.43
444.94	1066.33
445.31	1067.19
445.68	1073.33
446.05	1072.86
446.42	1070.52
446.79	1068.29
447.16	1064.38
447.53	1062.10
447.90	1054.10
448.27	1046.24
448.64	1036.24
449.01	1029.14
449.37	1017.19
449.74	1005.67
450.11	995.19
450.48	980.10
450.85	962.95
451.22	948.67
451.59	936.76
451.96	923.86
452.33	907.52
452.70	892.62
453.07	875.95
453.43	854.76
453.80	838.00
454.17	822.00
454.54	804.81
454.91	789.29
455.28	773.57
455.65	759.76
456.02	749.62
456.38	737.71
456.75	722.14
457.12	708.76
457.49	696.71
457.86	681.90
458.23	672.33
458.59	661.71
458.96	650.62
459.33	640.86
459.70	631.19
460.07	623.38
460.43	613.76
460.80	606.24
461.17	598.62
461.54	590.90
461.91	583.67
462.27	576.43
462.64	569.52
463.01	562.76
463.38	556.14
463.74	545.67
464.11	540.19
464.48	535.05
464.85	529.62
465.21	525.95
465.58	521.29
465.95	514.38
466.32	509.76
466.68	504.90
467.05	500.10
467.42	495.43
467.78	489.62
468.15	485.86
468.52	482.57
468.88	478.57
469.25	474.19
469.62	471.62
469.98	468.19
470.35	465.19
470.72	462.19
471.08	458.38
471.45	455.71
471.82	452.95
472.18	450.14
472.55	448.19
472.92	444.38
473.28	442.10
473.65	439.67
474.02	437.24
474.38	435.95
474.75	434.29
475.11	431.81
475.48	430.76
475.85	429.29
476.21	427.52
476.58	426.19
476.94	424.81
477.31	422.52
477.67	421.48
478.04	420.33
478.41	419.48
478.77	421.62
479.14	420.48
479.50	419.76
479.87	419.71
480.23	418.95
480.60	419.19
480.96	419.52
481.33	421.00
481.69	421.48
482.06	421.38
482.42	422.29
482.79	423.71
483.15	424.52
483.52	425.52
483.88	425.76
484.25	427.33
484.61	428.62
484.98	430.19
485.34	432.24
485.71	433.71
486.07	435.10
486.44	434.14
486.80	436.10
487.17	437.76
487.53	439.81
487.90	442.10
488.26	444.67
488.62	446.81
488.99	447.57
489.35	448.86
489.72	451.24
490.08	452.43
490.44	454.00
490.81	456.52
491.17	458.57
491.54	461.24
491.90	463.57
492.26	466.10
492.63	468.95
492.99	470.76
493.36	473.71
493.72	476.62
494.08	479.29
494.45	482.33
494.81	485.86
495.17	488.62
495.54	492.05
495.90	494.38
496.26	497.00
496.63	501.38
496.99	505.90
497.35	509.33
497.72	513.71
498.08	517.62
498.44	521.71
498.80	526.10
499.17	530.24
499.53	533.57
499.89	538.38
500.26	542.33
500.62	547.33
500.98	552.62
501.34	557.33
501.71	562.67
502.07	567.62
502.43	571.81
502.79	575.95
503.16	580.38
503.52	585.86
503.88	591.00
504.24	595.76
504.60	600.86
504.97	606.05
505.33	610.90
505.69	617.24
506.05	622.29
506.41	627.38
506.78	632.67
507.14	638.57
507.50	644.67
507.86	650.71
508.22	656.10
508.59	660.95
508.95	666.67
509.31	672.67
509.67	677.76
510.03	683.43
510.39	689.33
510.75	694.38
511.12	699.67
511.48	705.29
511.84	710.10
512.20	714.67
512.56	719.43
512.92	724.57
513.28	729.05
513.64	733.52
514.00	738.52
514.37	743.14
514.73	748.10
515.09	751.71
515.45	755.62
515.81	759.95
516.17	764.67
516.53	768.62
516.89	771.71
517.25	775.90
517.61	780.14
517.97	783.52
518.33	788.48
518.69	792.05
519.05	795.33
519.41	800.24
519.77	806.00
520.13	810.19
520.49	813.05
520.85	816.05
521.21	820.57
521.57	824.57
521.93	828.14
522.29	831.38
522.65	833.90
523.01	836.67
523.37	838.33
523.73	839.43
524.09	842.19
524.45	844.48
524.81	846.86
525.17	849.52
525.53	852.38
525.89	853.00
526.25	855.33
526.61	856.95
526.97	857.57
527.33	858.29
527.68	862.10
528.04	863.67
528.40	865.43
528.76	867.05
529.12	867.48
529.48	868.24
529.84	869.19
530.20	871.52
530.56	874.24
530.91	877.43
531.27	879.43
531.63	880.52
531.99	881.52
532.35	881.95
532.71	881.95
533.07	883.52
533.42	888.38
533.78	889.10
534.14	891.00
534.50	892.57
534.86	893.24
535.21	891.95
535.57	893.81
535.93	894.19
536.29	895.86
536.65	898.10
537.00	899.90
537.36	901.62
537.72	903.14
538.08	904.52
538.44	905.38
538.79	907.81
539.15	909.81
539.51	912.05
539.87	915.05
540.22	918.10
540.58	919.19
540.94	919.19
541.29	921.95
541.65	923.10
542.01	925.52
542.37	927.19
542.72	928.33
543.08	928.24
543.44	928.76
543.79	926.95
544.15	927.10
544.51	927.48
544.87	926.14
545.22	924.43
545.58	922.38
545.94	921.05
546.29	918.81
546.65	916.38
547.01	913.90
547.36	911.71
547.72	908.29
548.07	906.38
548.43	902.76
548.79	898.38
549.14	895.29
549.50	892.14
549.86	888.62
550.21	886.14
550.57	885.10
550.92	882.57
551.28	881.57
551.64	878.57
551.99	876.05
552.35	873.57
552.70	871.86
553.06	870.76
553.41	868.38
553.77	868.48
554.13	867.00
554.48	865.95
554.84	863.86
555.19	862.48
555.55	862.52
555.90	860.76
556.26	859.19
556.61	857.48
556.97	854.67
557.32	852.52
557.68	850.81
558.03	848.29
558.39	846.52
558.74	843.29
559.10	841.57
559.45	838.86
559.81	836.48
560.16	834.33
560.52	831.81
560.87	830.24
561.23	826.24
561.58	826.00
561.94	824.00
562.29	822.38
562.64	820.67
563.00	816.57
563.35	814.67
563.71	813.38
564.06	811.38
564.42	809.67
564.77	808.00
565.12	806.33
565.48	806.95
565.83	806.76
566.19	805.86
566.54	803.95
566.89	802.67
567.25	803.05
567.60	803.57
567.96	805.14
568.31	806.00
568.66	806.29
569.02	802.95
569.37	801.19
569.72	799.81
570.08	798.52
570.43	796.95
570.78	795.33
571.14	794.19
571.49	793.57
571.84	792.24
572.20	791.52
572.55	789.86
572.90	786.90
573.26	784.76
573.61	783.43
573.96	782.14
574.31	781.71
574.67	780.33
575.02	777.81
575.37	773.67
575.72	770.24
576.08	767.62
576.43	766.10
576.78	765.00
577.13	762.71
577.49	761.19
577.84	759.71
578.19	758.05
578.54	756.90
578.90	755.48
579.25	754.67
579.60	753.33
579.95	752.33
580.30	750.81
580.66	750.19
581.01	748.52
581.36	746.76
581.71	744.81
582.06	744.00
582.42	742.10
582.77	740.14
583.12	739.38
583.47	737.71
583.82	737.14
584.17	736.00
584.53	736.14
584.88	733.67
585.23	732.71
585.58	731.00
585.93	728.10
586.28	726.57
586.63	724.24
586.98	721.62
587.34	719.76
587.69	717.38
588.04	714.29
588.39	712.14
588.74	710.52
589.09	708.43
589.44	704.24
589.79	701.24
590.14	698.52
590.49	694.57
590.84	691.48
591.19	687.90
591.54	684.24
591.89	679.86
592.25	679.38
592.60	675.29
592.95	672.52
593.30	669.95
593.65	666.57
594.00	663.24
594.35	667.95
594.70	664.00
595.05	660.81
595.40	658.00
595.75	654.81
596.10	651.57
596.45	648.52
596.80	646.81
597.15	644.43
597.50	641.95
597.85	640.62
598.19	638.29
598.54	635.71
598.89	632.86
599.24	630.33
599.59	626.05
599.94	624.29
600.29	621.62
600.64	619.24
600.99	617.38
601.34	615.76
601.69	605.86
602.04	604.24
602.39	601.38
602.74	599.24
603.08	597.90
603.43	596.76
603.78	594.67
604.13	592.52
604.48	590.76
604.83	589.52
605.18	588.10
605.53	588.57
605.87	589.95
606.22	593.95
606.57	598.14
606.92	602.81
607.27	607.86
607.62	614.00
607.96	619.76
608.31	624.05
608.66	627.33
609.01	631.05
609.36	634.00
609.70	637.52
610.05	640.38
610.40	642.62
610.75	643.90
611.10	645.76
611.44	646.71
611.79	646.62
612.14	646.62
612.49	645.14
612.83	642.38
613.18	638.43
613.53	632.62
613.88	625.76
614.22	618.38
614.57	610.76
614.92	602.24
615.27	593.24
615.61	585.57
615.96	578.90
616.31	572.48
616.65	566.48
617.00	560.29
617.35	553.81
617.70	547.48
618.04	542.43
618.39	536.86
618.74	532.57
619.08	528.43
619.43	524.57
619.78	520.52
620.12	517.62
620.47	514.43
620.82	511.10
621.16	508.05
621.51	506.90
621.85	504.00
622.20	501.52
622.55	499.52
622.89	497.29
623.24	495.67
623.59	493.29
623.93	491.19
624.28	489.43
624.62	489.81
624.97	489.62
625.32	486.71
625.66	484.86
626.01	482.62
626.35	481.29
626.70	479.86
627.04	479.90
627.39	478.14
627.73	477.67
628.08	475.81
628.43	473.29
628.77	469.57
629.12	467.14
629.46	465.29
629.81	463.48
630.15	461.14
630.50	458.05
630.84	455.95
631.19	453.24
631.53	450.90
631.88	446.24
632.22	441.76
632.57	440.81
632.91	438.43
633.26	435.71
633.60	432.86
633.95	429.52
634.29	425.57
634.64	423.10
634.98	419.67
635.32	418.00
635.67	417.05
636.01	415.05
636.36	413.33
636.70	411.90
637.05	409.67
637.39	407.52
637.73	406.00
638.08	404.81
638.42	403.00
638.77	401.52
639.11	399.86
639.45	398.81
639.80	396.14
640.14	394.95
640.49	394.00
640.83	393.14
641.17	392.52
641.52	391.19
641.86	390.14
642.20	390.14
642.55	388.10
642.89	386.81
643.23	385.48
643.58	385.43
643.92	383.52
644.26	383.10
644.61	382.43
644.95	381.81
645.29	380.24
645.64	380.29
645.98	379.14
646.32	379.29
646.66	378.33
647.01	377.38
647.35	376.48
647.69	375.52
648.04	374.57
648.38	373.33
648.72	372.33
649.06	370.62
649.41	368.67
649.75	367.67
650.09	366.95
650.43	365.90
650.78	363.81
651.12	363.05
651.46	361.52
651.80	360.62
652.14	359.00
652.49	358.57
652.83	356.86
653.17	355.71
653.51	353.43
653.85	352.29
654.20	351.33
654.54	349.38
654.88	347.62
655.22	345.90
655.56	344.90
655.90	343.76
656.25	342.90
656.59	342.14
656.93	341.48
657.27	341.00
657.61	340.05
657.95	339.38
658.29	338.43
658.64	338.05
658.98	336.95
659.32	336.29
659.66	334.81
660.00	334.33
660.34	333.90
660.68	333.10
661.02	332.86
661.36	331.48
661.70	331.38
662.05	331.24
662.39	331.76
662.73	331.71
663.07	333.10
663.41	333.33
663.75	332.00
664.09	331.67
664.43	330.05
664.77	329.33
665.11	328.38
665.45	327.71
665.79	327.33
666.13	326.29
666.47	325.33
666.81	325.14
667.15	323.76
667.49	322.71
667.83	323.29
668.17	322.14
668.51	322.05
668.85	321.33
669.19	321.48
669.53	320.10
669.87	318.38
670.21	316.05
670.55	315.14
670.89	316.05
671.23	315.19
671.57	314.57
671.91	314.33
672.25	314.05
672.58	314.29
672.92	312.76
673.26	312.43
673.60	312.00
673.94	311.19
674.28	311.33
674.62	311.00
674.96	310.19
675.30	310.05
675.64	309.86
675.97	309.14
676.31	308.29
676.65	307.48
676.99	308.24
677.33	307.48
677.67	306.86
678.01	304.90
678.34	304.62
678.68	304.81
679.02	304.33
679.36	303.71
679.70	302.19
680.04	302.00
680.37	301.86
680.71	301.29
681.05	300.90
681.39	300.24
681.73	299.71
682.06	298.86
682.40	298.19
682.74	297.71
683.08	298.48
683.42	297.57
683.75	297.90
684.09	296.76
684.43	296.57
684.77	296.24
685.10	296.24
685.44	296.00
685.78	295.24
686.12	294.48
686.45	294.00
686.79	293.43
687.13	293.24
687.46	292.57
687.80	293.05
688.14	292.48
688.48	291.86
688.81	291.76
689.15	292.19
689.49	291.86
689.82	291.86
690.16	290.38
690.50	290.19
690.83	289.52
691.17	288.86
691.51	288.62
691.84	288.24
692.18	287.57
692.52	286.95
692.85	286.67
693.19	287.10
693.52	286.76
693.86	286.81
694.20	286.57
694.53	286.43
694.87	285.43
695.21	284.38
695.54	284.71
695.88	284.05
696.21	282.67
696.55	282.38
696.88	281.62
697.22	281.14
697.56	280.81
697.89	280.48
698.23	280.67
698.56	280.10
698.90	279.81
699.23	279.62
699.57	279.62
699.90	279.14
700.24	278.48
700.58	278.52
700.91	278.76
701.25	280.48
701.58	280.95
701.92	281.76
702.25	282.95
702.59	282.67
702.92	283.00
703.26	283.67
703.59	283.76
703.93	286.29
704.26	287.24
704.60	287.76
704.93	287.76
705.26	287.76
705.60	289.00
705.93	288.95
706.27	290.29
706.60	290.81
706.94	292.43
707.27	292.71
707.61	293.14
707.94	293.19
708.27	291.43
708.61	290.81
708.94	290.10
709.28	289.48
709.61	288.57
709.94	288.43
710.28	288.00
710.61	287.43
710.95	284.52
711.28	285.14
711.61	283.86
711.95	283.76
712.28	282.48
712.61	281.05
712.95	281.33
713.28	281.10
713.61	279.43
713.95	277.67
714.28	276.86
714.61	275.29
714.95	274.48
715.28	273.19
715.61	272.19
715.95	271.71
716.28	271.10
716.61	271.24
716.95	270.14
717.28	269.14
717.61	268.52
717.94	267.95
718.28	265.71
718.61	265.52
718.94	264.33
719.27	264.14
719.61	264.14
719.94	263.52
720.27	262.10
720.60	261.95
720.94	261.52
721.27	261.19
721.60	261.86
721.93	261.14
722.27	261.76
722.60	261.95
722.93	261.33
723.26	261.19
723.59	260.43
723.93	260.62
724.26	260.71
724.59	260.48
724.92	260.43
725.25	260.76
725.59	260.62
725.92	261.14
726.25	261.05
726.58	260.52
726.91	259.86
727.24	259.95
727.57	259.81
727.91	259.71
728.24	259.95
728.57	259.19
728.90	259.43
729.23	258.67
729.56	259.86
729.89	260.00
730.22	259.43
730.55	259.33
730.89	259.14
731.22	258.86
731.55	258.71
731.88	258.67
732.21	258.14
732.54	257.67
732.87	256.95
733.20	257.00
733.53	257.00
733.86	257.05
734.19	256.52
734.52	256.86
734.85	258.33
735.18	257.57
735.51	258.29
735.84	258.19
736.17	258.62
736.50	256.90
736.83	259.57
737.16	259.71
737.49	259.90
737.82	259.57
738.15	259.81
738.48	259.71
738.81	259.24
739.14	259.38
739.47	259.43
739.80	259.71
740.13	259.86
740.46	259.76
740.79	259.33
741.12	258.95
741.45	258.48
741.78	256.76
742.11	257.52
742.44	256.81
742.77	257.00
743.10	256.29
743.43	256.10
743.75	253.52
744.08	256.57
744.41	256.38
744.74	255.90
745.07	255.52
745.40	256.05
745.73	257.24
746.06	257.14
746.39	257.00
746.71	256.81
747.04	256.14
747.37	255.86
747.70	256.24
748.03	256.76
748.36	257.14
748.68	256.90
749.01	256.10
749.34	255.86
749.67	255.76
750.00	255.95
750.33	257.81
750.65	257.48
750.98	254.19
751.31	253.95
751.64	254.38
751.97	255.48
752.29	255.00
752.62	253.76
752.95	253.19
753.28	253.29
753.60	252.90
753.93	253.67
754.26	253.52
754.59	252.76
754.91	252.00
755.24	251.71
755.57	251.76
755.90	251.67
756.22	251.29
756.55	250.76
756.88	250.33
757.20	248.76
757.53	248.19
757.86	248.10
758.19	248.33
758.51	248.14
758.84	246.90
759.17	247.00
759.49	247.33
759.82	248.57
760.15	248.62
760.47	248.71
760.80	247.86
761.13	248.19
761.45	248.19
761.78	248.57
762.11	248.62
762.43	248.48
762.76	248.52
763.08	249.14
763.41	249.19
763.74	249.38
764.06	249.10
764.39	249.52
764.71	249.43
765.04	249.38
765.37	249.38
765.69	249.14
766.02	248.76
766.34	248.29
766.67	247.33
767.00	247.76
767.32	248.90
767.65	250.29
767.97	250.48
768.30	250.81
768.62	250.48
768.95	250.00
769.27	249.95
769.60	249.95
769.92	249.57
770.25	249.24
770.57	248.48
770.90	248.48
771.22	248.29
771.55	248.52
771.87	247.95
772.20	247.57
772.52	249.62
772.85	252.52
773.17	252.90
773.50	252.90
773.82	252.29
774.15	250.95
774.47	249.52
774.80	248.95
775.12	248.62
775.45	248.62
775.77	248.71
776.09	248.86
776.42	249.19
776.74	249.86
777.07	249.86
777.39	250.33
777.72	250.19
778.04	250.14
778.36	249.62
778.69	250.10
779.01	250.57
779.33	248.43
779.66	245.38
779.98	244.90
780.31	244.95
780.63	245.76
780.95	246.38
781.28	246.33
781.60	246.24
781.92	246.33
782.25	246.29
782.57	246.43
782.89	245.90
783.22	245.71
783.54	245.00
783.86	245.05
784.19	244.76
784.51	245.48
784.83	245.48
785.16	245.24
785.48	245.14
785.80	245.05
786.12	245.52
786.45	245.43
786.77	245.81
787.09	245.67
787.42	244.81
787.74	244.76
788.06	244.86
788.38	244.43
788.71	244.52
789.03	244.76
789.35	245.10
789.67	245.14
789.99	245.00
790.32	244.76
790.64	244.71
790.96	246.81
791.28	245.81
791.61	245.57
791.93	246.00
792.25	245.86
792.57	247.33
792.89	246.95
793.21	247.52
793.54	247.05
793.86	246.76
794.18	246.95
794.50	246.52
794.82	246.57
795.14	247.14
795.47	247.14
795.79	247.00
796.11	246.38
796.43	246.29
796.75	246.24
797.07	246.38
797.39	246.48
797.71	244.57
798.04	244.76
798.36	245.00
798.68	244.86
799.00	244.81
799.32	243.76
799.64	243.86
799.96	243.81
800.28	244.10
800.60	244.19
800.92	244.48
801.24	244.48
801.56	244.52
801.89	244.24
802.21	244.62
802.53	244.29
802.85	245.00
803.17	245.95
803.49	245.71
803.81	245.62
804.13	245.67
804.45	245.57
804.77	245.81
805.09	245.95
805.41	245.76
805.73	245.81
806.05	245.29
806.37	245.38
806.69	245.19
807.01	245.38
807.33	245.19
807.65	244.24
807.97	245.19
808.28	245.00
808.60	245.05
808.92	244.24
809.24	245.76
809.56	245.00
809.88	244.29
810.20	244.24
810.52	244.76
810.84	244.33
811.16	244.24
811.48	244.19
811.80	244.86
812.12	245.29
812.43	245.52
812.75	245.67
813.07	245.57
813.39	245.33
813.71	244.95
814.03	244.71
814.35	244.95
814.67	243.86
814.98	243.33
815.30	243.19
815.62	242.90
815.94	241.24
816.26	242.38
816.58	242.00
816.89	242.38
817.21	241.90
817.53	242.19
817.85	242.52
818.17	242.19
818.48	240.81
818.80	240.86
819.12	240.52
819.44	240.10
819.76	239.33
820.07	239.48
820.39	239.33
820.71	239.95
821.03	240.00
821.34	239.95
821.66	240.81
821.98	241.29
822.30	241.43
822.61	243.05
822.93	242.00
823.25	241.86
823.57	241.71
823.88	242.33
824.20	241.86
824.52	242.05
824.83	241.95
825.15	242.10
825.47	241.90
825.79	242.00
826.10	241.81
826.42	242.14
826.74	242.05
827.05	242.24
827.37	242.38
827.69	242.10
828.00	242.24
828.32	242.48
828.64	241.95
828.95	243.24
829.27	242.57
829.58	242.14
829.90	242.52
830.22	242.57
830.53	242.05
830.85	242.29
831.17	241.48
831.48	241.52
831.80	241.43
832.11	241.14
832.43	240.86
832.75	241.19
833.06	242.86
833.38	242.48
833.69	242.24
834.01	242.24
834.32	242.14
834.64	242.14
834.96	241.76
835.27	241.76
835.59	241.05
835.90	240.33
836.22	240.86
836.53	240.43
836.85	240.43
837.16	242.62
837.48	242.29
837.79	243.29
838.11	243.48
838.42	243.71
838.74	244.29
839.05	243.95
839.37	243.38
839.68	241.67
840.00	241.57
840.31	241.95
840.63	241.43
840.94	241.43
841.26	240.95
841.57	240.67
841.88	241.10
842.20	240.81
842.51	240.76
842.83	240.43
843.14	242.81
843.46	242.38
843.77	241.00
844.08	241.05
844.40	240.29
844.71	239.95
845.03	239.62
845.34	239.33
845.65	239.57
845.97	239.81
846.28	239.90
846.60	240.52
846.91	240.05
847.22	240.19
847.54	240.90
847.85	241.24
848.16	241.14
848.48	240.29
848.79	241.00
849.10	241.48
849.42	241.62
849.73	239.19
850.04	239.38
850.36	238.29
850.67	238.76
850.98	238.67
851.30	239.05
851.61	239.14
851.92	239.05
852.23	239.62
852.55	239.95
852.86	240.10
853.17	239.86
853.49	240.67
853.80	240.76
854.11	240.76
854.42	241.24
854.74	240.95
855.05	241.24
855.36	240.19
855.67	239.90
855.99	239.95
856.30	243.05
856.61	242.86
856.92	243.24
857.23	243.10
857.55	242.81
857.86	242.52
858.17	242.76
858.48	242.67
858.79	242.43
859.11	242.43
859.42	241.81
859.73	241.67
860.04	241.24
860.35	240.76
860.66	240.00
860.98	239.38
861.29	239.48
861.60	239.29
861.91	239.76
862.22	239.29
862.53	239.00
862.84	235.90
863.16	236.71
863.47	236.14
863.78	236.14
864.09	236.48
864.40	237.00
864.71	237.05
865.02	237.52
865.33	237.14
865.64	236.71
865.95	237.38
866.27	238.95
866.58	238.81
866.89	239.19
867.20	239.24
867.51	239.19
867.82	239.33
868.13	240.19
868.44	239.95
868.75	240.57
869.06	240.62
869.37	240.90
869.68	239.95
869.99	240.43
870.30	240.29
870.61	240.52
870.92	239.81
871.23	239.62
871.54	239.62
871.85	240.19
872.16	240.38
872.47	239.86
872.78	238.33
873.09	238.76
873.40	238.71
873.71	238.86
874.02	239.00
874.33	238.90
874.64	238.33
874.95	238.76
875.26	238.33
875.56	238.29
875.87	238.14
876.18	238.19
876.49	240.57
876.80	240.52
877.11	240.10
877.42	240.43
877.73	240.57
878.04	240.10
878.35	240.00
878.66	240.29
878.96	240.24
879.27	240.29
879.58	240.10
879.89	240.00
880.20	240.62
880.51	240.76
880.82	240.81
881.12	241.00
881.43	240.33
881.74	240.38
882.05	240.19
882.36	240.76
882.67	240.95
882.97	238.43
883.28	238.38
883.59	238.14
883.90	238.33
884.21	238.67
884.51	238.90
884.82	238.57
885.13	238.43
885.44	238.52
885.74	238.81
886.05	238.52
886.36	238.24
886.67	237.33
886.98	238.24
887.28	238.24
887.59	238.33
887.90	238.48
888.20	238.14
888.51	238.81
888.82	238.14
889.13	238.38
889.43	240.52
889.74	240.48
890.05	240.62
890.35	240.48
890.66	240.24
890.97	240.00
891.28	239.86
891.58	240.10
891.89	240.19
892.20	239.52
892.50	239.24
892.81	239.05
893.12	239.05
893.42	238.05
893.73	238.52
894.04	238.43
894.34	238.62
894.65	238.67
894.95	238.14
895.26	238.52
895.57	239.67
895.87	237.24
896.18	237.48
896.48	238.14
896.79	238.19
897.10	238.33
897.40	238.52
897.71	238.76
898.01	238.48
898.32	238.57
898.63	238.67
898.93	239.00
899.24	239.24
899.54	239.33
899.85	239.14
900.15	238.67
900.46	238.67
900.76	238.76
901.07	238.62
901.38	238.86
901.68	239.10
901.99	237.90
902.29	238.24
902.60	238.00
902.90	237.57
903.21	237.38
903.51	237.33
903.82	237.67
904.12	237.81
904.43	238.14
904.73	238.19
905.03	238.24
905.34	240.29
905.64	240.19
905.95	240.29
906.25	240.24
906.56	240.29
906.86	240.19
907.17	239.95
907.47	240.33
907.77	239.95
908.08	239.24
908.38	239.52
908.69	239.48
908.99	239.95
909.30	240.24
909.60	240.24
909.90	240.29
910.21	239.48
910.51	239.19
910.81	239.10
911.12	239.14
911.42	239.29
911.73	236.95
912.03	237.43
912.33	237.81
912.64	237.81
912.94	237.81
913.24	237.71
913.55	237.67
913.85	237.10
914.15	237.71
914.46	238.19
914.76	237.62
915.06	237.71
915.37	237.57
915.67	237.29
915.97	237.19
916.27	236.81
916.58	237.14
916.88	237.14
917.18	236.71
917.49	238.43
917.79	238.14
918.09	238.95
918.39	239.24
918.70	239.10
919.00	239.00
919.30	240.10
919.60	239.81
919.91	239.67
920.21	240.38
920.51	239.62
920.81	239.43
921.12	239.71
921.42	239.76
921.72	240.10
922.02	240.19
922.32	240.67
922.63	240.76
922.93	242.29
923.23	242.38
923.53	242.29
923.83	240.76
924.13	241.29
924.44	240.81
924.74	241.24
925.04	241.81
925.34	241.95
925.64	240.86
925.94	240.95
926.24	242.43
926.55	242.00
926.85	242.81
927.15	242.71
927.45	243.14
927.75	243.14
928.05	242.90
928.35	242.76
928.65	243.10
928.95	243.29
929.26	241.95
929.56	242.52
929.86	242.90
930.16	242.62
930.46	242.14
930.76	242.05
931.06	240.86
931.36	239.90
931.66	240.33
931.96	240.86
932.26	241.24
932.56	240.00
932.86	240.33
933.16	240.14
933.46	239.95
933.76	239.29
934.06	239.67
934.36	240.71
934.66	240.71
934.96	240.24
935.26	240.19
935.56	240.19
935.86	239.57
936.16	239.43
936.46	239.43
936.76	239.48
937.06	239.43
937.36	239.52
937.66	240.14
937.96	239.90
938.26	239.10
938.56	238.48
938.86	238.67
939.16	238.86
939.46	238.95
939.76	238.95
940.06	239.19
940.35	238.38
940.65	237.10
940.95	237.24
941.25	236.95
941.55	236.90
941.85	237.05
942.15	237.24
942.45	237.67
942.75	237.38
943.04	237.67
943.34	238.05
943.64	237.90
943.94	237.29
944.24	237.33
944.54	237.57
944.84	237.90
945.13	237.48
945.43	237.19
945.73	237.05
946.03	237.29
946.33	236.67
946.62	236.57
946.92	236.29
947.22	236.29
947.52	235.95
947.82	236.00
948.11	235.86
948.41	235.33
948.71	234.67
949.01	235.14
949.31	234.86
949.60	234.62
949.90	234.95
950.20	234.90
950.50	234.67
950.79	234.57
951.09	234.57
951.39	234.38
951.69	234.33
951.98	234.67
952.28	234.48
952.58	234.76
952.87	235.10
953.17	235.33
953.47	234.81
953.76	235.24
954.06	235.00
954.36	234.38
954.66	234.33
954.95	234.95
955.25	234.86
955.55	235.19
955.84	234.90
956.14	235.52
956.44	235.67
956.73	235.62
957.03	235.86
957.32	235.86
957.62	235.95
957.92	236.24
958.21	236.19
958.51	239.19
958.81	239.67
959.10	239.81
959.40	240.43
959.69	241.05
959.99	241.24
960.29	241.14
960.58	241.24
960.88	242.29
961.17	242.05
961.47	242.43
961.76	242.10
962.06	242.71
962.36	241.86
962.65	241.81
962.95	241.76
963.24	241.48
963.54	241.81
963.83	242.19
964.13	242.05
964.42	241.48
964.72	239.38
965.01	239.24
965.31	239.05
965.60	238.57
965.90	240.24
966.19	239.76
966.49	240.33
966.78	240.33
967.08	240.38
967.37	240.48
967.67	239.86
967.96	240.29
968.26	240.05
968.55	240.71
968.85	240.76
969.14	240.86
969.43	241.00
969.73	240.76
970.02	240.57
970.32	240.57
970.61	240.57
970.91	240.00
971.20	239.81
971.49	239.81
971.79	239.95
972.08	238.24
972.38	238.76
972.67	238.43
972.96	238.86
973.26	238.43
973.55	239.29
973.85	239.43
974.14	239.24
974.43	239.57
974.73	239.19
975.02	239.10
975.31	238.81
975.61	238.57
975.90	238.57
976.19	238.38
976.49	238.67
976.78	238.95
977.07	238.81
977.37	238.95
977.66	239.29
977.95	239.24
978.24	239.19
978.54	239.38
978.83	239.00
979.12	239.05
979.42	238.90
979.71	238.10
980.00	237.86
980.29	237.95
980.59	237.43
980.88	237.76
981.17	238.05
981.46	238.43
981.76	238.48
982.05	239.00
982.34	239.19
982.63	239.29
982.93	239.19
983.22	239.90
983.51	240.00
983.80	239.90
984.09	240.05
984.39	240.00
984.68	239.57
984.97	239.71
985.26	239.52
985.55	239.81
985.85	239.38
986.14	240.10
986.43	240.38
986.72	240.14
987.01	239.67
987.30	239.43
987.59	239.24
987.89	239.33
988.18	238.62
988.47	238.24
988.76	237.57
989.05	237.38
989.34	236.76
989.63	237.14
989.92	236.86
990.22	236.29
990.51	236.38
990.80	236.00
991.09	236.19
991.38	236.57
991.67	236.29
991.96	236.19
992.25	235.86
992.54	234.90
992.83	235.24
993.12	234.81
993.41	235.14
993.70	235.90
993.99	236.19
994.28	236.67
994.58	237.29
994.87	237.29
995.16	237.33
995.45	237.24
995.74	236.43
996.03	237.00
996.32	237.81
996.61	238.14
996.90	238.43
997.19	238.24
997.48	238.05
997.77	237.67
998.06	237.86
998.34	238.00
998.63	238.62
998.92	238.57
999.21	239.43
999.50	239.19
999.79	238.71
1000.08	238.86
1000.37	238.90
1000.66	238.48
1000.95	239.19
1001.24	239.33
1001.53	239.95
1001.82	239.95
1002.11	239.33
1002.40	239.05
1002.68	239.57
1002.97	241.33
1003.26	241.00
1003.55	240.67
1003.84	240.48
1004.13	241.52
1004.42	241.05
1004.71	241.00
1004.99	240.38
1005.28	240.67
1005.57	240.67
1005.86	240.29
1006.15	239.86
1006.44	239.71
1006.72	239.95
1007.01	239.33
1007.30	239.33
1007.59	238.86
1007.88	238.76
1008.17	239.05
1008.45	238.67
1008.74	237.71
1009.03	236.95
1009.32	237.10
1009.60	237.24
1009.89	237.57
1010.18	236.67
1010.47	236.71
1010.76	236.48
1011.04	236.90
1011.33	236.33
1011.62	236.62
1011.91	236.90
1012.19	237.19
1012.48	236.57
1012.77	236.71
1013.05	238.10
1013.34	237.86
1013.63	237.67
1013.92	237.81
1014.20	237.38
1014.49	237.90
1014.78	237.95
1015.06	236.62
1015.35	237.00
1015.64	237.29
1015.92	237.57
1016.21	237.67
1016.50	237.81
1016.78	238.43
1017.07	238.71
1017.36	238.95
1017.64	238.71
1017.93	238.95
1018.22	238.76
1018.50	239.10
1018.79	239.00
1019.08	238.00
1019.36	238.19
1019.65	238.10
1019.93	238.57
1020.22	238.95
1020.51	239.90
1020.79	239.57
1021.08	235.00
1021.36	235.00
1021.65	238.00
1021.94	243.00
1022.22	237.00
1022.51	233.00
1022.79	244.00
1023.08	239.00
1023.36	265.00
1023.65	230.00
>>>>>End Processed Spectral Data<<<<<
