SpectraSuite Data File
++++++++++++++++++++++++++++++++++++
Date: Wed Nov 07 18:31:24 EST 2012
User: group
Dark Spectrum Present: No
Reference Spectrum Present: No
Number of Sampled Component Spectra: 1
Spectrometers: USB2E7196
Integration Time (usec): 1000000 (USB2E7196)
Spectra Averaged: 1 (USB2E7196)
Boxcar Smoothing: 10 (USB2E7196)
Correct for Electrical Dark: No (USB2E7196)
Strobe/Lamp Enabled: No (USB2E7196)
Correct for Detector Non-linearity: No (USB2E7196)
Correct for Stray Light: No (USB2E7196)
Number of Pixels in Processed Spectrum: 2048
>>>>>Begin Processed Spectral Data<<<<<
339.09	0.00
339.48	213.00
339.86	218.00
340.24	227.00
340.63	223.00
341.01	272.00
341.39	235.00
341.78	236.00
342.16	244.00
342.54	230.00
342.93	224.29
343.31	235.33
343.69	236.05
344.07	236.76
344.46	237.33
344.84	237.90
345.22	236.14
345.60	236.38
345.99	236.38
346.37	235.95
346.75	236.19
347.13	236.52
347.52	236.52
347.90	237.05
348.28	237.19
348.66	238.24
349.05	237.48
349.43	237.76
349.81	238.19
350.19	238.10
350.57	238.33
350.96	238.48
351.34	238.67
351.72	239.14
352.10	239.24
352.48	239.14
352.87	239.29
353.25	239.29
353.63	238.95
354.01	239.10
354.39	239.10
354.77	238.86
355.15	239.57
355.54	239.14
355.92	238.67
356.30	238.48
356.68	239.48
357.06	239.81
357.44	239.43
357.82	239.52
358.20	240.24
358.58	240.38
358.97	240.52
359.35	241.33
359.73	241.67
360.11	241.81
360.49	241.86
360.87	241.81
361.25	242.14
361.63	243.14
362.01	243.14
362.39	243.10
362.77	243.29
363.15	243.05
363.53	243.14
363.91	243.24
364.29	243.48
364.67	241.14
365.05	240.90
365.43	241.38
365.81	241.33
366.19	242.19
366.57	242.76
366.95	242.71
367.33	241.90
367.71	241.90
368.09	242.00
368.47	241.67
368.85	241.62
369.23	242.19
369.61	241.29
369.99	242.00
370.37	242.71
370.75	244.00
371.13	243.43
371.51	243.48
371.89	243.71
372.27	244.00
372.65	244.24
373.03	244.43
373.41	244.05
373.78	243.62
374.16	242.00
374.54	241.29
374.92	240.71
375.30	240.81
375.68	240.43
376.06	240.43
376.44	240.52
376.82	240.52
377.19	240.33
377.57	240.10
377.95	239.19
378.33	238.76
378.71	237.38
379.09	237.43
379.47	237.38
379.84	237.10
380.22	236.52
380.60	236.14
380.98	235.67
381.36	235.38
381.73	235.38
382.11	236.10
382.49	236.52
382.87	236.57
383.25	236.43
383.62	239.38
384.00	239.05
384.38	239.10
384.76	239.81
385.13	240.33
385.51	240.90
385.89	240.81
386.27	240.71
386.64	241.05
387.02	241.14
387.40	240.86
387.78	241.00
388.15	241.19
388.53	241.33
388.91	241.52
389.29	241.62
389.66	241.95
390.04	241.48
390.42	241.86
390.79	242.14
391.17	242.29
391.55	239.48
391.92	239.71
392.30	240.00
392.68	239.43
393.05	239.52
393.43	239.33
393.81	239.62
394.18	239.48
394.56	239.81
394.94	240.48
395.31	240.67
395.69	241.76
396.06	242.38
396.44	242.57
396.82	242.67
397.19	244.00
397.57	244.00
397.95	245.00
398.32	244.38
398.70	244.67
399.07	245.43
399.45	245.19
399.82	245.10
400.20	245.05
400.58	245.57
400.95	244.57
401.33	245.33
401.70	247.10
402.08	247.52
402.45	247.33
402.83	247.76
403.20	247.86
403.58	247.24
403.95	247.38
404.33	247.86
404.71	248.52
405.08	249.81
405.46	249.90
405.83	250.14
406.21	250.43
406.58	251.14
406.96	251.14
407.33	252.29
407.70	253.43
408.08	255.90
408.45	256.38
408.83	257.57
409.20	257.62
409.58	256.90
409.95	258.00
410.33	259.29
410.70	259.48
411.08	261.00
411.45	262.43
411.82	263.43
412.20	265.14
412.57	267.43
412.95	267.05
413.32	269.43
413.69	270.81
414.07	272.48
414.44	274.00
414.82	276.19
415.19	278.62
415.56	280.86
415.94	281.90
416.31	284.86
416.68	288.00
417.06	291.76
417.43	295.43
417.81	299.24
418.18	303.19
418.55	307.29
418.93	311.38
419.30	315.19
419.67	319.81
420.04	324.19
420.42	327.81
420.79	335.29
421.16	340.71
421.54	348.05
421.91	354.52
422.28	361.24
422.66	367.95
423.03	375.95
423.40	382.48
423.77	389.81
424.15	396.38
424.52	404.19
424.89	412.43
425.26	420.24
425.64	426.76
426.01	434.67
426.38	443.14
426.75	452.52
427.13	462.24
427.50	471.57
427.87	481.19
428.24	491.43
428.61	500.48
428.99	511.52
429.36	521.81
429.73	533.29
430.10	544.57
430.47	556.10
430.85	567.10
431.22	580.71
431.59	597.14
431.96	611.38
432.33	625.24
432.70	639.38
433.08	656.00
433.45	672.29
433.82	687.95
434.19	705.76
434.56	721.57
434.93	736.81
435.30	752.52
435.68	770.00
436.05	786.76
436.42	801.76
436.79	817.86
437.16	833.62
437.53	850.71
437.90	867.52
438.27	884.19
438.64	900.67
439.01	915.95
439.38	926.43
439.75	938.62
440.13	953.62
440.50	967.43
440.87	977.67
441.24	989.10
441.61	1002.43
441.98	1010.71
442.35	1021.86
442.72	1033.90
443.09	1045.95
443.46	1051.81
443.83	1055.43
444.20	1058.71
444.57	1062.10
444.94	1063.57
445.31	1064.86
445.68	1068.86
446.05	1068.62
446.42	1065.62
446.79	1062.81
447.16	1059.71
447.53	1057.48
447.90	1049.81
448.27	1042.33
448.64	1032.95
449.01	1025.67
449.37	1012.90
449.74	1000.76
450.11	989.43
450.48	972.95
450.85	955.57
451.22	942.62
451.59	930.76
451.96	919.38
452.33	903.81
452.70	889.81
453.07	872.67
453.43	852.86
453.80	836.33
454.17	820.29
454.54	804.57
454.91	788.33
455.28	772.62
455.65	757.76
456.02	747.24
456.38	735.24
456.75	719.95
457.12	706.86
457.49	695.05
457.86	680.52
458.23	671.48
458.59	660.86
458.96	649.05
459.33	638.48
459.70	628.33
460.07	620.67
460.43	611.48
460.80	604.10
461.17	595.86
461.54	588.00
461.91	581.00
462.27	573.76
462.64	567.57
463.01	560.95
463.38	555.81
463.74	544.67
464.11	538.29
464.48	533.67
464.85	527.90
465.21	523.81
465.58	519.29
465.95	513.00
466.32	508.67
466.68	503.57
467.05	499.48
467.42	494.67
467.78	489.24
468.15	485.05
468.52	481.29
468.88	477.76
469.25	473.76
469.62	470.67
469.98	467.29
470.35	464.19
470.72	460.81
471.08	456.10
471.45	454.43
471.82	452.10
472.18	448.81
472.55	446.67
472.92	443.14
473.28	440.57
473.65	438.19
474.02	435.67
474.38	434.43
474.75	432.52
475.11	430.52
475.48	429.24
475.85	427.95
476.21	426.29
476.58	425.00
476.94	424.29
477.31	422.71
477.67	421.62
478.04	420.67
478.41	420.29
478.77	422.14
479.14	420.48
479.50	419.71
479.87	419.71
480.23	420.05
480.60	420.52
480.96	420.62
481.33	421.95
481.69	422.62
482.06	423.76
482.42	424.81
482.79	426.24
483.15	427.38
483.52	428.81
483.88	429.81
484.25	431.24
484.61	432.62
484.98	434.48
485.34	436.76
485.71	438.52
486.07	439.90
486.44	439.62
486.80	441.52
487.17	443.67
487.53	445.67
487.90	447.62
488.26	450.10
488.62	453.00
488.99	454.14
489.35	455.81
489.72	457.19
490.08	458.76
490.44	460.43
490.81	462.52
491.17	464.14
491.54	467.00
491.90	468.62
492.26	470.48
492.63	472.81
492.99	474.00
493.36	476.81
493.72	479.76
494.08	482.52
494.45	485.57
494.81	488.33
495.17	490.71
495.54	493.95
495.90	496.14
496.26	498.95
496.63	502.67
496.99	505.81
497.35	509.57
497.72	513.29
498.08	516.81
498.44	520.57
498.80	524.52
499.17	528.52
499.53	532.52
499.89	537.29
500.26	541.95
500.62	547.24
500.98	552.14
501.34	556.57
501.71	561.52
502.07	566.48
502.43	571.14
502.79	575.62
503.16	579.48
503.52	584.10
503.88	588.29
504.24	593.52
504.60	598.95
504.97	604.81
505.33	609.76
505.69	615.81
506.05	621.10
506.41	626.05
506.78	630.95
507.14	636.14
507.50	642.10
507.86	646.67
508.22	651.00
508.59	655.81
508.95	661.86
509.31	667.86
509.67	673.14
510.03	678.14
510.39	683.71
510.75	689.14
511.12	694.81
511.48	700.29
511.84	704.52
512.20	709.33
512.56	713.62
512.92	718.76
513.28	723.00
513.64	727.86
514.00	732.81
514.37	737.10
514.73	742.33
515.09	746.29
515.45	750.67
515.81	755.43
516.17	759.95
516.53	763.24
516.89	765.95
517.25	769.52
517.61	774.14
517.97	778.10
518.33	781.71
518.69	784.90
519.05	788.52
519.41	792.43
519.77	797.38
520.13	800.19
520.49	803.29
520.85	806.67
521.21	810.29
521.57	813.14
521.93	815.71
522.29	819.24
522.65	820.67
523.01	823.24
523.37	824.86
523.73	826.48
524.09	828.71
524.45	831.43
524.81	832.95
525.17	834.67
525.53	837.14
525.89	839.38
526.25	842.43
526.61	843.71
526.97	844.62
527.33	845.19
527.68	848.86
528.04	850.33
528.40	850.71
528.76	851.43
529.12	852.52
529.48	854.19
529.84	853.95
530.20	856.10
530.56	858.19
530.91	860.71
531.27	862.24
531.63	862.67
531.99	862.62
532.35	864.05
532.71	865.14
533.07	865.57
533.42	869.48
533.78	869.57
534.14	871.24
534.50	873.57
534.86	876.29
535.21	876.43
535.57	878.14
535.93	879.67
536.29	883.57
536.65	885.38
537.00	888.38
537.36	891.86
537.72	894.95
538.08	899.24
538.44	902.10
538.79	907.10
539.15	911.05
539.51	916.43
539.87	920.71
540.22	924.48
540.58	929.38
540.94	932.38
541.29	937.00
541.65	941.67
542.01	945.81
542.37	948.14
542.72	950.00
543.08	951.48
543.44	953.10
543.79	951.76
544.15	953.48
544.51	953.67
544.87	952.14
545.22	949.86
545.58	946.67
545.94	943.52
546.29	939.38
546.65	937.81
547.01	933.29
547.36	929.19
547.72	924.81
548.07	919.67
548.43	913.10
548.79	908.14
549.14	901.57
549.50	896.00
549.86	890.33
550.21	886.95
550.57	882.71
550.92	879.76
551.28	876.38
551.64	872.29
551.99	867.95
552.35	865.05
552.70	862.76
553.06	859.62
553.41	856.86
553.77	855.86
554.13	852.52
554.48	850.24
554.84	848.00
555.19	846.29
555.55	846.95
555.90	845.00
556.26	842.62
556.61	840.67
556.97	837.24
557.32	835.52
557.68	832.52
558.03	831.29
558.39	828.86
558.74	826.14
559.10	824.00
559.45	821.81
559.81	819.90
560.16	817.33
560.52	814.76
560.87	814.14
561.23	811.14
561.58	811.29
561.94	809.43
562.29	808.10
562.64	806.38
563.00	801.67
563.35	800.81
563.71	799.90
564.06	798.71
564.42	798.00
564.77	796.00
565.12	795.14
565.48	795.19
565.83	793.76
566.19	793.24
566.54	792.05
566.89	790.90
567.25	790.52
567.60	790.71
567.96	792.62
568.31	792.38
568.66	792.29
569.02	788.62
569.37	787.29
569.72	785.19
570.08	783.43
570.43	782.48
570.78	779.86
571.14	777.67
571.49	776.43
571.84	775.38
572.20	774.00
572.55	772.19
572.90	768.81
573.26	767.33
573.61	765.10
573.96	763.95
574.31	763.43
574.67	761.67
575.02	759.52
575.37	756.10
575.72	753.90
576.08	751.29
576.43	750.33
576.78	750.14
577.13	749.10
577.49	748.90
577.84	748.52
578.19	747.86
578.54	747.71
578.90	747.10
579.25	746.10
579.60	745.86
579.95	745.57
580.30	745.00
580.66	744.57
581.01	744.57
581.36	743.52
581.71	742.14
582.06	742.71
582.42	741.76
582.77	740.10
583.12	739.33
583.47	738.43
583.82	737.19
584.17	735.10
584.53	735.52
584.88	733.10
585.23	731.67
585.58	729.71
585.93	727.19
586.28	725.43
586.63	723.48
586.98	721.24
587.34	717.90
587.69	715.33
588.04	712.52
588.39	709.33
588.74	706.24
589.09	703.43
589.44	698.24
589.79	695.52
590.14	692.43
590.49	687.71
590.84	683.67
591.19	680.29
591.54	677.00
591.89	672.05
592.25	671.33
592.60	666.76
592.95	664.10
593.30	661.05
593.65	656.90
594.00	653.29
594.35	656.52
594.70	653.19
595.05	650.33
595.40	647.00
595.75	644.19
596.10	641.95
596.45	639.00
596.80	636.76
597.15	633.86
597.50	630.90
597.85	630.19
598.19	627.24
598.54	624.57
598.89	621.52
599.24	619.71
599.59	615.10
599.94	612.38
600.29	609.24
600.64	607.19
600.99	606.05
601.34	603.76
601.69	594.29
602.04	592.43
602.39	590.05
602.74	588.38
603.08	586.57
603.43	584.90
603.78	582.76
604.13	580.52
604.48	579.43
604.83	579.19
605.18	578.05
605.53	579.00
605.87	580.62
606.22	585.33
606.57	589.86
606.92	594.81
607.27	601.48
607.62	608.76
607.96	614.48
608.31	618.52
608.66	623.10
609.01	627.29
609.36	631.57
609.70	635.86
610.05	639.10
610.40	641.71
610.75	643.24
611.10	645.14
611.44	647.00
611.79	647.43
612.14	647.10
612.49	645.33
612.83	643.52
613.18	639.90
613.53	633.29
613.88	625.81
614.22	617.90
614.57	608.86
614.92	599.33
615.27	590.57
615.61	582.86
615.96	576.05
616.31	568.90
616.65	562.10
617.00	554.67
617.35	548.52
617.70	542.95
618.04	537.52
618.39	532.43
618.74	528.57
619.08	523.76
619.43	519.52
619.78	516.71
620.12	512.67
620.47	509.48
620.82	506.67
621.16	504.10
621.51	502.57
621.85	500.05
622.20	498.05
622.55	495.52
622.89	492.62
623.24	490.05
623.59	488.24
623.93	486.05
624.28	484.10
624.62	484.43
624.97	483.81
625.32	481.95
625.66	479.90
626.01	477.43
626.35	475.76
626.70	473.95
627.04	472.19
627.39	470.95
627.73	470.05
628.08	468.62
628.43	466.62
628.77	463.86
629.12	461.57
629.46	459.33
629.81	457.48
630.15	455.62
630.50	453.14
630.84	451.43
631.19	449.10
631.53	446.86
631.88	441.86
632.22	438.00
632.57	436.38
632.91	434.19
633.26	431.52
633.60	429.24
633.95	426.43
634.29	422.95
634.64	420.24
634.98	416.86
635.32	415.19
635.67	412.81
636.01	410.62
636.36	409.29
636.70	408.14
637.05	405.90
637.39	404.10
637.73	402.95
638.08	401.52
638.42	399.81
638.77	398.19
639.11	396.24
639.45	394.43
639.80	392.10
640.14	390.67
640.49	389.10
640.83	387.43
641.17	386.76
641.52	385.81
641.86	384.81
642.20	384.86
642.55	382.67
642.89	381.57
643.23	380.76
643.58	379.90
643.92	377.86
644.26	376.71
644.61	376.29
644.95	374.95
645.29	373.10
645.64	372.86
645.98	371.86
646.32	372.19
646.66	371.52
647.01	370.76
647.35	370.24
647.69	369.81
648.04	369.10
648.38	368.38
648.72	367.48
649.06	366.38
649.41	364.48
649.75	363.43
650.09	362.76
650.43	361.33
650.78	360.19
651.12	359.48
651.46	358.62
651.80	357.19
652.14	356.14
652.49	355.67
652.83	354.00
653.17	353.14
653.51	350.95
653.85	349.52
654.20	348.14
654.54	346.48
654.88	344.67
655.22	343.43
655.56	341.67
655.90	340.76
656.25	339.86
656.59	338.86
656.93	337.81
657.27	337.38
657.61	336.38
657.95	335.48
658.29	334.43
658.64	334.38
658.98	333.67
659.32	332.76
659.66	331.86
660.00	331.43
660.34	330.48
660.68	330.10
661.02	329.86
661.36	329.10
661.70	328.38
662.05	327.90
662.39	328.14
662.73	328.71
663.07	329.14
663.41	328.86
663.75	328.38
664.09	328.14
664.43	327.05
664.77	326.48
665.11	325.52
665.45	324.86
665.79	324.00
666.13	322.86
666.47	322.14
666.81	321.81
667.15	320.52
667.49	320.29
667.83	320.38
668.17	319.19
668.51	318.33
668.85	317.81
669.19	318.43
669.53	316.95
669.87	315.43
670.21	313.76
670.55	312.67
670.89	313.00
671.23	312.05
671.57	311.52
671.91	311.48
672.25	311.10
672.58	311.10
672.92	310.14
673.26	310.10
673.60	309.67
673.94	309.10
674.28	309.19
674.62	308.76
674.96	308.14
675.30	308.00
675.64	308.05
675.97	307.76
676.31	306.52
676.65	305.81
676.99	306.38
677.33	305.67
677.67	305.48
678.01	303.71
678.34	303.76
678.68	303.24
679.02	302.24
679.36	301.48
679.70	300.43
680.04	299.86
680.37	299.38
680.71	298.62
681.05	298.14
681.39	297.57
681.73	296.76
682.06	295.62
682.40	295.05
682.74	295.19
683.08	295.81
683.42	295.10
683.75	295.52
684.09	294.48
684.43	294.57
684.77	293.62
685.10	293.57
685.44	292.90
685.78	292.57
686.12	292.43
686.45	292.05
686.79	291.43
687.13	291.57
687.46	290.90
687.80	290.95
688.14	290.29
688.48	289.95
688.81	289.67
689.15	290.29
689.49	290.00
689.82	289.29
690.16	287.67
690.50	287.24
690.83	286.29
691.17	285.52
691.51	284.86
691.84	285.33
692.18	284.71
692.52	284.29
692.85	284.14
693.19	284.71
693.52	284.52
693.86	284.05
694.20	283.52
694.53	283.10
694.87	282.33
695.21	281.86
695.54	281.67
695.88	280.81
696.21	279.62
696.55	279.14
696.88	278.76
697.22	278.19
697.56	278.38
697.89	277.95
698.23	278.00
698.56	277.43
698.90	276.90
699.23	276.52
699.57	276.29
699.90	275.71
700.24	274.76
700.58	275.00
700.91	275.57
701.25	277.52
701.58	278.62
701.92	279.52
702.25	280.05
702.59	279.76
702.92	280.48
703.26	280.95
703.59	281.71
703.93	284.05
704.26	285.10
704.60	285.33
704.93	285.57
705.26	285.57
705.60	286.62
705.93	286.48
706.27	287.38
706.60	288.52
706.94	289.90
707.27	289.86
707.61	289.76
707.94	289.90
708.27	288.00
708.61	286.86
708.94	286.62
709.28	286.00
709.61	285.67
709.94	285.38
710.28	284.71
710.61	283.76
710.95	280.43
711.28	281.00
711.61	280.05
711.95	280.52
712.28	279.52
712.61	278.38
712.95	279.00
713.28	279.14
713.61	277.57
713.95	275.81
714.28	275.00
714.61	274.33
714.95	272.81
715.28	271.76
715.61	271.48
715.95	270.67
716.28	270.10
716.61	269.81
716.95	269.48
717.28	268.90
717.61	268.62
717.94	268.86
718.28	266.71
718.61	266.33
718.94	265.29
719.27	264.81
719.61	264.76
719.94	263.57
720.27	262.05
720.60	261.57
720.94	261.52
721.27	261.29
721.60	261.00
721.93	261.05
722.27	261.86
722.60	261.95
722.93	261.62
723.26	261.62
723.59	261.14
723.93	260.86
724.26	261.10
724.59	260.62
724.92	260.29
725.25	260.67
725.59	260.24
725.92	260.38
726.25	260.57
726.58	260.43
726.91	260.29
727.24	260.38
727.57	260.24
727.91	259.52
728.24	259.57
728.57	259.10
728.90	259.14
729.23	258.05
729.56	259.10
729.89	259.29
730.22	259.05
730.55	259.00
730.89	258.38
731.22	258.19
731.55	258.19
731.88	258.10
732.21	257.48
732.54	257.57
732.87	257.05
733.20	256.95
733.53	256.76
733.86	256.81
734.19	256.76
734.52	257.14
734.85	258.81
735.18	258.48
735.51	259.67
735.84	259.81
736.17	260.48
736.50	258.95
736.83	261.24
737.16	261.24
737.49	261.43
737.82	261.38
738.15	261.48
738.48	261.48
738.81	261.57
739.14	261.43
739.47	261.14
739.80	261.24
740.13	261.62
740.46	261.52
740.79	261.19
741.12	261.19
741.45	260.71
741.78	259.48
742.11	260.19
742.44	259.24
742.77	259.71
743.10	259.19
743.43	258.86
743.75	256.19
744.08	259.05
744.41	258.52
744.74	258.48
745.07	257.43
745.40	257.62
745.73	258.33
746.06	258.48
746.39	258.57
746.71	258.24
747.04	257.67
747.37	257.24
747.70	257.38
748.03	257.19
748.36	257.29
748.68	256.95
749.01	256.00
749.34	256.14
749.67	255.71
750.00	255.90
750.33	257.67
750.65	258.14
750.98	255.10
751.31	255.10
751.64	254.81
751.97	256.57
752.29	256.19
752.62	254.90
752.95	254.71
753.28	254.76
753.60	254.29
753.93	254.76
754.26	254.81
754.59	253.90
754.91	253.62
755.24	253.43
755.57	253.33
755.90	253.29
756.22	252.57
756.55	252.29
756.88	251.67
757.20	249.95
757.53	248.95
757.86	248.76
758.19	248.71
758.51	248.81
758.84	247.52
759.17	247.38
759.49	247.57
759.82	248.71
760.15	248.67
760.47	248.86
760.80	248.24
761.13	248.67
761.45	248.90
761.78	249.00
762.11	249.00
762.43	248.81
762.76	248.81
763.08	249.05
763.41	249.33
763.74	249.33
764.06	248.86
764.39	248.76
764.71	248.48
765.04	248.10
765.37	248.05
765.69	247.95
766.02	247.86
766.34	247.57
766.67	246.33
767.00	246.43
767.32	247.76
767.65	249.10
767.97	248.67
768.30	248.71
768.62	248.67
768.95	248.38
769.27	248.00
769.60	248.33
769.92	247.95
770.25	247.29
770.57	247.14
770.90	247.43
771.22	247.38
771.55	247.43
771.87	247.81
772.20	247.71
772.52	249.62
772.85	252.48
773.17	252.76
773.50	252.81
773.82	252.48
774.15	251.38
774.47	249.67
774.80	249.95
775.12	249.76
775.45	249.52
775.77	249.67
776.09	249.90
776.42	249.57
776.74	250.24
777.07	249.95
777.39	249.86
777.72	249.57
778.04	250.00
778.36	250.05
778.69	249.95
779.01	249.86
779.33	247.67
779.66	245.19
779.98	244.52
780.31	244.57
780.63	245.57
780.95	246.24
781.28	246.10
781.60	245.24
781.92	245.29
782.25	245.10
782.57	245.05
782.89	244.86
783.22	244.71
783.54	244.05
783.86	244.43
784.19	244.33
784.51	245.05
784.83	244.33
785.16	243.76
785.48	243.86
785.80	243.86
786.12	243.95
786.45	243.38
786.77	243.71
787.09	243.29
787.42	242.05
787.74	241.43
788.06	241.90
788.38	241.90
788.71	241.76
789.03	241.86
789.35	242.29
789.67	242.05
789.99	242.29
790.32	242.14
790.64	242.43
790.96	244.43
791.28	243.67
791.61	243.86
791.93	244.52
792.25	244.57
792.57	246.38
792.89	246.19
793.21	246.43
793.54	246.57
793.86	246.67
794.18	247.19
794.50	246.95
794.82	246.76
795.14	247.43
795.47	248.00
795.79	248.29
796.11	247.48
796.43	247.67
796.75	247.76
797.07	248.14
797.39	248.10
797.71	246.24
798.04	246.14
798.36	246.24
798.68	246.14
799.00	246.00
799.32	244.52
799.64	245.19
799.96	245.05
800.28	245.38
800.60	245.10
800.92	245.43
801.24	245.29
801.56	245.24
801.89	245.00
802.21	244.95
802.53	244.38
802.85	245.00
803.17	245.95
803.49	245.43
803.81	245.05
804.13	244.67
804.45	244.33
804.77	244.76
805.09	244.76
805.41	244.43
805.73	244.14
806.05	243.90
806.37	243.29
806.69	243.62
807.01	243.24
807.33	243.52
807.65	242.57
807.97	243.81
808.28	243.95
808.60	243.76
808.92	243.71
809.24	245.24
809.56	244.90
809.88	244.24
810.20	244.48
810.52	245.24
810.84	244.76
811.16	244.48
811.48	244.43
811.80	245.33
812.12	245.52
812.43	246.05
812.75	246.29
813.07	246.33
813.39	246.24
813.71	246.05
814.03	245.81
814.35	246.05
814.67	245.05
814.98	244.81
815.30	244.76
815.62	243.76
815.94	242.00
816.26	243.10
816.58	242.43
816.89	242.57
817.21	241.90
817.53	242.38
817.85	242.67
818.17	242.38
818.48	241.14
818.80	241.57
819.12	241.14
819.44	240.71
819.76	240.67
820.07	240.43
820.39	240.43
820.71	240.86
821.03	240.67
821.34	240.62
821.66	241.19
821.98	241.43
822.30	241.57
822.61	243.24
822.93	242.00
823.25	242.29
823.57	242.19
823.88	242.90
824.20	242.48
824.52	243.19
824.83	243.38
825.15	243.24
825.47	243.05
825.79	242.90
826.10	242.81
826.42	242.38
826.74	242.62
827.05	242.33
827.37	242.29
827.69	242.29
828.00	242.05
828.32	241.62
828.64	241.43
828.95	242.86
829.27	242.14
829.58	242.62
829.90	243.05
830.22	242.86
830.53	241.90
830.85	241.76
831.17	240.95
831.48	241.00
831.80	241.43
832.11	241.29
832.43	241.33
832.75	241.29
833.06	243.29
833.38	242.90
833.69	243.05
834.01	242.95
834.32	242.95
834.64	242.86
834.96	243.00
835.27	242.86
835.59	242.05
835.90	241.14
836.22	240.52
836.53	239.95
836.85	239.90
837.16	242.62
837.48	242.90
837.79	243.57
838.11	243.62
838.42	243.57
838.74	244.00
839.05	243.71
839.37	243.76
839.68	241.81
840.00	241.71
840.31	241.86
840.63	241.86
840.94	241.62
841.26	241.48
841.57	241.29
841.88	241.71
842.20	241.43
842.51	241.67
842.83	241.86
843.14	243.81
843.46	243.76
843.77	242.19
844.08	242.00
844.40	241.33
844.71	240.95
845.03	240.52
845.34	239.90
845.65	240.00
845.97	239.95
846.28	240.48
846.60	240.38
846.91	240.19
847.22	240.24
847.54	240.76
847.85	241.00
848.16	241.10
848.48	240.38
848.79	241.38
849.10	241.43
849.42	241.52
849.73	239.43
850.04	239.19
850.36	238.43
850.67	239.00
850.98	238.86
851.30	239.33
851.61	239.29
851.92	239.38
852.23	240.10
852.55	240.52
852.86	240.19
853.17	240.33
853.49	240.62
853.80	240.95
854.11	241.19
854.42	241.38
854.74	241.05
855.05	241.38
855.36	240.00
855.67	240.24
855.99	240.43
856.30	243.38
856.61	243.71
856.92	243.38
857.23	243.29
857.55	243.33
857.86	243.10
858.17	243.71
858.48	243.38
858.79	242.67
859.11	242.71
859.42	242.57
859.73	242.43
860.04	242.38
860.35	241.81
860.66	240.90
860.98	240.95
861.29	241.43
861.60	241.19
861.91	241.76
862.22	241.57
862.53	241.10
862.84	238.05
863.16	238.29
863.47	238.33
863.78	238.43
864.09	238.71
864.40	238.62
864.71	238.43
865.02	239.00
865.33	238.81
865.64	238.57
865.95	238.62
866.27	240.38
866.58	240.05
866.89	240.14
867.20	240.38
867.51	239.90
867.82	239.43
868.13	239.86
868.44	239.43
868.75	239.95
869.06	239.86
869.37	240.62
869.68	239.81
869.99	240.52
870.30	240.38
870.61	240.48
870.92	240.38
871.23	240.29
871.54	240.52
871.85	241.19
872.16	241.10
872.47	241.14
872.78	239.52
873.09	239.81
873.40	239.43
873.71	239.52
874.02	239.48
874.33	239.48
874.64	239.33
874.95	239.90
875.26	239.24
875.56	239.52
875.87	239.00
876.18	239.29
876.49	241.48
876.80	241.38
877.11	241.14
877.42	241.14
877.73	241.29
878.04	240.86
878.35	240.90
878.66	241.19
878.96	241.10
879.27	241.05
879.58	240.81
879.89	240.81
880.20	241.67
880.51	241.90
880.82	241.67
881.12	241.76
881.43	241.24
881.74	241.00
882.05	240.86
882.36	241.00
882.67	241.05
882.97	238.10
883.28	237.71
883.59	237.57
883.90	237.86
884.21	237.95
884.51	237.90
884.82	237.57
885.13	237.52
885.44	237.67
885.74	237.81
886.05	237.76
886.36	238.05
886.67	236.71
886.98	237.90
887.28	238.33
887.59	238.52
887.90	238.52
888.20	238.90
888.51	239.57
888.82	239.00
889.13	239.10
889.43	241.33
889.74	241.24
890.05	241.29
890.35	241.24
890.66	241.05
890.97	240.76
891.28	240.24
891.58	240.05
891.89	239.90
892.20	239.43
892.50	239.43
892.81	239.43
893.12	239.76
893.42	238.29
893.73	238.43
894.04	237.90
894.34	238.24
894.65	237.90
894.95	237.43
895.26	237.86
895.57	238.90
895.87	236.71
896.18	237.43
896.48	237.57
896.79	237.24
897.10	237.38
897.40	237.62
897.71	238.14
898.01	238.05
898.32	238.10
898.63	238.19
898.93	238.33
899.24	238.19
899.54	237.86
899.85	237.76
900.15	237.71
900.46	237.90
900.76	237.86
901.07	237.76
901.38	237.52
901.68	238.05
901.99	236.95
902.29	237.14
902.60	236.71
902.90	236.38
903.21	236.52
903.51	236.48
903.82	236.90
904.12	236.90
904.43	237.00
904.73	237.10
905.03	237.38
905.34	239.62
905.64	239.29
905.95	239.33
906.25	239.71
906.56	239.29
906.86	239.38
907.17	239.24
907.47	239.33
907.77	239.10
908.08	238.38
908.38	238.67
908.69	238.90
908.99	239.52
909.30	239.86
909.60	239.71
909.90	239.71
910.21	239.05
910.51	238.95
910.81	239.05
911.12	239.19
911.42	239.05
911.73	236.76
912.03	237.19
912.33	238.00
912.64	237.67
912.94	237.81
913.24	237.52
913.55	237.48
913.85	237.48
914.15	238.33
914.46	238.67
914.76	238.24
915.06	237.67
915.37	236.86
915.67	236.57
915.97	236.81
916.27	236.24
916.58	236.14
916.88	236.10
917.18	235.95
917.49	237.43
917.79	237.57
918.09	237.81
918.39	238.52
918.70	238.24
919.00	238.48
919.30	239.71
919.60	239.48
919.91	239.00
920.21	239.05
920.51	238.38
920.81	238.24
921.12	238.67
921.42	239.05
921.72	239.29
922.02	239.48
922.32	239.67
922.63	239.81
922.93	241.29
923.23	241.19
923.53	241.05
923.83	239.57
924.13	239.71
924.44	239.76
924.74	240.05
925.04	240.57
925.34	240.62
925.64	239.48
925.94	239.76
926.24	241.62
926.55	241.29
926.85	241.57
927.15	241.48
927.45	241.67
927.75	241.48
928.05	241.48
928.35	241.14
928.65	241.57
928.95	242.19
929.26	241.10
929.56	241.57
929.86	241.52
930.16	241.29
930.46	241.14
930.76	241.14
931.06	240.00
931.36	239.24
931.66	239.57
931.96	239.90
932.26	240.00
932.56	238.76
932.86	239.14
933.16	239.29
933.46	239.52
933.76	239.33
934.06	240.24
934.36	241.14
934.66	241.29
934.96	240.95
935.26	240.95
935.56	241.57
935.86	241.05
936.16	241.00
936.46	240.86
936.76	240.62
937.06	240.43
937.36	240.67
937.66	240.81
937.96	240.52
938.26	239.90
938.56	239.62
938.86	239.76
939.16	240.29
939.46	240.43
939.76	240.29
940.06	240.10
940.35	239.24
940.65	237.57
940.95	238.05
941.25	237.43
941.55	236.95
941.85	236.57
942.15	237.24
942.45	237.90
942.75	238.00
943.04	238.29
943.34	238.62
943.64	238.48
943.94	238.33
944.24	238.38
944.54	238.43
944.84	238.38
945.13	238.00
945.43	237.57
945.73	237.29
946.03	236.95
946.33	236.43
946.62	236.24
946.92	236.90
947.22	236.57
947.52	237.00
947.82	237.29
948.11	237.10
948.41	236.24
948.71	235.48
949.01	235.57
949.31	235.29
949.60	235.19
949.90	235.43
950.20	235.19
950.50	235.48
950.79	235.24
951.09	235.86
951.39	236.14
951.69	235.86
951.98	236.14
952.28	236.67
952.58	237.10
952.87	237.24
953.17	237.57
953.47	237.33
953.76	236.81
954.06	236.19
954.36	235.67
954.66	235.90
954.95	236.67
955.25	236.67
955.55	236.90
955.84	236.43
956.14	236.57
956.44	236.86
956.73	236.00
957.03	236.62
957.32	236.43
957.62	236.19
957.92	236.90
958.21	236.90
958.51	239.24
958.81	239.48
959.10	239.81
959.40	240.19
959.69	240.43
959.99	241.24
960.29	241.62
960.58	241.71
960.88	242.52
961.17	242.52
961.47	242.95
961.76	243.05
962.06	243.48
962.36	243.14
962.65	243.29
962.95	243.71
963.24	243.43
963.54	243.57
963.83	243.81
964.13	243.57
964.42	243.00
964.72	241.52
965.01	241.76
965.31	241.24
965.60	241.00
965.90	242.52
966.19	241.52
966.49	241.71
966.78	241.52
967.08	241.48
967.37	241.24
967.67	240.52
967.96	240.52
968.26	240.14
968.55	240.67
968.85	240.52
969.14	240.62
969.43	240.48
969.73	240.05
970.02	239.86
970.32	239.62
970.61	239.67
970.91	238.57
971.20	237.90
971.49	237.95
971.79	237.90
972.08	236.29
972.38	237.05
972.67	237.19
972.96	237.52
973.26	237.14
973.55	237.76
973.85	237.81
974.14	237.38
974.43	237.71
974.73	237.29
975.02	236.95
975.31	236.81
975.61	237.24
975.90	237.19
976.19	237.05
976.49	237.57
976.78	237.81
977.07	237.95
977.37	238.33
977.66	238.62
977.95	238.29
978.24	238.19
978.54	238.38
978.83	238.00
979.12	237.95
979.42	237.81
979.71	237.67
980.00	237.62
980.29	237.81
980.59	237.29
980.88	237.67
981.17	237.67
981.46	237.76
981.76	237.52
982.05	238.33
982.34	238.05
982.63	238.00
982.93	237.95
983.22	238.76
983.51	238.67
983.80	239.14
984.09	239.10
984.39	239.29
984.68	238.95
984.97	238.95
985.26	238.76
985.55	238.81
985.85	238.10
986.14	238.86
986.43	239.43
986.72	239.57
987.01	239.10
987.30	239.38
987.59	239.48
987.89	239.48
988.18	238.62
988.47	238.86
988.76	238.19
989.05	238.00
989.34	237.52
989.63	238.38
989.92	238.14
990.22	238.38
990.51	238.19
990.80	238.24
991.09	238.67
991.38	239.19
991.67	239.38
991.96	239.43
992.25	239.38
992.54	238.71
992.83	238.71
993.12	238.43
993.41	238.71
993.70	239.52
993.99	239.95
994.28	240.43
994.58	240.52
994.87	240.76
995.16	240.71
995.45	240.62
995.74	239.48
996.03	239.48
996.32	239.62
996.61	240.33
996.90	240.24
997.19	240.00
997.48	239.76
997.77	239.29
998.06	239.05
998.34	238.81
998.63	238.76
998.92	239.05
999.21	239.48
999.50	239.62
999.79	238.52
1000.08	238.05
1000.37	238.24
1000.66	238.29
1000.95	238.86
1001.24	238.86
1001.53	239.00
1001.82	238.95
1002.11	238.33
1002.40	238.76
1002.68	239.43
1002.97	241.24
1003.26	241.00
1003.55	240.76
1003.84	240.90
1004.13	241.90
1004.42	241.48
1004.71	241.48
1004.99	241.14
1005.28	241.57
1005.57	240.81
1005.86	240.86
1006.15	240.95
1006.44	240.24
1006.72	240.33
1007.01	239.57
1007.30	239.67
1007.59	239.29
1007.88	239.24
1008.17	239.14
1008.45	238.24
1008.74	236.86
1009.03	235.48
1009.32	235.29
1009.60	235.52
1009.89	235.29
1010.18	234.38
1010.47	234.48
1010.76	234.52
1011.04	234.33
1011.33	233.95
1011.62	234.33
1011.91	234.43
1012.19	234.71
1012.48	234.86
1012.77	234.95
1013.05	236.29
1013.34	236.38
1013.63	236.29
1013.92	236.67
1014.20	237.05
1014.49	237.48
1014.78	237.81
1015.06	236.90
1015.35	236.81
1015.64	237.10
1015.92	237.81
1016.21	238.00
1016.50	237.86
1016.78	238.62
1017.07	239.19
1017.36	239.33
1017.64	239.43
1017.93	239.57
1018.22	239.00
1018.50	239.00
1018.79	238.71
1019.08	237.38
1019.36	237.33
1019.65	237.33
1019.93	237.81
1020.22	238.00
1020.51	239.33
1020.79	239.10
1021.08	230.00
1021.36	233.00
1021.65	234.00
1021.94	233.00
1022.22	237.00
1022.51	236.00
1022.79	248.00
1023.08	241.00
1023.36	271.00
1023.65	233.00
>>>>>End Processed Spectral Data<<<<<
