SpectraSuite Data File
++++++++++++++++++++++++++++++++++++
Date: Wed Nov 07 18:31:21 EST 2012
User: group
Dark Spectrum Present: No
Reference Spectrum Present: No
Number of Sampled Component Spectra: 1
Spectrometers: USB2E7196
Integration Time (usec): 1000000 (USB2E7196)
Spectra Averaged: 1 (USB2E7196)
Boxcar Smoothing: 10 (USB2E7196)
Correct for Electrical Dark: No (USB2E7196)
Strobe/Lamp Enabled: No (USB2E7196)
Correct for Detector Non-linearity: No (USB2E7196)
Correct for Stray Light: No (USB2E7196)
Number of Pixels in Processed Spectrum: 2048
>>>>>Begin Processed Spectral Data<<<<<
339.09	0.00
339.48	220.00
339.86	223.00
340.24	219.00
340.63	223.00
341.01	265.00
341.39	228.00
341.78	233.00
342.16	239.00
342.54	233.00
342.93	223.29
343.31	234.00
343.69	234.62
344.07	235.24
344.46	236.00
344.84	236.57
345.22	235.24
345.60	235.71
345.99	235.95
346.37	235.57
346.75	235.57
347.13	235.62
347.52	235.62
347.90	236.57
348.28	236.67
348.66	237.05
349.05	236.24
349.43	237.00
349.81	237.29
350.19	237.43
350.57	237.67
350.96	238.10
351.34	238.90
351.72	239.00
352.10	238.67
352.48	238.71
352.87	238.76
353.25	238.95
353.63	238.43
354.01	238.29
354.39	238.67
354.77	238.67
355.15	238.95
355.54	238.90
355.92	238.05
356.30	238.19
356.68	239.67
357.06	240.00
357.44	239.24
357.82	239.10
358.20	239.76
358.58	239.90
358.97	239.62
359.35	240.19
359.73	240.62
360.11	240.86
360.49	241.05
360.87	241.00
361.25	240.81
361.63	242.24
362.01	242.76
362.39	242.43
362.77	243.00
363.15	243.14
363.53	243.29
363.91	243.57
364.29	243.67
364.67	241.52
365.05	241.76
365.43	242.10
365.81	242.43
366.19	243.14
366.57	243.95
366.95	244.19
367.33	243.43
367.71	243.43
368.09	244.10
368.47	244.14
368.85	243.90
369.23	244.67
369.61	243.71
369.99	244.48
370.37	245.19
370.75	246.19
371.13	245.76
371.51	245.52
371.89	245.57
372.27	245.81
372.65	245.86
373.03	245.62
373.41	245.57
373.78	245.33
374.16	244.05
374.54	243.24
374.92	243.05
375.30	243.10
375.68	242.71
376.06	242.33
376.44	242.05
376.82	242.48
377.19	242.33
377.57	242.52
377.95	241.76
378.33	241.43
378.71	239.90
379.09	240.14
379.47	240.48
379.84	240.10
380.22	239.57
380.60	239.00
380.98	238.86
381.36	238.71
381.73	238.29
382.11	238.38
382.49	238.24
382.87	238.10
383.25	238.05
383.62	240.86
384.00	240.57
384.38	240.52
384.76	240.81
385.13	241.57
385.51	241.10
385.89	240.43
386.27	240.62
386.64	240.86
387.02	240.71
387.40	240.57
387.78	241.14
388.15	241.29
388.53	241.33
388.91	241.38
389.29	241.38
389.66	242.00
390.04	241.67
390.42	242.33
390.79	242.24
391.17	242.33
391.55	239.71
391.92	239.71
392.30	239.86
392.68	239.33
393.05	238.95
393.43	239.00
393.81	239.10
394.18	238.62
394.56	238.52
394.94	239.05
395.31	238.90
395.69	239.38
396.06	239.67
396.44	239.95
396.82	239.95
397.19	241.33
397.57	241.10
397.95	241.90
398.32	241.29
398.70	241.67
399.07	242.29
399.45	242.00
399.82	242.38
400.20	242.29
400.58	242.52
400.95	242.00
401.33	242.71
401.70	244.62
402.08	244.62
402.45	244.57
402.83	245.00
403.20	245.38
403.58	245.19
403.95	245.76
404.33	246.14
404.71	246.24
405.08	247.48
405.46	247.62
405.83	248.00
406.21	248.33
406.58	248.71
406.96	248.71
407.33	249.67
407.70	250.81
408.08	253.76
408.45	254.52
408.83	255.29
409.20	256.05
409.58	255.24
409.95	256.33
410.33	257.57
410.70	258.00
411.08	259.38
411.45	260.62
411.82	261.33
412.20	263.00
412.57	265.48
412.95	264.52
413.32	266.57
413.69	267.62
414.07	269.19
414.44	271.00
414.82	273.14
415.19	275.57
415.56	277.14
415.94	277.76
416.31	281.05
416.68	283.86
417.06	287.05
417.43	290.67
417.81	294.67
418.18	298.67
418.55	302.19
418.93	306.10
419.30	309.95
419.67	314.62
420.04	319.19
420.42	323.71
420.79	331.57
421.16	337.14
421.54	344.76
421.91	351.14
422.28	357.52
422.66	364.57
423.03	372.57
423.40	379.90
423.77	387.38
424.15	393.86
424.52	402.05
424.89	410.57
425.26	418.05
425.64	425.52
426.01	433.71
426.38	442.71
426.75	451.62
427.13	461.10
427.50	470.76
427.87	480.95
428.24	490.67
428.61	498.14
428.99	508.86
429.36	518.48
429.73	529.95
430.10	542.05
430.47	552.86
430.85	563.67
431.22	576.86
431.59	592.81
431.96	606.33
432.33	620.52
432.70	634.48
433.08	650.81
433.45	666.33
433.82	681.52
434.19	698.76
434.56	715.24
434.93	730.95
435.30	746.24
435.68	762.71
436.05	779.95
436.42	796.38
436.79	813.00
437.16	830.19
437.53	847.43
437.90	863.43
438.27	880.81
438.64	897.57
439.01	911.76
439.38	923.33
439.75	936.43
440.13	950.95
440.50	965.57
440.87	977.10
441.24	988.33
441.61	1001.62
441.98	1010.24
442.35	1021.29
442.72	1032.29
443.09	1043.81
443.46	1050.38
443.83	1054.05
444.20	1058.00
444.57	1061.10
444.94	1062.10
445.31	1063.67
445.68	1068.57
446.05	1068.57
446.42	1065.81
446.79	1064.24
447.16	1060.43
447.53	1058.43
447.90	1050.95
448.27	1042.33
448.64	1032.71
449.01	1025.48
449.37	1012.71
449.74	1001.29
450.11	989.33
450.48	974.14
450.85	958.14
451.22	944.52
451.59	932.19
451.96	920.38
452.33	905.43
452.70	891.19
453.07	873.71
453.43	854.05
453.80	837.48
454.17	821.43
454.54	805.71
454.91	790.29
455.28	773.62
455.65	759.14
456.02	748.86
456.38	736.52
456.75	721.86
457.12	709.29
457.49	697.05
457.86	682.76
458.23	673.48
458.59	662.14
458.96	650.67
459.33	639.90
459.70	629.52
460.07	621.00
460.43	612.24
460.80	604.62
461.17	596.43
461.54	589.38
461.91	582.10
462.27	574.76
462.64	567.62
463.01	561.19
463.38	556.00
463.74	545.48
464.11	538.90
464.48	533.38
464.85	527.81
465.21	523.48
465.58	519.19
465.95	512.86
466.32	508.19
466.68	503.43
467.05	499.43
467.42	494.86
467.78	489.90
468.15	485.19
468.52	481.57
468.88	477.52
469.25	472.81
469.62	470.14
469.98	466.81
470.35	463.95
470.72	461.14
471.08	455.71
471.45	453.29
471.82	451.29
472.18	448.24
472.55	445.95
472.92	442.52
473.28	439.86
473.65	436.76
474.02	434.52
474.38	433.14
474.75	430.86
475.11	428.71
475.48	427.62
475.85	426.24
476.21	424.67
476.58	423.76
476.94	422.57
477.31	420.95
477.67	420.10
478.04	419.00
478.41	418.33
478.77	420.95
479.14	419.57
479.50	419.19
479.87	419.71
480.23	419.76
480.60	419.95
480.96	419.81
481.33	421.43
481.69	421.76
482.06	422.67
482.42	423.95
482.79	425.00
483.15	425.33
483.52	426.90
483.88	427.71
484.25	428.38
484.61	429.62
484.98	430.86
485.34	432.71
485.71	434.33
486.07	435.67
486.44	435.05
486.80	436.86
487.17	437.86
487.53	439.38
487.90	441.43
488.26	444.05
488.62	446.48
488.99	447.19
489.35	449.00
489.72	450.10
490.08	451.38
490.44	453.00
490.81	455.52
491.17	456.90
491.54	459.29
491.90	461.76
492.26	464.10
492.63	466.52
492.99	467.90
493.36	470.81
493.72	473.71
494.08	476.43
494.45	480.14
494.81	483.76
495.17	486.10
495.54	489.14
495.90	491.52
496.26	494.81
496.63	498.67
496.99	502.38
497.35	506.14
497.72	510.43
498.08	514.33
498.44	518.43
498.80	522.67
499.17	526.71
499.53	530.71
499.89	534.62
500.26	538.14
500.62	542.76
500.98	547.19
501.34	552.05
501.71	557.00
502.07	561.38
502.43	566.05
502.79	570.81
503.16	575.48
503.52	580.43
503.88	585.24
504.24	590.62
504.60	596.05
504.97	601.57
505.33	606.62
505.69	612.29
506.05	617.14
506.41	622.71
506.78	627.71
507.14	632.76
507.50	638.76
507.86	644.95
508.22	650.67
508.59	655.86
508.95	660.86
509.31	666.57
509.67	671.33
510.03	676.48
510.39	681.81
510.75	686.86
511.12	692.67
511.48	697.95
511.84	702.14
512.20	706.62
512.56	711.38
512.92	715.90
513.28	720.81
513.64	725.43
514.00	729.71
514.37	734.86
514.73	739.71
515.09	743.67
515.45	748.10
515.81	752.33
516.17	756.29
516.53	760.48
516.89	763.48
517.25	767.71
517.61	772.24
517.97	776.76
518.33	781.05
518.69	784.67
519.05	788.57
519.41	793.29
519.77	798.14
520.13	801.29
520.49	804.71
520.85	807.38
521.21	812.76
521.57	816.29
521.93	818.76
522.29	821.71
522.65	824.00
523.01	826.43
523.37	827.90
523.73	831.24
524.09	833.33
524.45	835.43
524.81	837.52
525.17	839.00
525.53	840.71
525.89	842.24
526.25	843.62
526.61	844.33
526.97	844.95
527.33	846.00
527.68	850.29
528.04	851.95
528.40	853.38
528.76	853.38
529.12	853.29
529.48	855.38
529.84	856.62
530.20	858.57
530.56	860.00
530.91	861.52
531.27	861.90
531.63	862.43
531.99	863.43
532.35	863.67
532.71	864.86
533.07	865.90
533.42	869.52
533.78	870.38
534.14	871.19
534.50	872.10
534.86	873.86
535.21	873.29
535.57	875.19
535.93	876.05
536.29	878.33
536.65	881.43
537.00	881.76
537.36	884.14
537.72	887.00
538.08	889.38
538.44	892.48
538.79	895.52
539.15	898.29
539.51	903.24
539.87	907.43
540.22	910.95
540.58	914.38
540.94	915.33
541.29	919.48
541.65	923.00
542.01	927.14
542.37	928.90
542.72	930.33
543.08	930.24
543.44	931.71
543.79	930.00
544.15	930.00
544.51	931.05
544.87	929.90
545.22	927.19
545.58	925.71
545.94	923.19
546.29	920.86
546.65	919.10
547.01	913.38
547.36	909.33
547.72	905.19
548.07	901.29
548.43	896.43
548.79	891.38
549.14	886.95
549.50	882.24
549.86	877.43
550.21	873.76
550.57	870.38
550.92	867.10
551.28	865.48
551.64	862.14
551.99	858.29
552.35	854.67
552.70	852.05
553.06	849.57
553.41	847.76
553.77	846.05
554.13	843.57
554.48	842.81
554.84	841.00
555.19	838.86
555.55	838.05
555.90	837.00
556.26	834.90
556.61	832.14
556.97	828.86
557.32	826.71
557.68	823.33
558.03	822.10
558.39	819.48
558.74	816.86
559.10	814.52
559.45	812.95
559.81	812.10
560.16	810.10
560.52	807.52
560.87	806.05
561.23	803.38
561.58	803.67
561.94	800.81
562.29	799.10
562.64	797.57
563.00	794.43
563.35	792.00
563.71	790.10
564.06	789.10
564.42	788.29
564.77	786.90
565.12	786.81
565.48	787.48
565.83	786.86
566.19	785.43
566.54	784.14
566.89	782.71
567.25	781.62
567.60	782.29
567.96	783.57
568.31	782.76
568.66	782.48
569.02	778.24
569.37	776.86
569.72	775.43
570.08	773.71
570.43	772.38
570.78	771.38
571.14	769.76
571.49	768.52
571.84	767.86
572.20	766.10
572.55	764.10
572.90	760.29
573.26	758.38
573.61	756.76
573.96	756.24
574.31	755.19
574.67	753.48
575.02	751.33
575.37	747.67
575.72	745.48
576.08	742.90
576.43	742.24
576.78	741.38
577.13	740.10
577.49	738.52
577.84	737.00
578.19	735.71
578.54	735.10
578.90	733.90
579.25	731.86
579.60	731.38
579.95	730.19
580.30	728.62
580.66	727.76
581.01	726.67
581.36	723.90
581.71	722.43
582.06	721.81
582.42	720.24
582.77	718.86
583.12	717.19
583.47	716.10
583.82	714.90
584.17	713.29
584.53	712.71
584.88	711.52
585.23	710.57
585.58	708.19
585.93	706.00
586.28	704.05
586.63	702.24
586.98	700.29
587.34	699.05
587.69	696.52
588.04	694.43
588.39	692.14
588.74	690.10
589.09	688.57
589.44	684.48
589.79	681.86
590.14	679.00
590.49	675.71
590.84	672.62
591.19	669.86
591.54	667.14
591.89	662.43
592.25	661.24
592.60	657.67
592.95	654.95
593.30	651.76
593.65	649.33
594.00	645.71
594.35	649.67
594.70	646.00
595.05	643.62
595.40	640.05
595.75	636.29
596.10	633.67
596.45	630.29
596.80	627.29
597.15	624.00
597.50	621.33
597.85	619.52
598.19	616.95
598.54	613.71
598.89	610.29
599.24	608.76
599.59	604.62
599.94	601.81
600.29	599.05
600.64	597.14
600.99	595.10
601.34	593.76
601.69	584.38
602.04	581.62
602.39	579.05
602.74	578.00
603.08	576.90
603.43	576.14
603.78	573.95
604.13	572.67
604.48	571.29
604.83	570.00
605.18	569.29
605.53	569.52
605.87	570.76
606.22	574.38
606.57	577.71
606.92	581.57
607.27	586.33
607.62	592.95
607.96	598.57
608.31	601.81
608.66	604.90
609.01	607.43
609.36	610.52
609.70	613.76
610.05	615.62
610.40	617.76
610.75	618.81
611.10	620.52
611.44	621.48
611.79	620.95
612.14	621.19
612.49	619.57
612.83	617.33
613.18	613.71
613.53	608.38
613.88	602.24
614.22	595.10
614.57	587.43
614.92	578.14
615.27	569.95
615.61	563.38
615.96	557.10
616.31	551.38
616.65	546.29
617.00	541.00
617.35	535.52
617.70	530.38
618.04	525.33
618.39	519.52
618.74	515.48
619.08	512.24
619.43	508.62
619.78	505.10
620.12	502.14
620.47	499.90
620.82	496.95
621.16	494.10
621.51	493.48
621.85	491.10
622.20	489.67
622.55	486.81
622.89	484.71
623.24	483.05
623.59	480.86
623.93	478.76
624.28	476.52
624.62	476.86
624.97	475.62
625.32	473.86
625.66	472.71
626.01	470.43
626.35	469.29
626.70	467.48
627.04	466.29
627.39	464.10
627.73	462.86
628.08	461.71
628.43	459.86
628.77	456.05
629.12	454.24
629.46	451.71
629.81	450.19
630.15	448.29
630.50	445.76
630.84	443.86
631.19	441.67
631.53	439.38
631.88	434.57
632.22	431.19
632.57	429.14
632.91	427.00
633.26	425.71
633.60	422.90
633.95	420.33
634.29	417.71
634.64	415.57
634.98	412.29
635.32	410.29
635.67	408.52
636.01	407.33
636.36	405.48
636.70	404.52
637.05	402.76
637.39	400.52
637.73	399.14
638.08	398.10
638.42	396.19
638.77	394.95
639.11	393.48
639.45	392.43
639.80	390.62
640.14	389.05
640.49	387.43
640.83	386.48
641.17	386.05
641.52	384.81
641.86	384.05
642.20	384.29
642.55	382.95
642.89	381.90
643.23	380.43
643.58	380.00
643.92	377.95
644.26	377.10
644.61	376.76
644.95	375.76
645.29	374.29
645.64	374.48
645.98	373.29
646.32	373.57
646.66	372.43
647.01	371.71
647.35	371.24
647.69	370.86
648.04	369.90
648.38	368.57
648.72	368.10
649.06	366.48
649.41	364.57
649.75	363.43
650.09	362.90
650.43	361.90
650.78	360.67
651.12	359.71
651.46	358.10
651.80	356.67
652.14	355.48
652.49	355.00
652.83	352.67
653.17	351.67
653.51	349.29
653.85	348.67
654.20	347.43
654.54	345.95
654.88	344.05
655.22	342.38
655.56	341.14
655.90	339.71
656.25	338.86
656.59	337.86
656.93	337.19
657.27	336.52
657.61	335.38
657.95	334.95
658.29	334.14
658.64	334.24
658.98	333.48
659.32	332.43
659.66	331.14
660.00	330.81
660.34	330.48
660.68	330.10
661.02	329.48
661.36	328.62
661.70	327.71
662.05	326.71
662.39	326.90
662.73	327.48
663.07	328.33
663.41	328.19
663.75	327.81
664.09	326.90
664.43	325.67
664.77	325.43
665.11	324.00
665.45	323.52
665.79	322.86
666.13	321.90
666.47	321.05
666.81	320.76
667.15	319.57
667.49	318.81
667.83	319.05
668.17	317.43
668.51	316.71
668.85	316.62
669.19	317.67
669.53	316.48
669.87	314.57
670.21	312.76
670.55	311.90
670.89	312.14
671.23	311.24
671.57	310.71
671.91	310.19
672.25	310.00
672.58	310.33
672.92	309.29
673.26	308.86
673.60	309.00
673.94	308.29
674.28	308.29
674.62	307.86
674.96	306.81
675.30	306.81
675.64	306.43
675.97	305.76
676.31	304.33
676.65	304.00
676.99	304.29
677.33	303.52
677.67	303.52
678.01	301.81
678.34	301.57
678.68	301.67
679.02	300.81
679.36	300.33
679.70	298.90
680.04	298.38
680.37	297.86
680.71	297.10
681.05	296.81
681.39	296.62
681.73	295.81
682.06	295.05
682.40	294.38
682.74	294.33
683.08	295.29
683.42	294.62
683.75	294.24
684.09	293.10
684.43	293.10
684.77	292.14
685.10	292.10
685.44	292.33
685.78	291.67
686.12	291.43
686.45	290.52
686.79	289.95
687.13	290.19
687.46	290.19
687.80	290.29
688.14	289.76
688.48	289.29
688.81	289.33
689.15	289.81
689.49	289.62
689.82	289.43
690.16	287.62
690.50	287.14
690.83	286.48
691.17	286.00
691.51	285.33
691.84	285.29
692.18	284.76
692.52	283.86
692.85	283.24
693.19	283.81
693.52	283.76
693.86	283.43
694.20	282.62
694.53	282.10
694.87	281.33
695.21	280.57
695.54	280.24
695.88	279.10
696.21	278.05
696.55	277.86
696.88	277.38
697.22	276.76
697.56	276.81
697.89	276.57
698.23	276.33
698.56	275.81
698.90	275.76
699.23	275.24
699.57	275.10
699.90	274.86
700.24	273.86
700.58	273.95
700.91	274.48
701.25	276.24
701.58	276.86
701.92	277.24
702.25	277.86
702.59	277.90
702.92	278.57
703.26	279.00
703.59	279.86
703.93	282.10
704.26	283.00
704.60	283.29
704.93	283.76
705.26	284.19
705.60	284.95
705.93	285.00
706.27	286.24
706.60	287.19
706.94	288.43
707.27	288.57
707.61	289.00
707.94	289.24
708.27	287.71
708.61	286.86
708.94	286.86
709.28	286.43
709.61	285.81
709.94	285.52
710.28	284.90
710.61	283.76
710.95	280.86
711.28	281.71
711.61	281.05
711.95	281.00
712.28	279.95
712.61	279.33
712.95	279.81
713.28	279.52
713.61	278.19
713.95	276.38
714.28	275.62
714.61	274.33
714.95	273.10
715.28	272.14
715.61	271.67
715.95	270.81
716.28	269.81
716.61	269.52
716.95	268.57
717.28	268.24
717.61	267.90
717.94	267.52
718.28	265.33
718.61	264.62
718.94	263.62
719.27	263.52
719.61	262.86
719.94	261.67
720.27	260.29
720.60	259.76
720.94	259.67
721.27	259.95
721.60	260.43
721.93	259.76
722.27	260.43
722.60	260.57
722.93	260.14
723.26	260.57
723.59	260.24
723.93	260.48
724.26	260.52
724.59	260.10
724.92	260.14
725.25	260.71
725.59	260.71
725.92	261.00
726.25	260.52
726.58	260.67
726.91	260.38
727.24	260.33
727.57	260.29
727.91	259.81
728.24	259.48
728.57	258.57
728.90	259.24
729.23	258.29
729.56	259.14
729.89	259.29
730.22	258.86
730.55	258.62
730.89	258.52
731.22	258.19
731.55	257.95
731.88	257.76
732.21	256.90
732.54	256.38
732.87	256.10
733.20	256.57
733.53	256.76
733.86	256.86
734.19	256.86
734.52	257.29
734.85	259.14
735.18	258.52
735.51	259.29
735.84	259.19
736.17	259.57
736.50	257.95
736.83	260.43
737.16	260.71
737.49	260.86
737.82	260.62
738.15	260.76
738.48	260.81
738.81	260.71
739.14	260.71
739.47	260.81
739.80	260.76
740.13	261.05
740.46	260.43
740.79	259.90
741.12	259.81
741.45	258.90
741.78	257.24
742.11	258.10
742.44	257.33
742.77	257.38
743.10	256.86
743.43	257.00
743.75	254.10
744.08	256.81
744.41	256.38
744.74	256.19
745.07	255.48
745.40	255.76
745.73	256.52
746.06	256.52
746.39	256.86
746.71	256.52
747.04	255.81
747.37	255.48
747.70	256.05
748.03	256.05
748.36	256.48
748.68	256.48
749.01	255.33
749.34	255.71
749.67	255.86
750.00	256.24
750.33	258.00
750.65	258.33
750.98	255.38
751.31	255.38
751.64	255.43
751.97	256.95
752.29	256.62
752.62	255.48
752.95	255.38
753.28	254.81
753.60	254.52
753.93	255.00
754.26	255.10
754.59	254.24
754.91	253.71
755.24	253.43
755.57	253.05
755.90	253.29
756.22	252.71
756.55	252.33
756.88	251.86
757.20	250.00
757.53	249.24
757.86	248.95
758.19	249.29
758.51	249.10
758.84	247.67
759.17	247.38
759.49	247.43
759.82	248.52
760.15	248.67
760.47	248.67
760.80	248.05
761.13	248.52
761.45	248.19
761.78	248.33
762.11	248.67
762.43	248.48
762.76	248.29
763.08	248.76
763.41	248.57
763.74	248.52
764.06	248.24
764.39	248.43
764.71	248.38
765.04	248.00
765.37	247.57
765.69	247.48
766.02	247.33
766.34	247.24
766.67	246.00
767.00	246.29
767.32	247.38
767.65	248.38
767.97	248.14
768.30	248.38
768.62	248.19
768.95	247.57
769.27	247.33
769.60	247.81
769.92	247.19
770.25	246.67
770.57	246.38
770.90	246.43
771.22	245.86
771.55	245.81
771.87	245.52
772.20	245.62
772.52	247.57
772.85	250.71
773.17	250.38
773.50	250.19
773.82	250.00
774.15	249.05
774.47	247.62
774.80	247.48
775.12	247.71
775.45	247.71
775.77	247.81
776.09	248.48
776.42	248.43
776.74	248.95
777.07	248.76
777.39	248.57
777.72	248.33
778.04	249.05
778.36	248.81
778.69	249.29
779.01	249.81
779.33	247.71
779.66	244.86
779.98	244.71
780.31	244.81
780.63	245.62
780.95	245.90
781.28	246.10
781.60	245.62
781.92	245.33
782.25	245.05
782.57	245.33
782.89	244.67
783.22	244.33
783.54	243.95
783.86	244.43
784.19	244.38
784.51	245.19
784.83	244.67
785.16	244.76
785.48	244.71
785.80	244.52
786.12	244.57
786.45	244.71
786.77	245.38
787.09	245.52
787.42	244.38
787.74	244.14
788.06	244.38
788.38	244.52
788.71	244.14
789.03	244.38
789.35	244.38
789.67	244.48
789.99	244.48
790.32	244.38
790.64	244.71
790.96	246.38
791.28	245.52
791.61	245.29
791.93	245.67
792.25	245.33
792.57	246.95
792.89	246.76
793.21	246.62
793.54	246.19
793.86	245.71
794.18	246.05
794.50	246.05
794.82	245.86
795.14	246.24
795.47	246.71
795.79	246.76
796.11	246.48
796.43	246.43
796.75	246.71
797.07	246.81
797.39	246.62
797.71	245.24
798.04	245.38
798.36	245.67
798.68	245.43
799.00	245.48
799.32	243.86
799.64	244.14
799.96	244.29
800.28	244.95
800.60	244.95
800.92	245.10
801.24	244.81
801.56	244.86
801.89	244.33
802.21	244.52
802.53	244.24
802.85	244.43
803.17	245.48
803.49	245.05
803.81	244.52
804.13	244.14
804.45	243.90
804.77	244.29
805.09	244.57
805.41	244.14
805.73	243.76
806.05	243.67
806.37	243.76
806.69	243.57
807.01	243.19
807.33	243.67
807.65	242.62
807.97	243.67
808.28	243.33
808.60	243.67
808.92	243.48
809.24	245.00
809.56	244.86
809.88	244.00
810.20	244.33
810.52	245.14
810.84	245.10
811.16	245.10
811.48	244.62
811.80	245.48
812.12	245.57
812.43	245.81
812.75	246.10
813.07	245.67
813.39	245.52
813.71	245.33
814.03	244.95
814.35	245.33
814.67	244.24
814.98	244.38
815.30	243.81
815.62	243.57
815.94	241.90
816.26	242.67
816.58	242.24
816.89	242.14
817.21	241.33
817.53	241.29
817.85	241.33
818.17	241.43
818.48	240.43
818.80	241.00
819.12	240.86
819.44	240.00
819.76	239.62
820.07	239.67
820.39	239.38
820.71	239.71
821.03	239.90
821.34	239.76
821.66	240.05
821.98	240.57
822.30	240.19
822.61	241.62
822.93	240.81
823.25	241.00
823.57	240.57
823.88	241.57
824.20	241.67
824.52	241.81
824.83	241.76
825.15	241.24
825.47	240.95
825.79	241.19
826.10	241.29
826.42	241.43
826.74	241.76
827.05	242.00
827.37	241.86
827.69	241.67
828.00	242.10
828.32	242.14
828.64	242.00
828.95	243.62
829.27	243.14
829.58	242.90
829.90	242.86
830.22	243.38
830.53	242.38
830.85	242.48
831.17	241.95
831.48	241.67
831.80	241.95
832.11	241.81
832.43	241.43
832.75	241.52
833.06	243.05
833.38	242.19
833.69	242.00
834.01	242.05
834.32	241.95
834.64	241.57
834.96	241.67
835.27	241.81
835.59	240.95
835.90	240.19
836.22	240.48
836.53	240.43
836.85	240.24
837.16	242.86
837.48	242.71
837.79	243.71
838.11	244.10
838.42	244.29
838.74	244.57
839.05	244.48
839.37	244.48
839.68	242.81
840.00	242.95
840.31	243.19
840.63	243.14
840.94	242.86
841.26	242.86
841.57	242.48
841.88	242.57
842.20	242.14
842.51	242.24
842.83	242.29
843.14	244.48
843.46	244.43
843.77	242.86
844.08	242.48
844.40	241.52
844.71	241.38
845.03	241.00
845.34	240.90
845.65	241.00
845.97	240.81
846.28	241.10
846.60	241.52
846.91	241.29
847.22	241.10
847.54	242.05
847.85	242.24
848.16	241.90
848.48	241.33
848.79	242.29
849.10	242.33
849.42	242.00
849.73	239.52
850.04	239.10
850.36	237.90
850.67	238.76
850.98	238.67
851.30	238.67
851.61	238.86
851.92	238.43
852.23	239.33
852.55	239.71
852.86	239.95
853.17	240.05
853.49	240.62
853.80	241.14
854.11	240.90
854.42	240.81
854.74	240.48
855.05	240.43
855.36	239.48
855.67	239.62
855.99	239.71
856.30	242.62
856.61	242.76
856.92	243.38
857.23	242.86
857.55	242.86
857.86	242.67
858.17	243.14
858.48	243.05
858.79	242.19
859.11	242.33
859.42	242.19
859.73	241.38
860.04	241.24
860.35	240.29
860.66	239.76
860.98	239.81
861.29	240.81
861.60	241.14
861.91	241.57
862.22	241.43
862.53	241.29
862.84	238.67
863.16	239.52
863.47	239.24
863.78	239.57
864.09	239.86
864.40	240.48
864.71	240.05
865.02	240.29
865.33	240.24
865.64	239.95
865.95	239.86
866.27	241.86
866.58	241.71
866.89	242.43
867.20	242.57
867.51	242.38
867.82	242.05
868.13	242.76
868.44	242.10
868.75	242.38
869.06	242.81
869.37	242.62
869.68	241.38
869.99	241.67
870.30	241.57
870.61	241.81
870.92	241.14
871.23	241.14
871.54	241.33
871.85	242.05
872.16	242.38
872.47	242.29
872.78	240.76
873.09	240.81
873.40	240.48
873.71	240.71
874.02	240.90
874.33	240.48
874.64	239.81
874.95	240.14
875.26	239.71
875.56	239.19
875.87	239.48
876.18	239.76
876.49	242.00
876.80	241.81
877.11	241.57
877.42	241.76
877.73	241.71
878.04	241.57
878.35	241.48
878.66	241.29
878.96	241.10
879.27	241.05
879.58	240.76
879.89	240.76
880.20	241.00
880.51	240.71
880.82	241.00
881.12	241.00
881.43	240.67
881.74	240.38
882.05	240.57
882.36	240.57
882.67	240.86
882.97	238.43
883.28	238.29
883.59	238.24
883.90	238.62
884.21	239.14
884.51	238.76
884.82	238.24
885.13	238.14
885.44	238.24
885.74	238.14
886.05	238.29
886.36	238.19
886.67	237.57
886.98	239.14
887.28	239.10
887.59	239.19
887.90	239.33
888.20	239.24
888.51	239.62
888.82	239.43
889.13	239.71
889.43	241.38
889.74	240.90
890.05	240.62
890.35	240.19
890.66	239.90
890.97	240.05
891.28	239.86
891.58	240.05
891.89	240.48
892.20	240.38
892.50	240.33
892.81	240.19
893.12	240.24
893.42	238.81
893.73	238.86
894.04	238.76
894.34	239.10
894.65	239.10
894.95	238.71
895.26	238.43
895.57	239.29
895.87	237.14
896.18	238.10
896.48	238.29
896.79	237.90
897.10	238.00
897.40	237.76
897.71	238.33
898.01	237.67
898.32	237.86
898.63	238.05
898.93	237.86
899.24	238.14
899.54	237.76
899.85	237.76
900.15	237.81
900.46	237.57
900.76	237.52
901.07	237.48
901.38	237.33
901.68	237.90
901.99	236.67
902.29	237.05
902.60	236.67
902.90	236.24
903.21	236.52
903.51	236.00
903.82	236.81
904.12	236.43
904.43	237.29
904.73	236.86
905.03	237.05
905.34	239.57
905.64	239.48
905.95	239.38
906.25	239.29
906.56	239.14
906.86	239.05
907.17	239.14
907.47	239.29
907.77	239.19
908.08	238.67
908.38	238.67
908.69	238.76
908.99	239.10
909.30	239.62
909.60	239.57
909.90	239.71
910.21	239.24
910.51	238.86
910.81	238.71
911.12	238.76
911.42	238.76
911.73	236.14
912.03	236.38
912.33	237.38
912.64	237.10
912.94	236.95
913.24	236.81
913.55	236.62
913.85	236.57
914.15	237.10
914.46	237.43
914.76	237.29
915.06	237.24
915.37	236.95
915.67	236.67
915.97	236.57
916.27	236.14
916.58	236.10
916.88	236.48
917.18	236.38
917.49	238.05
917.79	237.67
918.09	238.33
918.39	238.57
918.70	238.38
919.00	238.67
919.30	239.81
919.60	239.76
919.91	239.29
920.21	239.29
920.51	238.81
920.81	238.76
921.12	239.19
921.42	239.05
921.72	239.19
922.02	239.71
922.32	240.43
922.63	241.14
922.93	242.29
923.23	242.14
923.53	241.67
923.83	239.95
924.13	240.14
924.44	239.95
924.74	240.52
925.04	240.95
925.34	240.76
925.64	239.95
925.94	239.76
926.24	241.24
926.55	241.24
926.85	241.86
927.15	241.95
927.45	242.00
927.75	241.90
928.05	241.90
928.35	241.48
928.65	241.67
928.95	241.95
929.26	241.10
929.56	241.52
929.86	241.76
930.16	241.71
930.46	241.62
930.76	241.67
931.06	240.33
931.36	239.48
931.66	240.00
931.96	240.05
932.26	240.43
932.56	239.29
932.86	239.33
933.16	239.00
933.46	238.33
933.76	237.90
934.06	238.67
934.36	239.33
934.66	239.10
934.96	238.62
935.26	238.19
935.56	238.38
935.86	238.05
936.16	237.95
936.46	237.67
936.76	237.43
937.06	237.05
937.36	237.48
937.66	237.81
937.96	237.76
938.26	237.48
938.56	237.43
938.86	237.86
939.16	238.38
939.46	238.52
939.76	239.00
940.06	238.71
940.35	238.05
940.65	236.90
940.95	237.62
941.25	237.00
941.55	236.76
941.85	236.76
942.15	237.14
942.45	237.76
942.75	237.81
943.04	238.33
943.34	238.81
943.64	238.62
943.94	238.10
944.24	237.90
944.54	238.14
944.84	238.19
945.13	237.71
945.43	237.33
945.73	237.33
946.03	237.38
946.33	237.43
946.62	237.29
946.92	237.14
947.22	237.00
947.52	237.52
947.82	238.00
948.11	237.52
948.41	237.24
948.71	236.81
949.01	236.90
949.31	236.71
949.60	236.57
949.90	236.76
950.20	236.90
950.50	236.62
950.79	236.43
951.09	237.00
951.39	237.19
951.69	236.76
951.98	237.24
952.28	237.14
952.58	237.33
952.87	237.43
953.17	237.76
953.47	237.57
953.76	237.57
954.06	237.24
954.36	237.00
954.66	236.81
954.95	237.38
955.25	237.71
955.55	237.81
955.84	237.33
956.14	237.57
956.44	237.90
956.73	238.10
957.03	238.38
957.32	238.19
957.62	237.76
957.92	238.71
958.21	238.57
958.51	241.62
958.81	241.76
959.10	241.62
959.40	242.38
959.69	242.57
959.99	243.00
960.29	243.00
960.58	243.00
960.88	244.14
961.17	243.90
961.47	244.10
961.76	244.10
962.06	244.81
962.36	244.38
962.65	244.33
962.95	244.52
963.24	244.14
963.54	244.14
963.83	244.67
964.13	244.10
964.42	243.29
964.72	241.14
965.01	241.29
965.31	241.14
965.60	240.76
965.90	242.38
966.19	241.76
966.49	242.10
966.78	242.05
967.08	241.67
967.37	241.52
967.67	241.19
967.96	241.24
968.26	241.05
968.55	241.33
968.85	241.19
969.14	241.05
969.43	240.95
969.73	240.43
970.02	240.10
970.32	240.24
970.61	240.29
970.91	239.33
971.20	239.05
971.49	239.19
971.79	239.24
972.08	237.43
972.38	237.71
972.67	237.62
972.96	238.00
973.26	237.33
973.55	238.05
973.85	237.86
974.14	237.67
974.43	237.86
974.73	237.67
975.02	237.62
975.31	237.81
975.61	237.76
975.90	238.24
976.19	238.29
976.49	238.33
976.78	238.90
977.07	238.90
977.37	239.14
977.66	239.57
977.95	239.24
978.24	239.05
978.54	239.43
978.83	239.24
979.12	239.14
979.42	239.48
979.71	238.62
980.00	238.57
980.29	238.62
980.59	238.24
980.88	238.81
981.17	238.86
981.46	238.90
981.76	238.95
982.05	239.29
982.34	239.19
982.63	239.33
982.93	238.67
983.22	239.52
983.51	239.43
983.80	239.90
984.09	240.14
984.39	240.57
984.68	240.24
984.97	240.19
985.26	240.14
985.55	240.48
985.85	240.33
986.14	240.86
986.43	241.43
986.72	241.38
987.01	240.71
987.30	240.48
987.59	240.38
987.89	240.90
988.18	240.29
988.47	240.43
988.76	240.14
989.05	240.57
989.34	240.24
989.63	240.95
989.92	240.57
990.22	240.29
990.51	240.10
990.80	240.05
991.09	240.10
991.38	240.19
991.67	239.48
991.96	239.29
992.25	239.19
992.54	238.14
992.83	238.05
993.12	238.05
993.41	238.38
993.70	239.29
993.99	239.19
994.28	239.48
994.58	239.67
994.87	239.52
995.16	239.33
995.45	239.10
995.74	237.95
996.03	238.33
996.32	238.62
996.61	238.62
996.90	238.19
997.19	238.29
997.48	238.62
997.77	238.38
998.06	238.57
998.34	238.38
998.63	238.81
998.92	238.81
999.21	239.05
999.50	239.19
999.79	238.10
1000.08	238.10
1000.37	237.90
1000.66	237.67
1000.95	238.29
1001.24	238.43
1001.53	238.76
1001.82	239.10
1002.11	238.29
1002.40	238.81
1002.68	239.71
1002.97	241.71
1003.26	241.33
1003.55	240.90
1003.84	241.24
1004.13	242.10
1004.42	242.05
1004.71	242.00
1004.99	241.67
1005.28	241.90
1005.57	241.86
1005.86	241.67
1006.15	241.62
1006.44	241.33
1006.72	241.48
1007.01	240.86
1007.30	240.71
1007.59	240.24
1007.88	239.71
1008.17	239.81
1008.45	239.19
1008.74	237.81
1009.03	236.67
1009.32	236.86
1009.60	236.62
1009.89	236.48
1010.18	235.43
1010.47	235.14
1010.76	235.33
1011.04	235.67
1011.33	235.19
1011.62	235.24
1011.91	235.71
1012.19	235.52
1012.48	235.90
1012.77	235.90
1013.05	237.10
1013.34	237.00
1013.63	237.10
1013.92	237.52
1014.20	237.33
1014.49	237.19
1014.78	237.24
1015.06	236.43
1015.35	236.48
1015.64	236.71
1015.92	237.24
1016.21	237.48
1016.50	237.62
1016.78	237.52
1017.07	237.62
1017.36	237.86
1017.64	237.24
1017.93	237.24
1018.22	237.19
1018.50	236.76
1018.79	236.57
1019.08	235.57
1019.36	235.90
1019.65	235.57
1019.93	236.14
1020.22	236.52
1020.51	237.95
1020.79	238.10
1021.08	234.00
1021.36	230.00
1021.65	236.00
1021.94	238.00
1022.22	241.00
1022.51	231.00
1022.79	246.00
1023.08	240.00
1023.36	268.00
1023.65	231.00
>>>>>End Processed Spectral Data<<<<<
