SpectraSuite Data File
++++++++++++++++++++++++++++++++++++
Date: Wed Nov 07 18:32:58 EST 2012
User: group
Dark Spectrum Present: No
Reference Spectrum Present: No
Number of Sampled Component Spectra: 1
Spectrometers: USB2E7196
Integration Time (usec): 1000000 (USB2E7196)
Spectra Averaged: 1 (USB2E7196)
Boxcar Smoothing: 10 (USB2E7196)
Correct for Electrical Dark: No (USB2E7196)
Strobe/Lamp Enabled: No (USB2E7196)
Correct for Detector Non-linearity: No (USB2E7196)
Correct for Stray Light: No (USB2E7196)
Number of Pixels in Processed Spectrum: 2048
>>>>>Begin Processed Spectral Data<<<<<
339.09	0.00
339.48	219.00
339.86	223.00
340.24	219.00
340.63	222.00
341.01	268.00
341.39	225.00
341.78	226.00
342.16	239.00
342.54	230.00
342.93	223.48
343.31	234.48
343.69	234.90
344.07	235.52
344.46	236.71
344.84	237.29
345.22	235.33
345.60	235.90
345.99	236.33
346.37	235.90
346.75	235.86
347.13	235.90
347.52	235.81
347.90	236.38
348.28	236.48
348.66	236.81
349.05	235.81
349.43	235.86
349.81	235.95
350.19	235.95
350.57	235.67
350.96	235.81
351.34	236.14
351.72	236.43
352.10	236.29
352.48	235.67
352.87	235.67
353.25	235.95
353.63	235.76
354.01	236.00
354.39	236.43
354.77	236.71
355.15	237.38
355.54	237.29
355.92	236.81
356.30	236.62
356.68	238.00
357.06	238.29
357.44	237.95
357.82	238.05
358.20	238.76
358.58	239.19
358.97	239.24
359.35	240.14
359.73	240.38
360.11	240.48
360.49	240.81
360.87	241.00
361.25	241.48
361.63	242.57
362.01	242.71
362.39	242.57
362.77	242.81
363.15	242.71
363.53	242.90
363.91	243.14
364.29	243.52
364.67	241.24
365.05	241.24
365.43	241.57
365.81	241.90
366.19	242.29
366.57	243.24
366.95	243.43
367.33	242.62
367.71	242.95
368.09	243.71
368.47	244.00
368.85	244.19
369.23	244.57
369.61	243.81
369.99	244.52
370.37	244.95
370.75	246.29
371.13	245.90
371.51	246.10
371.89	246.38
372.27	246.57
372.65	247.14
373.03	247.19
373.41	247.05
373.78	247.00
374.16	245.95
374.54	244.86
374.92	244.67
375.30	244.62
375.68	244.10
376.06	244.05
376.44	243.67
376.82	243.71
377.19	243.43
377.57	243.19
377.95	242.38
378.33	242.29
378.71	240.67
379.09	241.14
379.47	241.10
379.84	240.52
380.22	240.00
380.60	239.48
380.98	239.33
381.36	239.48
381.73	239.00
382.11	239.71
382.49	240.10
382.87	239.76
383.25	239.62
383.62	242.81
384.00	242.19
384.38	242.10
384.76	242.38
385.13	243.29
385.51	243.10
385.89	242.71
386.27	242.86
386.64	243.29
387.02	243.05
387.40	242.90
387.78	243.24
388.15	243.76
388.53	243.38
388.91	243.81
389.29	243.67
389.66	243.90
390.04	243.14
390.42	243.33
390.79	243.67
391.17	243.67
391.55	240.62
391.92	240.67
392.30	241.19
392.68	240.76
393.05	240.48
393.43	240.62
393.81	240.76
394.18	240.19
394.56	240.10
394.94	240.19
395.31	239.90
395.69	240.62
396.06	240.81
396.44	241.33
396.82	240.76
397.19	241.95
397.57	242.05
397.95	243.00
398.32	242.05
398.70	242.19
399.07	243.14
399.45	243.10
399.82	243.05
400.20	242.67
400.58	242.43
400.95	241.71
401.33	242.48
401.70	244.19
402.08	244.38
402.45	244.81
402.83	245.67
403.20	245.90
403.58	245.29
403.95	245.95
404.33	246.62
404.71	247.29
405.08	248.76
405.46	248.86
405.83	249.05
406.21	250.05
406.58	250.29
406.96	250.19
407.33	251.00
407.70	251.81
408.08	254.48
408.45	255.48
408.83	256.33
409.20	256.48
409.58	255.86
409.95	257.14
410.33	258.05
410.70	258.05
411.08	259.33
411.45	260.71
411.82	260.90
412.20	262.05
412.57	264.67
412.95	263.86
413.32	265.76
413.69	267.19
414.07	268.81
414.44	270.90
414.82	273.10
415.19	275.29
415.56	277.29
415.94	278.14
416.31	281.33
416.68	284.57
417.06	288.19
417.43	291.90
417.81	295.38
418.18	299.48
418.55	303.57
418.93	307.67
419.30	312.05
419.67	317.19
420.04	321.90
420.42	326.14
420.79	333.71
421.16	339.57
421.54	346.86
421.91	353.33
422.28	359.57
422.66	366.14
423.03	375.00
423.40	382.48
423.77	390.29
424.15	397.29
424.52	405.14
424.89	413.67
425.26	421.19
425.64	429.10
426.01	436.62
426.38	445.33
426.75	455.14
427.13	464.10
427.50	473.38
427.87	483.29
428.24	492.90
428.61	500.29
428.99	510.86
429.36	520.67
429.73	532.24
430.10	544.43
430.47	556.71
430.85	566.62
431.22	579.29
431.59	595.00
431.96	608.43
432.33	622.24
432.70	636.43
433.08	652.43
433.45	667.81
433.82	684.00
434.19	701.33
434.56	717.52
434.93	733.00
435.30	748.43
435.68	765.57
436.05	782.38
436.42	799.38
436.79	815.19
437.16	831.86
437.53	848.67
437.90	865.86
438.27	881.38
438.64	898.48
439.01	914.57
439.38	926.19
439.75	939.10
440.13	954.43
440.50	968.24
440.87	979.62
441.24	991.62
441.61	1003.14
441.98	1012.10
442.35	1022.81
442.72	1034.24
443.09	1046.10
443.46	1052.05
443.83	1055.95
444.20	1059.57
444.57	1064.19
444.94	1066.19
445.31	1067.10
445.68	1070.86
446.05	1071.48
446.42	1068.86
446.79	1066.10
447.16	1061.90
447.53	1059.57
447.90	1052.14
448.27	1044.10
448.64	1034.05
449.01	1025.67
449.37	1014.43
449.74	1002.00
450.11	990.05
450.48	974.33
450.85	957.33
451.22	944.05
451.59	931.57
451.96	919.38
452.33	903.81
452.70	889.00
453.07	872.43
453.43	851.67
453.80	835.43
454.17	819.24
454.54	803.57
454.91	788.62
455.28	772.19
455.65	757.52
456.02	747.95
456.38	735.76
456.75	721.33
457.12	708.29
457.49	696.43
457.86	682.14
458.23	672.81
458.59	662.14
458.96	650.19
459.33	639.33
459.70	629.24
460.07	621.10
460.43	612.10
460.80	604.10
461.17	596.76
461.54	588.90
461.91	581.52
462.27	574.10
462.64	566.71
463.01	560.33
463.38	554.00
463.74	542.48
464.11	536.52
464.48	531.33
464.85	525.95
465.21	522.05
465.58	517.81
465.95	511.57
466.32	507.38
466.68	503.71
467.05	500.05
467.42	495.52
467.78	490.29
468.15	486.19
468.52	482.95
468.88	478.76
469.25	474.19
469.62	471.10
469.98	467.38
470.35	464.62
470.72	461.57
471.08	456.90
471.45	454.67
471.82	452.95
472.18	449.90
472.55	447.10
472.92	443.76
473.28	441.14
473.65	439.05
474.02	436.48
474.38	434.71
474.75	432.86
475.11	430.29
475.48	428.67
475.85	426.76
476.21	425.19
476.58	424.71
476.94	423.48
477.31	422.33
477.67	421.19
478.04	419.95
478.41	419.67
478.77	422.24
479.14	420.90
479.50	419.62
479.87	419.24
480.23	419.00
480.60	419.05
480.96	418.81
481.33	419.81
481.69	420.19
482.06	420.71
482.42	421.43
482.79	423.14
483.15	424.05
483.52	425.76
483.88	425.81
484.25	425.62
484.61	426.90
484.98	428.38
485.34	430.67
485.71	432.86
486.07	433.81
486.44	432.95
486.80	434.48
487.17	436.00
487.53	437.81
487.90	440.19
488.26	442.76
488.62	445.19
488.99	446.05
489.35	447.71
489.72	449.00
490.08	450.52
490.44	451.67
490.81	453.67
491.17	455.48
491.54	458.62
491.90	462.00
492.26	464.14
492.63	466.14
492.99	467.81
493.36	469.76
493.72	472.62
494.08	475.76
494.45	479.29
494.81	482.95
495.17	486.10
495.54	489.76
495.90	492.19
496.26	495.62
496.63	499.67
496.99	503.24
497.35	507.05
497.72	511.29
498.08	515.14
498.44	519.76
498.80	524.38
499.17	528.24
499.53	532.24
499.89	537.76
500.26	543.00
500.62	547.52
500.98	552.81
501.34	557.33
501.71	562.19
502.07	567.10
502.43	571.90
502.79	577.29
503.16	582.05
503.52	587.52
503.88	591.48
504.24	597.00
504.60	602.43
504.97	608.67
505.33	613.52
505.69	619.81
506.05	624.71
506.41	630.10
506.78	635.48
507.14	640.38
507.50	645.10
507.86	650.14
508.22	656.14
508.59	660.86
508.95	667.29
509.31	673.90
509.67	679.24
510.03	684.38
510.39	689.29
510.75	694.10
511.12	699.14
511.48	704.90
511.84	709.24
512.20	714.57
512.56	719.57
512.92	724.95
513.28	729.71
513.64	734.29
514.00	738.81
514.37	744.05
514.73	749.05
515.09	754.33
515.45	758.90
515.81	762.76
516.17	767.33
516.53	770.95
516.89	773.52
517.25	777.76
517.61	782.48
517.97	786.52
518.33	791.19
518.69	795.52
519.05	800.57
519.41	805.00
519.77	809.95
520.13	812.71
520.49	815.62
520.85	818.57
521.21	823.24
521.57	826.48
521.93	829.05
522.29	832.38
522.65	834.38
523.01	836.38
523.37	839.00
523.73	841.95
524.09	844.19
524.45	846.76
524.81	848.76
525.17	850.81
525.53	853.33
525.89	854.33
526.25	855.95
526.61	856.24
526.97	857.57
527.33	858.24
527.68	862.33
528.04	864.05
528.40	865.52
528.76	866.00
529.12	866.81
529.48	867.86
529.84	868.05
530.20	870.14
530.56	872.14
530.91	873.86
531.27	874.33
531.63	874.86
531.99	876.43
532.35	877.29
532.71	877.29
533.07	878.14
533.42	882.52
533.78	883.48
534.14	885.67
534.50	886.52
534.86	888.33
535.21	887.38
535.57	889.76
535.93	890.90
536.29	893.24
536.65	894.90
537.00	896.52
537.36	900.14
537.72	901.29
538.08	903.86
538.44	906.48
538.79	910.05
539.15	912.95
539.51	915.33
539.87	917.67
540.22	920.38
540.58	921.67
540.94	921.57
541.29	923.90
541.65	925.43
542.01	928.33
542.37	929.33
542.72	929.52
543.08	928.52
543.44	929.76
543.79	928.24
544.15	928.81
544.51	928.81
544.87	927.29
545.22	925.90
545.58	924.29
545.94	921.10
546.29	918.76
546.65	915.95
547.01	912.62
547.36	911.05
547.72	908.48
548.07	906.57
548.43	903.10
548.79	899.76
549.14	896.10
549.50	893.14
549.86	889.14
550.21	887.19
550.57	884.90
550.92	880.67
551.28	879.29
551.64	876.00
551.99	873.86
552.35	870.57
552.70	868.86
553.06	865.86
553.41	863.81
553.77	862.81
554.13	861.29
554.48	860.43
554.84	857.29
555.19	855.95
555.55	855.67
555.90	853.67
556.26	851.71
556.61	850.05
556.97	847.00
557.32	845.90
557.68	844.57
558.03	843.67
558.39	843.14
558.74	841.19
559.10	839.05
559.45	837.71
559.81	836.43
560.16	834.38
560.52	833.57
560.87	832.67
561.23	829.71
561.58	830.81
561.94	828.00
562.29	826.76
562.64	825.43
563.00	821.43
563.35	820.14
563.71	818.62
564.06	816.10
564.42	814.67
564.77	812.76
565.12	810.52
565.48	811.24
565.83	810.00
566.19	807.81
566.54	807.19
566.89	805.19
567.25	805.38
567.60	805.38
567.96	806.00
568.31	805.24
568.66	805.14
569.02	801.43
569.37	800.81
569.72	800.10
570.08	798.10
570.43	797.67
570.78	795.76
571.14	794.29
571.49	794.00
571.84	793.24
572.20	792.19
572.55	791.71
572.90	788.29
573.26	786.62
573.61	785.81
573.96	784.62
574.31	783.19
574.67	781.00
575.02	778.57
575.37	774.19
575.72	772.00
576.08	769.57
576.43	767.57
576.78	765.62
577.13	764.29
577.49	762.76
577.84	761.29
578.19	760.48
578.54	760.19
578.90	759.14
579.25	757.62
579.60	756.43
579.95	754.29
580.30	752.62
580.66	751.67
581.01	750.14
581.36	748.76
581.71	747.10
582.06	746.10
582.42	744.62
582.77	743.76
583.12	743.24
583.47	741.76
583.82	740.48
584.17	739.81
584.53	738.76
584.88	736.62
585.23	735.10
585.58	732.95
585.93	730.10
586.28	728.24
586.63	726.29
586.98	724.19
587.34	722.38
587.69	719.24
588.04	716.24
588.39	713.86
588.74	710.81
589.09	709.52
589.44	706.14
589.79	703.52
590.14	700.76
590.49	696.71
590.84	693.00
591.19	689.52
591.54	685.76
591.89	681.24
592.25	680.48
592.60	676.19
592.95	673.52
593.30	671.19
593.65	667.86
594.00	663.52
594.35	667.24
594.70	663.52
595.05	661.00
595.40	658.95
595.75	656.33
596.10	653.48
596.45	650.29
596.80	647.67
597.15	645.05
597.50	642.81
597.85	640.95
598.19	638.52
598.54	636.38
598.89	633.71
599.24	632.19
599.59	628.05
599.94	625.76
600.29	623.33
600.64	620.24
600.99	618.48
601.34	617.29
601.69	607.52
602.04	605.57
602.39	603.43
602.74	601.00
603.08	598.57
603.43	597.29
603.78	595.14
604.13	593.10
604.48	591.14
604.83	589.57
605.18	589.05
605.53	589.86
605.87	591.14
606.22	594.76
606.57	599.00
606.92	603.52
607.27	609.52
607.62	614.52
607.96	619.52
608.31	623.33
608.66	627.38
609.01	631.24
609.36	634.48
609.70	638.67
610.05	641.05
610.40	643.33
610.75	645.38
611.10	646.43
611.44	647.05
611.79	648.05
612.14	647.67
612.49	645.71
612.83	642.76
613.18	639.33
613.53	633.10
613.88	625.24
614.22	617.33
614.57	608.71
614.92	599.81
615.27	592.43
615.61	585.19
615.96	577.81
616.31	571.14
616.65	564.95
617.00	558.24
617.35	552.10
617.70	546.48
618.04	540.05
618.39	534.81
618.74	530.90
619.08	526.48
619.43	522.71
619.78	519.00
620.12	515.95
620.47	513.14
620.82	510.52
621.16	507.62
621.51	506.43
621.85	503.67
622.20	502.24
622.55	498.71
622.89	496.29
623.24	494.76
623.59	492.05
623.93	490.19
624.28	487.67
624.62	488.38
624.97	488.05
625.32	486.05
625.66	484.76
626.01	482.67
626.35	480.76
626.70	479.14
627.04	478.86
627.39	477.14
627.73	475.76
628.08	473.81
628.43	472.14
628.77	468.76
629.12	466.71
629.46	464.62
629.81	463.19
630.15	460.76
630.50	458.00
630.84	456.38
631.19	453.52
631.53	451.14
631.88	446.00
632.22	441.90
632.57	440.48
632.91	437.81
633.26	435.62
633.60	433.24
633.95	430.67
634.29	427.14
634.64	424.57
634.98	421.86
635.32	420.43
635.67	418.90
636.01	417.67
636.36	416.05
636.70	414.00
637.05	412.14
637.39	410.33
637.73	408.95
638.08	407.57
638.42	405.81
638.77	404.38
639.11	402.81
639.45	401.19
639.80	399.14
640.14	397.19
640.49	395.05
640.83	393.19
641.17	392.10
641.52	390.86
641.86	389.76
642.20	389.19
642.55	386.90
642.89	385.29
643.23	383.71
643.58	383.33
643.92	382.29
644.26	381.24
644.61	380.71
644.95	379.67
645.29	378.43
645.64	378.71
645.98	377.33
646.32	376.81
646.66	376.38
647.01	375.38
647.35	375.48
647.69	375.29
648.04	374.62
648.38	373.10
648.72	371.48
649.06	370.10
649.41	368.48
649.75	368.10
650.09	367.29
650.43	366.14
650.78	364.57
651.12	363.29
651.46	362.24
651.80	360.90
652.14	359.19
652.49	358.62
652.83	356.81
653.17	355.62
653.51	354.33
653.85	353.38
654.20	352.29
654.54	350.57
654.88	348.48
655.22	347.14
655.56	346.33
655.90	345.48
656.25	344.71
656.59	343.71
656.93	342.81
657.27	342.67
657.61	341.67
657.95	340.81
658.29	339.76
658.64	339.52
658.98	338.71
659.32	337.86
659.66	337.05
660.00	336.38
660.34	336.10
660.68	335.57
661.02	334.71
661.36	333.95
661.70	333.05
662.05	332.57
662.39	332.62
662.73	332.24
663.07	333.33
663.41	332.86
663.75	332.00
664.09	331.52
664.43	329.81
664.77	329.19
665.11	327.62
665.45	327.38
665.79	326.86
666.13	326.10
666.47	325.57
666.81	324.33
667.15	323.14
667.49	322.57
667.83	322.38
668.17	321.43
668.51	320.62
668.85	320.24
669.19	320.71
669.53	319.38
669.87	318.52
670.21	316.76
670.55	315.90
670.89	316.43
671.23	315.43
671.57	314.90
671.91	314.62
672.25	314.71
672.58	315.24
672.92	313.90
673.26	313.10
673.60	312.67
673.94	312.24
674.28	311.67
674.62	311.67
674.96	310.62
675.30	310.19
675.64	309.67
675.97	309.43
676.31	308.19
676.65	308.05
676.99	308.10
677.33	306.71
677.67	306.62
678.01	304.76
678.34	304.33
678.68	304.19
679.02	303.57
679.36	303.05
679.70	301.67
680.04	301.00
680.37	300.76
680.71	300.43
681.05	300.14
681.39	300.00
681.73	299.00
682.06	298.86
682.40	298.52
682.74	298.48
683.08	298.76
683.42	298.33
683.75	298.33
684.09	297.48
684.43	297.67
684.77	296.57
685.10	296.38
685.44	296.05
685.78	295.43
686.12	294.90
686.45	294.33
686.79	293.43
687.13	293.67
687.46	292.81
687.80	292.67
688.14	292.19
688.48	291.81
688.81	291.71
689.15	291.86
689.49	291.29
689.82	291.38
690.16	289.62
690.50	289.00
690.83	288.10
691.17	287.24
691.51	287.10
691.84	287.10
692.18	286.48
692.52	285.90
692.85	286.00
693.19	286.38
693.52	286.10
693.86	285.62
694.20	284.86
694.53	284.67
694.87	283.90
695.21	282.86
695.54	282.62
695.88	281.29
696.21	279.71
696.55	279.10
696.88	278.29
697.22	278.14
697.56	278.24
697.89	278.00
698.23	277.76
698.56	277.00
698.90	277.14
699.23	276.71
699.57	276.62
699.90	275.81
700.24	274.95
700.58	275.33
700.91	275.67
701.25	277.76
701.58	278.57
701.92	279.14
702.25	280.38
702.59	280.38
702.92	281.52
703.26	282.38
703.59	283.10
703.93	285.62
704.26	286.62
704.60	287.29
704.93	287.52
705.26	287.81
705.60	288.52
705.93	288.10
706.27	289.05
706.60	289.71
706.94	291.24
707.27	291.71
707.61	291.76
707.94	292.14
708.27	290.19
708.61	289.38
708.94	289.05
709.28	288.19
709.61	287.95
709.94	287.38
710.28	286.52
710.61	285.81
710.95	282.76
711.28	283.29
711.61	282.33
711.95	282.00
712.28	281.05
712.61	280.48
712.95	281.33
713.28	281.67
713.61	280.38
713.95	278.62
714.28	277.81
714.61	276.57
714.95	275.38
715.28	274.62
715.61	274.00
715.95	273.52
716.28	272.57
716.61	272.14
716.95	271.29
717.28	270.71
717.61	270.14
717.94	269.95
718.28	267.76
718.61	267.29
718.94	266.43
719.27	266.24
719.61	265.57
719.94	264.52
720.27	263.19
720.60	262.86
720.94	262.71
721.27	262.43
721.60	262.90
721.93	262.67
722.27	262.95
722.60	262.95
722.93	262.62
723.26	263.05
723.59	262.43
723.93	262.57
724.26	262.95
724.59	262.81
724.92	262.81
725.25	263.52
725.59	263.00
725.92	263.05
726.25	263.00
726.58	263.43
726.91	262.90
727.24	262.95
727.57	263.19
727.91	262.81
728.24	262.71
728.57	262.19
728.90	262.14
729.23	261.05
729.56	262.29
729.89	262.10
730.22	261.71
730.55	261.81
730.89	261.67
731.22	261.33
731.55	261.05
731.88	260.90
732.21	260.05
732.54	259.81
732.87	259.76
733.20	259.76
733.53	259.48
733.86	259.67
734.19	258.90
734.52	258.67
734.85	260.10
735.18	259.71
735.51	260.43
735.84	260.86
736.17	261.62
736.50	260.00
736.83	262.90
737.16	263.10
737.49	263.29
737.82	262.95
738.15	263.29
738.48	263.38
738.81	263.05
739.14	263.00
739.47	262.90
739.80	263.10
740.13	263.14
740.46	262.48
740.79	262.05
741.12	262.48
741.45	262.10
741.78	260.57
742.11	261.29
742.44	260.38
742.77	260.48
743.10	260.14
743.43	260.14
743.75	257.24
744.08	259.90
744.41	259.29
744.74	258.95
745.07	258.14
745.40	258.14
745.73	258.90
746.06	258.86
746.39	259.38
746.71	258.67
747.04	258.19
747.37	258.19
747.70	258.62
748.03	258.24
748.36	258.81
748.68	258.95
749.01	257.90
749.34	258.00
749.67	257.48
750.00	257.67
750.33	259.48
750.65	259.38
750.98	256.24
751.31	256.38
751.64	256.57
751.97	257.95
752.29	258.10
752.62	257.29
752.95	257.24
753.28	256.43
753.60	256.43
753.93	257.19
754.26	257.19
754.59	256.14
754.91	256.05
755.24	255.62
755.57	255.10
755.90	255.05
756.22	255.10
756.55	254.52
756.88	253.86
757.20	252.10
757.53	251.33
757.86	251.43
758.19	251.19
758.51	251.24
758.84	250.10
759.17	249.57
759.49	249.48
759.82	250.38
760.15	250.62
760.47	250.57
760.80	249.81
761.13	250.10
761.45	250.24
761.78	250.33
762.11	250.19
762.43	249.86
762.76	249.71
763.08	249.29
763.41	249.76
763.74	249.86
764.06	249.67
764.39	250.00
764.71	249.81
765.04	249.67
765.37	249.14
765.69	248.62
766.02	248.67
766.34	248.33
766.67	247.43
767.00	247.90
767.32	249.05
767.65	250.29
767.97	250.10
768.30	250.24
768.62	249.57
768.95	249.38
769.27	249.52
769.60	250.10
769.92	249.90
770.25	249.38
770.57	249.00
770.90	248.86
771.22	248.24
771.55	248.19
771.87	248.48
772.20	248.48
772.52	250.90
772.85	253.81
773.17	254.10
773.50	253.90
773.82	253.48
774.15	252.48
774.47	250.76
774.80	250.52
775.12	250.29
775.45	250.24
775.77	250.19
776.09	250.62
776.42	250.38
776.74	251.33
777.07	251.33
777.39	251.38
777.72	250.95
778.04	251.57
778.36	251.24
778.69	251.14
779.01	251.43
779.33	249.14
779.66	246.19
779.98	245.67
780.31	245.57
780.63	246.52
780.95	246.67
781.28	246.43
781.60	246.24
781.92	246.43
782.25	246.62
782.57	246.52
782.89	246.05
783.22	245.62
783.54	244.52
783.86	244.29
784.19	244.14
784.51	245.14
784.83	244.81
785.16	244.62
785.48	244.29
785.80	244.24
786.12	243.95
786.45	243.52
786.77	243.71
787.09	243.57
787.42	242.48
787.74	242.62
788.06	243.19
788.38	243.14
788.71	242.33
789.03	242.52
789.35	242.71
789.67	242.24
789.99	242.67
790.32	242.71
790.64	243.10
790.96	245.14
791.28	244.10
791.61	243.95
791.93	244.14
792.25	244.33
792.57	245.76
792.89	245.67
793.21	246.19
793.54	245.86
793.86	245.67
794.18	245.86
794.50	245.29
794.82	245.00
795.14	245.48
795.47	246.38
795.79	246.38
796.11	246.00
796.43	246.10
796.75	245.76
797.07	245.76
797.39	245.81
797.71	244.00
798.04	244.14
798.36	244.29
798.68	244.19
799.00	244.29
799.32	243.10
799.64	243.52
799.96	243.43
800.28	244.19
800.60	244.33
800.92	244.76
801.24	244.90
801.56	245.33
801.89	245.00
802.21	245.14
802.53	244.95
802.85	245.43
803.17	246.57
803.49	246.33
803.81	246.24
804.13	246.05
804.45	245.67
804.77	246.33
805.09	246.29
805.41	246.19
805.73	245.52
806.05	245.19
806.37	244.95
806.69	245.05
807.01	244.67
807.33	244.67
807.65	243.71
807.97	245.10
808.28	244.76
808.60	244.62
808.92	244.19
809.24	245.52
809.56	245.38
809.88	244.52
810.20	244.67
810.52	245.19
810.84	245.05
811.16	245.33
811.48	244.71
811.80	245.57
812.12	245.76
812.43	246.38
812.75	246.38
813.07	246.29
813.39	246.48
813.71	246.00
814.03	245.95
814.35	246.05
814.67	244.33
814.98	244.00
815.30	244.05
815.62	243.48
815.94	241.76
816.26	242.33
816.58	241.67
816.89	241.71
817.21	241.14
817.53	241.10
817.85	240.71
818.17	240.67
818.48	239.43
818.80	239.57
819.12	239.29
819.44	238.95
819.76	238.86
820.07	238.43
820.39	238.52
820.71	238.71
821.03	239.05
821.34	238.76
821.66	239.33
821.98	239.48
822.30	239.57
822.61	241.19
822.93	240.29
823.25	240.38
823.57	240.43
823.88	240.76
824.20	240.71
824.52	241.38
824.83	241.38
825.15	241.38
825.47	241.43
825.79	241.76
826.10	241.81
826.42	241.86
826.74	242.14
827.05	242.19
827.37	242.00
827.69	241.62
828.00	242.10
828.32	242.05
828.64	241.76
828.95	242.90
829.27	242.10
829.58	242.10
829.90	242.62
830.22	242.57
830.53	241.95
830.85	241.71
831.17	240.86
831.48	240.57
831.80	240.67
832.11	240.62
832.43	240.24
832.75	240.24
833.06	241.29
833.38	240.52
833.69	240.43
834.01	240.48
834.32	240.43
834.64	240.10
834.96	240.24
835.27	240.38
835.59	239.57
835.90	238.76
836.22	238.43
836.53	237.81
836.85	237.48
837.16	240.00
837.48	240.05
837.79	240.81
838.11	241.19
838.42	241.10
838.74	241.29
839.05	241.05
839.37	240.71
839.68	239.62
840.00	239.67
840.31	239.86
840.63	239.81
840.94	239.48
841.26	239.62
841.57	239.24
841.88	239.43
842.20	239.24
842.51	239.29
842.83	239.38
843.14	241.90
843.46	242.38
843.77	241.19
844.08	241.05
844.40	240.52
844.71	240.48
845.03	240.48
845.34	240.33
845.65	240.33
845.97	240.71
846.28	240.76
846.60	240.90
846.91	240.67
847.22	240.67
847.54	241.14
847.85	241.14
848.16	241.10
848.48	240.52
848.79	241.52
849.10	241.95
849.42	242.24
849.73	239.86
850.04	239.57
850.36	238.67
850.67	238.90
850.98	239.10
851.30	238.86
851.61	238.76
851.92	238.76
852.23	239.52
852.55	239.76
852.86	239.62
853.17	239.95
853.49	240.29
853.80	240.76
854.11	241.10
854.42	241.43
854.74	241.14
855.05	241.52
855.36	240.24
855.67	240.14
855.99	240.19
856.30	243.29
856.61	243.29
856.92	243.48
857.23	243.76
857.55	243.38
857.86	243.67
858.17	244.10
858.48	243.62
858.79	243.24
859.11	243.33
859.42	243.29
859.73	242.86
860.04	243.00
860.35	242.00
860.66	241.33
860.98	241.19
861.29	241.43
861.60	241.24
861.91	241.81
862.22	241.62
862.53	241.38
862.84	238.48
863.16	238.86
863.47	238.52
863.78	238.19
864.09	238.48
864.40	238.57
864.71	238.48
865.02	238.81
865.33	238.62
865.64	238.10
865.95	238.05
866.27	239.86
866.58	239.43
866.89	239.90
867.20	239.62
867.51	239.19
867.82	239.38
868.13	239.95
868.44	239.62
868.75	240.24
869.06	240.38
869.37	240.52
869.68	239.86
869.99	240.24
870.30	240.81
870.61	241.00
870.92	240.52
871.23	240.14
871.54	240.52
871.85	240.67
872.16	240.90
872.47	240.86
872.78	239.24
873.09	239.67
873.40	239.24
873.71	239.52
874.02	239.95
874.33	239.38
874.64	238.86
874.95	239.10
875.26	238.52
875.56	238.24
875.87	238.24
876.18	238.43
876.49	240.81
876.80	240.10
877.11	239.57
877.42	239.76
877.73	240.05
878.04	239.71
878.35	239.90
878.66	239.86
878.96	239.81
879.27	239.81
879.58	239.24
879.89	238.90
880.20	239.71
880.51	239.33
880.82	239.86
881.12	239.90
881.43	239.52
881.74	239.57
882.05	239.57
882.36	239.76
882.67	239.86
882.97	237.29
883.28	237.33
883.59	237.14
883.90	237.19
884.21	237.48
884.51	237.33
884.82	236.71
885.13	236.62
885.44	236.52
885.74	236.52
886.05	236.95
886.36	237.62
886.67	237.00
886.98	238.52
887.28	238.43
887.59	238.71
887.90	238.81
888.20	238.43
888.51	239.14
888.82	238.76
889.13	238.90
889.43	241.10
889.74	240.86
890.05	241.05
890.35	241.14
890.66	240.86
890.97	240.76
891.28	240.81
891.58	241.19
891.89	241.38
892.20	241.43
892.50	241.33
892.81	241.05
893.12	240.52
893.42	239.05
893.73	238.95
894.04	238.76
894.34	239.00
894.65	239.29
894.95	238.76
895.26	238.81
895.57	240.05
895.87	237.38
896.18	238.05
896.48	238.05
896.79	237.90
897.10	238.33
897.40	238.19
897.71	238.57
898.01	238.38
898.32	238.76
898.63	238.24
898.93	238.14
899.24	238.43
899.54	238.38
899.85	238.43
900.15	238.57
900.46	238.57
900.76	238.86
901.07	238.57
901.38	238.52
901.68	238.95
901.99	237.52
902.29	237.90
902.60	237.71
902.90	237.86
903.21	237.76
903.51	237.57
903.82	238.29
904.12	238.24
904.43	238.05
904.73	237.81
905.03	237.86
905.34	240.19
905.64	240.10
905.95	240.43
906.25	240.48
906.56	240.24
906.86	240.29
907.17	240.14
907.47	240.33
907.77	240.29
908.08	239.81
908.38	240.00
908.69	240.14
908.99	240.71
909.30	241.10
909.60	241.29
909.90	241.57
910.21	240.90
910.51	240.62
910.81	240.67
911.12	241.00
911.42	241.19
911.73	238.52
912.03	238.43
912.33	238.86
912.64	238.95
912.94	238.95
913.24	238.24
913.55	238.00
913.85	237.71
914.15	238.24
914.46	238.62
914.76	238.38
915.06	238.24
915.37	237.71
915.67	237.24
915.97	237.24
916.27	236.05
916.58	236.38
916.88	236.05
917.18	236.10
917.49	237.43
917.79	237.43
918.09	238.24
918.39	238.86
918.70	238.76
919.00	238.57
919.30	239.71
919.60	239.76
919.91	239.43
920.21	239.95
920.51	239.29
920.81	239.38
921.12	239.81
921.42	239.81
921.72	240.24
922.02	240.48
922.32	240.62
922.63	241.05
922.93	242.00
923.23	242.52
923.53	242.38
923.83	240.86
924.13	241.05
924.44	241.00
924.74	241.52
925.04	241.81
925.34	241.95
925.64	241.19
925.94	241.38
926.24	243.05
926.55	242.57
926.85	243.19
927.15	242.57
927.45	242.86
927.75	243.00
928.05	242.48
928.35	242.48
928.65	242.95
928.95	243.71
929.26	242.76
929.56	242.86
929.86	243.05
930.16	243.00
930.46	242.90
930.76	242.76
931.06	241.62
931.36	241.19
931.66	241.43
931.96	241.57
932.26	241.86
932.56	240.14
932.86	240.29
933.16	240.24
933.46	240.33
933.76	239.86
934.06	240.33
934.36	241.43
934.66	240.95
934.96	240.62
935.26	240.38
935.56	240.67
935.86	240.29
936.16	239.86
936.46	239.67
936.76	239.71
937.06	239.62
937.36	239.76
937.66	239.81
937.96	239.62
938.26	239.05
938.56	238.71
938.86	239.43
939.16	239.95
939.46	240.14
939.76	240.19
940.06	240.10
940.35	239.57
940.65	238.38
940.95	238.76
941.25	237.86
941.55	237.62
941.85	237.48
942.15	238.10
942.45	238.76
942.75	238.52
943.04	238.67
943.34	238.81
943.64	238.43
943.94	238.19
944.24	238.10
944.54	238.33
944.84	238.43
945.13	238.05
945.43	237.52
945.73	237.19
946.03	237.14
946.33	236.81
946.62	236.33
946.92	236.10
947.22	236.24
947.52	236.52
947.82	236.71
948.11	236.29
948.41	235.81
948.71	235.19
949.01	235.57
949.31	234.95
949.60	234.86
949.90	235.24
950.20	235.05
950.50	235.14
950.79	235.05
951.09	235.38
951.39	235.33
951.69	235.62
951.98	236.24
952.28	236.33
952.58	236.43
952.87	236.81
953.17	237.33
953.47	237.19
953.76	237.81
954.06	237.38
954.36	237.43
954.66	237.29
954.95	237.86
955.25	237.71
955.55	238.19
955.84	237.86
956.14	238.33
956.44	238.62
956.73	238.29
957.03	238.33
957.32	238.14
957.62	238.00
957.92	237.95
958.21	237.52
958.51	240.52
958.81	241.05
959.10	241.05
959.40	241.24
959.69	241.43
959.99	241.38
960.29	241.19
960.58	241.19
960.88	242.05
961.17	242.00
961.47	242.38
961.76	242.33
962.06	242.76
962.36	242.48
962.65	242.86
962.95	243.19
963.24	243.00
963.54	243.05
963.83	243.24
964.13	243.48
964.42	242.81
964.72	240.62
965.01	240.48
965.31	240.19
965.60	239.76
965.90	241.19
966.19	240.86
966.49	241.43
966.78	241.43
967.08	241.33
967.37	241.43
967.67	240.95
967.96	241.19
968.26	240.76
968.55	241.10
968.85	240.90
969.14	240.67
969.43	240.62
969.73	240.57
970.02	240.33
970.32	240.19
970.61	240.14
970.91	239.48
971.20	239.14
971.49	239.10
971.79	239.62
972.08	237.71
972.38	237.90
972.67	237.52
972.96	237.71
973.26	237.14
973.55	237.81
973.85	237.52
974.14	237.67
974.43	237.95
974.73	237.19
975.02	236.86
975.31	236.86
975.61	236.86
975.90	236.48
976.19	236.48
976.49	236.29
976.78	236.76
977.07	236.95
977.37	237.00
977.66	237.19
977.95	236.48
978.24	236.81
978.54	237.19
978.83	237.05
979.12	236.71
979.42	236.71
979.71	236.05
980.00	236.29
980.29	236.33
980.59	235.90
980.88	236.86
981.17	236.62
981.46	236.52
981.76	236.67
982.05	237.67
982.34	237.95
982.63	238.38
982.93	238.33
983.22	238.48
983.51	238.33
983.80	238.52
984.09	238.86
984.39	238.52
984.68	238.43
984.97	238.48
985.26	238.48
985.55	238.57
985.85	238.10
986.14	238.38
986.43	238.62
986.72	238.71
987.01	237.76
987.30	238.33
987.59	238.43
987.89	238.43
988.18	237.76
988.47	237.48
988.76	236.95
989.05	236.57
989.34	236.57
989.63	237.19
989.92	237.24
990.22	237.24
990.51	237.14
990.80	236.81
991.09	237.24
991.38	237.52
991.67	237.52
991.96	237.52
992.25	237.57
992.54	236.67
992.83	236.48
993.12	236.38
993.41	236.43
993.70	237.57
993.99	237.90
994.28	238.38
994.58	238.95
994.87	238.95
995.16	239.00
995.45	238.86
995.74	238.24
996.03	238.52
996.32	238.76
996.61	239.38
996.90	239.14
997.19	238.90
997.48	238.86
997.77	238.81
998.06	238.67
998.34	238.43
998.63	238.62
998.92	238.90
999.21	239.67
999.50	239.43
999.79	238.62
1000.08	238.52
1000.37	237.95
1000.66	237.43
1000.95	237.52
1001.24	237.52
1001.53	237.76
1001.82	237.81
1002.11	237.38
1002.40	237.19
1002.68	237.67
1002.97	239.71
1003.26	239.43
1003.55	239.10
1003.84	239.33
1004.13	240.48
1004.42	240.24
1004.71	240.10
1004.99	240.10
1005.28	240.00
1005.57	240.38
1005.86	239.76
1006.15	239.29
1006.44	239.14
1006.72	239.29
1007.01	239.14
1007.30	239.43
1007.59	239.00
1007.88	238.76
1008.17	238.71
1008.45	238.43
1008.74	237.43
1009.03	236.10
1009.32	236.29
1009.60	236.19
1009.89	235.76
1010.18	234.71
1010.47	234.90
1010.76	235.05
1011.04	235.10
1011.33	234.76
1011.62	234.57
1011.91	235.24
1012.19	235.71
1012.48	236.00
1012.77	235.95
1013.05	236.95
1013.34	237.10
1013.63	236.90
1013.92	237.38
1014.20	237.05
1014.49	237.33
1014.78	237.67
1015.06	236.67
1015.35	236.76
1015.64	237.43
1015.92	237.86
1016.21	237.95
1016.50	238.05
1016.78	238.48
1017.07	238.48
1017.36	238.86
1017.64	238.43
1017.93	238.33
1018.22	238.00
1018.50	237.86
1018.79	238.10
1019.08	237.19
1019.36	237.05
1019.65	236.90
1019.93	237.57
1020.22	237.76
1020.51	238.81
1020.79	238.52
1021.08	233.00
1021.36	234.00
1021.65	241.00
1021.94	236.00
1022.22	238.00
1022.51	231.00
1022.79	253.00
1023.08	233.00
1023.36	262.00
1023.65	232.00
>>>>>End Processed Spectral Data<<<<<
