SpectraSuite Data File
++++++++++++++++++++++++++++++++++++
Date: Wed Nov 07 18:33:11 EST 2012
User: group
Dark Spectrum Present: No
Reference Spectrum Present: No
Number of Sampled Component Spectra: 1
Spectrometers: USB2E7196
Integration Time (usec): 1000000 (USB2E7196)
Spectra Averaged: 1 (USB2E7196)
Boxcar Smoothing: 10 (USB2E7196)
Correct for Electrical Dark: No (USB2E7196)
Strobe/Lamp Enabled: No (USB2E7196)
Correct for Detector Non-linearity: No (USB2E7196)
Correct for Stray Light: No (USB2E7196)
Number of Pixels in Processed Spectrum: 2048
>>>>>Begin Processed Spectral Data<<<<<
339.09	0.00
339.48	217.00
339.86	217.00
340.24	220.00
340.63	222.00
341.01	260.00
341.39	226.00
341.78	230.00
342.16	234.00
342.54	229.00
342.93	221.10
343.31	231.86
343.69	232.33
344.07	233.19
344.46	234.10
344.84	234.76
345.22	233.33
345.60	233.86
345.99	234.19
346.37	234.05
346.75	234.48
347.13	234.52
347.52	234.67
347.90	235.52
348.28	235.62
348.66	236.14
349.05	235.62
349.43	236.19
349.81	236.52
350.19	236.90
350.57	237.05
350.96	237.52
351.34	238.00
351.72	238.29
352.10	238.19
352.48	237.76
352.87	237.76
353.25	238.00
353.63	237.90
354.01	237.95
354.39	238.57
354.77	238.38
355.15	239.24
355.54	238.95
355.92	238.52
356.30	238.43
356.68	240.00
357.06	240.24
357.44	239.81
357.82	239.71
358.20	239.95
358.58	240.10
358.97	240.24
359.35	240.76
359.73	241.19
360.11	241.38
360.49	241.95
360.87	242.10
361.25	242.33
361.63	243.10
362.01	243.05
362.39	242.76
362.77	243.29
363.15	242.81
363.53	242.67
363.91	242.71
364.29	242.67
364.67	240.38
365.05	240.52
365.43	240.57
365.81	241.14
366.19	242.05
366.57	243.05
366.95	242.71
367.33	242.24
367.71	242.57
368.09	242.90
368.47	242.90
368.85	242.81
369.23	243.62
369.61	242.95
369.99	243.62
370.37	243.76
370.75	244.48
371.13	244.24
371.51	244.00
371.89	244.43
372.27	244.48
372.65	244.52
373.03	244.57
373.41	244.43
373.78	243.90
374.16	242.57
374.54	241.38
374.92	241.05
375.30	240.95
375.68	240.19
376.06	240.33
376.44	240.05
376.82	240.38
377.19	239.90
377.57	239.81
377.95	238.90
378.33	238.81
378.71	237.48
379.09	237.90
379.47	238.14
379.84	237.43
380.22	237.52
380.60	237.00
380.98	236.67
381.36	236.67
381.73	236.57
382.11	237.05
382.49	237.38
382.87	237.14
383.25	237.10
383.62	240.00
384.00	239.38
384.38	239.38
384.76	239.52
385.13	240.38
385.51	240.48
385.89	240.33
386.27	240.33
386.64	240.67
387.02	240.05
387.40	239.90
387.78	240.24
388.15	240.24
388.53	240.57
388.91	240.86
389.29	240.76
389.66	240.95
390.04	240.76
390.42	241.05
390.79	241.48
391.17	241.62
391.55	238.86
391.92	239.00
392.30	239.38
392.68	238.95
393.05	238.57
393.43	238.52
393.81	239.14
394.18	238.90
394.56	238.90
394.94	239.67
395.31	239.62
395.69	240.29
396.06	240.71
396.44	240.57
396.82	240.24
397.19	241.71
397.57	241.62
397.95	242.19
398.32	241.48
398.70	241.24
399.07	242.10
399.45	242.29
399.82	242.57
400.20	242.29
400.58	242.29
400.95	241.38
401.33	241.95
401.70	243.29
402.08	243.38
402.45	243.76
402.83	244.24
403.20	244.43
403.58	244.14
403.95	244.71
404.33	245.62
404.71	245.76
405.08	247.05
405.46	247.86
405.83	247.81
406.21	248.14
406.58	248.86
406.96	248.90
407.33	249.62
407.70	250.19
408.08	252.76
408.45	253.62
408.83	255.05
409.20	255.62
409.58	255.10
409.95	256.71
410.33	257.43
410.70	257.71
411.08	259.14
411.45	260.48
411.82	261.29
412.20	262.57
412.57	265.24
412.95	264.52
413.32	266.00
413.69	267.81
414.07	270.24
414.44	272.43
414.82	274.38
415.19	276.81
415.56	279.19
415.94	280.24
416.31	283.19
416.68	285.71
417.06	289.33
417.43	293.52
417.81	296.86
418.18	301.00
418.55	305.19
418.93	309.33
419.30	313.52
419.67	318.00
420.04	322.90
420.42	327.38
420.79	334.90
421.16	340.95
421.54	348.48
421.91	354.95
422.28	360.90
422.66	367.81
423.03	376.00
423.40	383.00
423.77	390.05
424.15	397.52
424.52	405.90
424.89	413.71
425.26	421.24
425.64	428.95
426.01	437.05
426.38	444.95
426.75	454.24
427.13	463.48
427.50	472.90
427.87	482.57
428.24	492.48
428.61	500.90
428.99	512.33
429.36	522.05
429.73	532.14
430.10	544.05
430.47	556.19
430.85	566.62
431.22	579.67
431.59	595.38
431.96	607.90
432.33	622.38
432.70	636.29
433.08	652.67
433.45	668.14
433.82	683.38
434.19	700.76
434.56	717.62
434.93	733.10
435.30	748.24
435.68	765.52
436.05	781.76
436.42	797.71
436.79	812.62
437.16	829.48
437.53	847.57
437.90	864.00
438.27	880.43
438.64	897.86
439.01	913.29
439.38	925.10
439.75	938.67
440.13	953.86
440.50	968.48
440.87	979.90
441.24	991.95
441.61	1005.29
441.98	1015.10
442.35	1025.14
442.72	1036.43
443.09	1048.24
443.46	1054.14
443.83	1059.14
444.20	1063.33
444.57	1066.62
444.94	1068.67
445.31	1070.90
445.68	1075.76
446.05	1075.38
446.42	1071.57
446.79	1069.14
447.16	1065.29
447.53	1063.10
447.90	1054.71
448.27	1047.05
448.64	1037.19
449.01	1029.29
449.37	1017.19
449.74	1004.90
450.11	993.71
450.48	978.10
450.85	962.57
451.22	949.57
451.59	936.33
451.96	923.24
452.33	908.05
452.70	892.57
453.07	874.33
453.43	854.29
453.80	837.67
454.17	822.05
454.54	806.24
454.91	790.52
455.28	774.95
455.65	760.33
456.02	750.10
456.38	737.24
456.75	722.33
457.12	709.00
457.49	696.86
457.86	682.05
458.23	672.86
458.59	661.76
458.96	650.29
459.33	639.71
459.70	629.52
460.07	621.38
460.43	612.29
460.80	604.90
461.17	596.76
461.54	589.43
461.91	582.48
462.27	575.10
462.64	568.67
463.01	561.29
463.38	555.57
463.74	544.14
464.11	537.90
464.48	532.76
464.85	527.00
465.21	523.48
465.58	519.76
465.95	513.62
466.32	508.67
466.68	503.71
467.05	499.71
467.42	495.86
467.78	491.81
468.15	487.86
468.52	484.10
468.88	479.95
469.25	475.14
469.62	472.19
469.98	468.38
470.35	465.33
470.72	462.29
471.08	457.81
471.45	456.00
471.82	454.05
472.18	450.05
472.55	448.33
472.92	444.29
473.28	441.05
473.65	438.05
474.02	435.86
474.38	434.05
474.75	431.81
475.11	429.81
475.48	428.10
475.85	426.52
476.21	425.05
476.58	424.38
476.94	423.86
477.31	422.57
477.67	421.57
478.04	420.62
478.41	419.76
478.77	421.90
479.14	420.24
479.50	419.76
479.87	420.33
480.23	419.86
480.60	419.52
480.96	419.62
481.33	421.33
481.69	421.19
482.06	421.10
482.42	422.10
482.79	422.86
483.15	423.67
483.52	424.76
483.88	426.05
484.25	427.05
484.61	427.76
484.98	428.43
485.34	430.81
485.71	432.62
486.07	433.62
486.44	433.00
486.80	434.48
487.17	435.29
487.53	437.48
487.90	439.62
488.26	442.57
488.62	444.86
488.99	445.81
489.35	447.67
489.72	449.43
490.08	451.24
490.44	452.86
490.81	454.71
491.17	456.00
491.54	457.76
491.90	460.14
492.26	462.57
492.63	465.14
492.99	467.00
493.36	469.43
493.72	472.86
494.08	475.71
494.45	479.24
494.81	482.29
495.17	485.29
495.54	488.43
495.90	491.29
496.26	494.76
496.63	498.81
496.99	502.62
497.35	506.90
497.72	511.10
498.08	515.38
498.44	519.90
498.80	525.10
499.17	529.81
499.53	534.10
499.89	539.76
500.26	545.10
500.62	550.14
500.98	555.71
501.34	560.33
501.71	565.62
502.07	570.52
502.43	576.00
502.79	580.29
503.16	584.95
503.52	590.67
503.88	595.52
504.24	600.43
504.60	606.57
504.97	612.10
505.33	617.00
505.69	622.86
506.05	627.76
506.41	632.95
506.78	637.67
507.14	642.90
507.50	647.76
507.86	653.10
508.22	658.33
508.59	662.43
508.95	668.05
509.31	673.81
509.67	678.95
510.03	683.71
510.39	688.81
510.75	694.57
511.12	698.57
511.48	703.71
511.84	708.62
512.20	712.33
512.56	717.33
512.92	722.29
513.28	726.33
513.64	730.48
514.00	735.62
514.37	739.90
514.73	744.29
515.09	748.90
515.45	752.38
515.81	756.24
516.17	761.24
516.53	765.38
516.89	768.05
517.25	771.95
517.61	776.57
517.97	781.10
518.33	785.00
518.69	789.57
519.05	793.24
519.41	797.38
519.77	803.24
520.13	806.67
520.49	809.86
520.85	813.43
521.21	818.52
521.57	821.90
521.93	825.48
522.29	830.00
522.65	832.24
523.01	835.76
523.37	838.14
523.73	840.90
524.09	843.14
524.45	845.86
524.81	848.24
525.17	850.90
525.53	853.14
525.89	854.71
526.25	856.52
526.61	857.52
526.97	858.71
527.33	859.33
527.68	863.33
528.04	864.57
528.40	866.05
528.76	867.10
529.12	868.38
529.48	869.43
529.84	869.10
530.20	870.81
530.56	872.10
530.91	873.76
531.27	874.57
531.63	876.19
531.99	877.52
532.35	878.29
532.71	877.95
533.07	878.05
533.42	881.86
533.78	882.95
534.14	885.05
534.50	886.14
534.86	887.95
535.21	886.48
535.57	888.76
535.93	890.10
536.29	893.05
536.65	893.86
537.00	896.05
537.36	898.38
537.72	899.86
538.08	902.24
538.44	903.95
538.79	906.95
539.15	908.38
539.51	910.48
539.87	913.90
540.22	917.05
540.58	920.33
540.94	921.05
541.29	922.81
541.65	924.00
542.01	927.10
542.37	928.38
542.72	929.48
543.08	929.57
543.44	930.10
543.79	927.19
544.15	927.43
544.51	927.43
544.87	926.29
545.22	925.76
545.58	924.43
545.94	923.48
546.29	920.81
546.65	918.86
547.01	915.57
547.36	911.90
547.72	909.48
548.07	906.62
548.43	902.71
548.79	900.05
549.14	897.29
549.50	893.76
549.86	890.10
550.21	887.19
550.57	885.48
550.92	882.19
551.28	881.10
551.64	878.00
551.99	874.43
552.35	872.43
552.70	869.38
553.06	867.62
553.41	865.33
553.77	863.67
554.13	862.00
554.48	861.10
554.84	859.81
555.19	856.90
555.55	857.00
555.90	855.52
556.26	854.29
556.61	852.24
556.97	849.33
557.32	846.62
557.68	845.38
558.03	842.95
558.39	841.95
558.74	839.86
559.10	838.76
559.45	837.57
559.81	835.24
560.16	834.00
560.52	830.95
560.87	828.71
561.23	826.76
561.58	826.86
561.94	824.86
562.29	822.67
562.64	821.90
563.00	817.76
563.35	815.62
563.71	813.48
564.06	812.57
564.42	811.05
564.77	810.19
565.12	808.67
565.48	809.24
565.83	807.52
566.19	806.52
566.54	804.71
566.89	803.19
567.25	802.76
567.60	802.95
567.96	804.29
568.31	805.38
568.66	805.43
569.02	801.81
569.37	800.29
569.72	799.57
570.08	798.24
570.43	796.90
570.78	796.00
571.14	793.90
571.49	792.00
571.84	790.86
572.20	789.52
572.55	788.14
572.90	784.81
573.26	783.05
573.61	781.00
573.96	779.67
574.31	778.33
574.67	776.90
575.02	774.05
575.37	770.14
575.72	766.95
576.08	764.05
576.43	763.00
576.78	761.81
577.13	760.43
577.49	759.24
577.84	757.90
578.19	756.24
578.54	755.62
578.90	754.76
579.25	753.81
579.60	752.81
579.95	751.19
580.30	749.81
580.66	749.43
581.01	747.52
581.36	746.33
581.71	745.19
582.06	744.48
582.42	742.62
582.77	740.48
583.12	739.52
583.47	738.14
583.82	737.05
584.17	736.19
584.53	735.10
584.88	733.10
585.23	732.86
585.58	730.24
585.93	727.67
586.28	725.62
586.63	723.19
586.98	720.90
587.34	719.05
587.69	716.38
588.04	713.95
588.39	712.05
588.74	708.52
589.09	706.38
589.44	702.24
589.79	700.00
590.14	697.76
590.49	694.10
590.84	690.57
591.19	687.19
591.54	684.10
591.89	680.05
592.25	678.38
592.60	674.14
592.95	671.95
593.30	669.86
593.65	666.90
594.00	664.10
594.35	667.86
594.70	664.71
595.05	662.05
595.40	658.62
595.75	655.71
596.10	654.14
596.45	650.81
596.80	648.24
597.15	645.14
597.50	642.19
597.85	640.29
598.19	637.76
598.54	634.76
598.89	630.90
599.24	629.29
599.59	625.38
599.94	622.81
600.29	619.76
600.64	617.33
600.99	615.43
601.34	613.81
601.69	605.19
602.04	603.14
602.39	600.86
602.74	599.00
603.08	596.57
603.43	594.95
603.78	593.00
604.13	590.33
604.48	589.14
604.83	588.00
605.18	587.24
605.53	587.67
605.87	589.86
606.22	594.05
606.57	598.14
606.92	603.10
607.27	608.76
607.62	614.24
607.96	618.71
608.31	622.43
608.66	626.00
609.01	629.14
609.36	631.95
609.70	635.43
610.05	637.90
610.40	641.05
610.75	642.38
611.10	644.52
611.44	646.14
611.79	646.00
612.14	646.90
612.49	645.00
612.83	642.90
613.18	638.19
613.53	632.29
613.88	624.57
614.22	616.76
614.57	607.67
614.92	599.00
615.27	591.90
615.61	585.05
615.96	577.81
616.31	570.81
616.65	565.67
617.00	559.38
617.35	552.95
617.70	547.05
618.04	541.62
618.39	535.81
618.74	531.90
619.08	528.43
619.43	524.19
619.78	520.86
620.12	517.29
620.47	515.24
620.82	512.19
621.16	509.52
621.51	507.95
621.85	505.76
622.20	503.95
622.55	500.38
622.89	497.43
623.24	495.48
623.59	492.81
623.93	489.95
624.28	487.57
624.62	488.24
624.97	487.52
625.32	485.43
625.66	483.81
626.01	481.95
626.35	479.62
626.70	477.43
627.04	477.24
627.39	475.71
627.73	474.81
628.08	473.48
628.43	471.76
628.77	468.38
629.12	466.29
629.46	464.33
629.81	462.90
630.15	461.19
630.50	458.52
630.84	456.95
631.19	454.90
631.53	453.05
631.88	448.14
632.22	444.71
632.57	443.19
632.91	441.00
633.26	438.29
633.60	435.90
633.95	434.19
634.29	429.90
634.64	427.71
634.98	424.14
635.32	422.33
635.67	420.43
636.01	418.86
636.36	417.05
636.70	415.43
637.05	413.43
637.39	411.48
637.73	409.67
638.08	409.24
638.42	407.00
638.77	405.24
639.11	404.14
639.45	402.24
639.80	400.19
640.14	398.67
640.49	397.43
640.83	396.19
641.17	394.38
641.52	393.00
641.86	392.33
642.20	392.24
642.55	389.90
642.89	388.29
643.23	387.38
643.58	387.38
643.92	385.62
644.26	384.67
644.61	383.62
644.95	383.00
645.29	380.57
645.64	381.19
645.98	380.24
646.32	379.52
646.66	378.57
647.01	377.52
647.35	377.10
647.69	377.00
648.04	376.19
648.38	375.43
648.72	374.86
649.06	373.00
649.41	371.10
649.75	370.48
650.09	370.00
650.43	368.86
650.78	366.86
651.12	366.00
651.46	364.19
651.80	362.62
652.14	361.29
652.49	361.05
652.83	358.67
653.17	357.14
653.51	355.24
653.85	354.38
654.20	353.24
654.54	351.67
654.88	349.24
655.22	347.76
655.56	345.86
655.90	344.33
656.25	343.24
656.59	342.38
656.93	341.52
657.27	341.29
657.61	339.90
657.95	339.48
658.29	338.33
658.64	338.81
658.98	338.33
659.32	337.48
659.66	336.24
660.00	336.24
660.34	335.81
660.68	335.62
661.02	334.81
661.36	333.90
661.70	332.86
662.05	332.57
662.39	332.67
662.73	333.38
663.07	334.57
663.41	334.38
663.75	333.29
664.09	332.62
664.43	331.24
664.77	330.71
665.11	329.57
665.45	329.10
665.79	327.81
666.13	327.05
666.47	326.10
666.81	325.52
667.15	323.95
667.49	323.10
667.83	323.00
668.17	321.71
668.51	321.19
668.85	320.67
669.19	320.43
669.53	318.95
669.87	317.29
670.21	315.24
670.55	314.43
670.89	314.86
671.23	314.24
671.57	313.29
671.91	312.95
672.25	312.43
672.58	313.19
672.92	312.14
673.26	311.86
673.60	311.86
673.94	311.05
674.28	310.90
674.62	311.05
674.96	309.81
675.30	309.95
675.64	309.62
675.97	308.76
676.31	308.05
676.65	307.29
676.99	307.95
677.33	307.14
677.67	306.62
678.01	305.10
678.34	304.57
678.68	304.90
679.02	304.14
679.36	303.62
679.70	301.86
680.04	302.00
680.37	301.57
680.71	300.71
681.05	300.14
681.39	299.71
681.73	299.10
682.06	299.05
682.40	298.29
682.74	297.76
683.08	298.67
683.42	297.86
683.75	298.48
684.09	297.52
684.43	297.38
684.77	296.90
685.10	296.95
685.44	296.52
685.78	295.81
686.12	295.33
686.45	294.71
686.79	294.38
687.13	294.00
687.46	293.10
687.80	293.43
688.14	293.19
688.48	292.67
688.81	292.33
689.15	292.33
689.49	292.19
689.82	292.43
690.16	291.00
690.50	290.48
690.83	289.43
691.17	288.38
691.51	287.95
691.84	287.57
692.18	286.57
692.52	286.33
692.85	285.86
693.19	286.29
693.52	285.76
693.86	285.10
694.20	284.81
694.53	284.81
694.87	283.67
695.21	283.00
695.54	282.76
695.88	281.76
696.21	280.48
696.55	280.10
696.88	278.90
697.22	278.33
697.56	278.71
697.89	278.38
698.23	278.38
698.56	278.00
698.90	278.24
699.23	277.95
699.57	277.76
699.90	277.48
700.24	276.71
700.58	277.05
700.91	277.71
701.25	279.43
701.58	280.05
701.92	280.90
702.25	281.48
702.59	281.29
702.92	281.76
703.26	282.86
703.59	283.19
703.93	285.95
704.26	287.14
704.60	287.62
704.93	287.90
705.26	288.29
705.60	289.10
705.93	288.81
706.27	289.90
706.60	290.62
706.94	292.14
707.27	292.19
707.61	292.52
707.94	292.33
708.27	290.71
708.61	290.14
708.94	289.57
709.28	289.10
709.61	288.62
709.94	288.52
710.28	287.81
710.61	287.14
710.95	284.29
711.28	284.67
711.61	283.24
711.95	282.90
712.28	281.48
712.61	280.05
712.95	280.48
713.28	280.86
713.61	279.62
713.95	277.76
714.28	276.95
714.61	275.76
714.95	274.95
715.28	273.52
715.61	272.57
715.95	272.05
716.28	271.48
716.61	271.48
716.95	270.33
717.28	269.38
717.61	268.95
717.94	268.29
718.28	265.62
718.61	265.33
718.94	264.62
719.27	264.48
719.61	264.48
719.94	263.24
720.27	261.38
720.60	260.86
720.94	260.57
721.27	260.19
721.60	260.43
721.93	260.14
722.27	260.62
722.60	260.48
722.93	260.00
723.26	259.86
723.59	259.38
723.93	259.43
724.26	259.81
724.59	259.38
724.92	259.52
725.25	260.43
725.59	260.10
725.92	260.38
726.25	260.52
726.58	260.48
726.91	260.38
727.24	260.48
727.57	260.33
727.91	259.62
728.24	259.90
728.57	259.38
728.90	259.52
729.23	258.67
729.56	259.90
729.89	259.67
730.22	259.43
730.55	259.10
730.89	258.81
731.22	258.43
731.55	258.43
731.88	258.24
732.21	257.90
732.54	258.00
732.87	257.71
733.20	257.33
733.53	257.57
733.86	257.62
734.19	257.00
734.52	257.38
734.85	259.19
735.18	258.86
735.51	259.90
735.84	259.67
736.17	260.43
736.50	258.62
736.83	261.67
737.16	261.52
737.49	261.57
737.82	261.52
738.15	261.76
738.48	261.76
738.81	261.67
739.14	261.14
739.47	260.86
739.80	260.43
740.13	260.71
740.46	260.29
740.79	259.81
741.12	260.00
741.45	259.14
741.78	257.33
742.11	258.00
742.44	256.95
742.77	257.57
743.10	256.81
743.43	256.95
743.75	254.14
744.08	257.48
744.41	257.38
744.74	256.95
745.07	255.90
745.40	255.76
745.73	256.62
746.06	256.71
746.39	257.10
746.71	256.86
747.04	256.43
747.37	256.19
747.70	256.76
748.03	256.86
748.36	257.10
748.68	257.43
749.01	256.33
749.34	256.38
749.67	255.76
750.00	256.05
750.33	257.71
750.65	258.38
750.98	254.81
751.31	254.52
751.64	254.86
751.97	256.52
752.29	256.62
752.62	255.43
752.95	255.33
753.28	254.95
753.60	255.00
753.93	255.43
754.26	255.38
754.59	254.62
754.91	254.24
755.24	254.24
755.57	253.81
755.90	253.95
756.22	253.76
756.55	253.57
756.88	253.05
757.20	251.57
757.53	250.33
757.86	250.33
758.19	250.62
758.51	250.67
758.84	249.29
759.17	249.14
759.49	249.52
759.82	250.67
760.15	250.43
760.47	250.10
760.80	249.33
761.13	249.33
761.45	249.05
761.78	249.14
762.11	249.24
762.43	248.86
762.76	248.48
763.08	248.57
763.41	248.43
763.74	248.43
764.06	248.24
764.39	248.33
764.71	248.38
765.04	247.90
765.37	247.57
765.69	247.38
766.02	247.05
766.34	246.48
766.67	245.29
767.00	245.62
767.32	247.19
767.65	248.67
767.97	248.57
768.30	248.52
768.62	248.24
768.95	247.86
769.27	248.05
769.60	248.67
769.92	247.95
770.25	247.48
770.57	247.10
770.90	247.00
771.22	246.38
771.55	246.19
771.87	246.05
772.20	245.67
772.52	247.81
772.85	250.86
773.17	250.95
773.50	250.57
773.82	250.43
774.15	249.10
774.47	247.62
774.80	247.38
775.12	247.43
775.45	247.33
775.77	247.24
776.09	247.43
776.42	247.00
776.74	247.86
777.07	247.95
777.39	247.95
777.72	247.57
778.04	247.86
778.36	247.76
778.69	248.10
779.01	248.38
779.33	245.90
779.66	243.05
779.98	242.90
780.31	243.10
780.63	244.05
780.95	244.67
781.28	244.52
781.60	244.33
781.92	244.33
782.25	244.29
782.57	244.43
782.89	244.38
783.22	244.52
783.54	244.05
783.86	244.10
784.19	244.24
784.51	245.05
784.83	244.95
785.16	245.00
785.48	244.71
785.80	245.00
786.12	245.43
786.45	245.29
786.77	245.14
787.09	245.10
787.42	243.90
787.74	243.71
788.06	243.67
788.38	243.43
788.71	243.19
789.03	243.38
789.35	243.48
789.67	242.95
789.99	243.10
790.32	242.71
790.64	243.24
790.96	245.38
791.28	244.38
791.61	244.38
791.93	244.29
792.25	244.29
792.57	245.57
792.89	245.14
793.21	245.24
793.54	245.00
793.86	244.95
794.18	245.29
794.50	244.86
794.82	245.24
795.14	245.86
795.47	246.48
795.79	246.76
796.11	246.48
796.43	246.62
796.75	246.57
797.07	246.90
797.39	246.62
797.71	244.71
798.04	245.24
798.36	245.52
798.68	245.48
799.00	245.86
799.32	244.67
799.64	245.33
799.96	245.24
800.28	246.10
800.60	245.86
800.92	245.86
801.24	245.81
801.56	245.48
801.89	245.10
802.21	245.05
802.53	244.43
802.85	244.90
803.17	245.86
803.49	245.33
803.81	245.29
804.13	245.19
804.45	244.76
804.77	244.71
805.09	244.67
805.41	244.48
805.73	243.90
806.05	243.43
806.37	243.48
806.69	243.52
807.01	243.38
807.33	243.52
807.65	243.05
807.97	244.33
808.28	244.38
808.60	244.52
808.92	244.05
809.24	245.62
809.56	244.86
809.88	243.95
810.20	243.81
810.52	243.86
810.84	243.52
811.16	243.67
811.48	243.38
811.80	244.10
812.12	244.05
812.43	244.43
812.75	244.67
813.07	244.10
813.39	244.29
813.71	243.76
814.03	243.43
814.35	243.43
814.67	241.95
814.98	242.00
815.30	242.00
815.62	241.76
815.94	239.62
816.26	240.90
816.58	240.67
816.89	241.00
817.21	240.33
817.53	240.38
817.85	240.19
818.17	240.29
818.48	239.29
818.80	239.38
819.12	239.14
819.44	238.71
819.76	238.62
820.07	238.43
820.39	238.43
820.71	238.71
821.03	238.86
821.34	238.86
821.66	239.33
821.98	239.38
822.30	239.33
822.61	241.33
822.93	240.29
823.25	240.24
823.57	240.14
823.88	241.19
824.20	241.14
824.52	241.90
824.83	241.95
825.15	241.95
825.47	242.24
825.79	242.52
826.10	242.43
826.42	242.48
826.74	242.57
827.05	242.81
827.37	243.10
827.69	242.67
828.00	242.81
828.32	242.33
828.64	242.48
828.95	244.10
829.27	243.33
829.58	243.10
829.90	243.52
830.22	243.48
830.53	242.57
830.85	242.57
831.17	241.57
831.48	241.62
831.80	241.90
832.11	241.81
832.43	241.48
832.75	241.43
833.06	242.57
833.38	241.90
833.69	241.62
834.01	241.52
834.32	241.81
834.64	241.62
834.96	241.76
835.27	241.52
835.59	240.52
835.90	239.95
836.22	240.14
836.53	239.67
836.85	239.81
837.16	242.43
837.48	242.38
837.79	243.10
838.11	242.95
838.42	242.86
838.74	243.38
839.05	243.48
839.37	243.48
839.68	242.05
840.00	241.95
840.31	242.38
840.63	242.24
840.94	242.00
841.26	241.71
841.57	241.86
841.88	241.90
842.20	241.33
842.51	241.33
842.83	241.43
843.14	243.71
843.46	243.67
843.77	242.14
844.08	242.10
844.40	241.52
844.71	241.14
845.03	240.67
845.34	240.33
845.65	239.90
845.97	240.05
846.28	240.52
846.60	241.05
846.91	240.67
847.22	240.48
847.54	240.90
847.85	241.05
848.16	240.86
848.48	240.57
848.79	241.52
849.10	241.62
849.42	241.71
849.73	239.43
850.04	239.38
850.36	238.71
850.67	239.05
850.98	238.95
851.30	239.52
851.61	239.71
851.92	239.48
852.23	240.52
852.55	240.71
852.86	240.57
853.17	240.48
853.49	240.71
853.80	241.43
854.11	241.86
854.42	242.19
854.74	241.86
855.05	242.00
855.36	241.14
855.67	241.57
855.99	241.62
856.30	244.67
856.61	244.57
856.92	244.62
857.23	244.48
857.55	244.67
857.86	244.43
858.17	244.57
858.48	244.05
858.79	243.57
859.11	243.86
859.42	243.86
859.73	243.43
860.04	243.67
860.35	243.10
860.66	242.10
860.98	242.14
861.29	242.57
861.60	242.33
861.91	242.71
862.22	242.10
862.53	241.71
862.84	238.62
863.16	239.33
863.47	239.00
863.78	238.90
864.09	239.29
864.40	239.57
864.71	239.71
865.02	240.33
865.33	239.86
865.64	239.24
865.95	239.19
866.27	240.90
866.58	240.38
866.89	240.62
867.20	240.62
867.51	240.14
867.82	239.76
868.13	240.29
868.44	239.71
868.75	240.14
869.06	240.29
869.37	240.62
869.68	239.48
869.99	239.57
870.30	239.33
870.61	239.52
870.92	239.14
871.23	238.95
871.54	239.29
871.85	239.90
872.16	240.48
872.47	240.24
872.78	238.86
873.09	239.05
873.40	238.71
873.71	239.14
874.02	239.33
874.33	239.19
874.64	238.81
874.95	239.48
875.26	238.95
875.56	238.90
875.87	238.67
876.18	238.81
876.49	241.33
876.80	241.81
877.11	241.00
877.42	241.00
877.73	241.14
878.04	240.57
878.35	240.62
878.66	240.29
878.96	240.10
879.27	240.00
879.58	239.81
879.89	239.52
880.20	239.95
880.51	240.14
880.82	240.38
881.12	240.43
881.43	239.57
881.74	239.67
882.05	239.52
882.36	240.05
882.67	240.05
882.97	237.76
883.28	237.38
883.59	237.48
883.90	237.81
884.21	237.95
884.51	237.90
884.82	237.05
885.13	237.24
885.44	237.14
885.74	237.14
886.05	237.38
886.36	237.67
886.67	236.95
886.98	238.05
887.28	237.95
887.59	238.19
887.90	238.33
888.20	238.29
888.51	238.71
888.82	237.95
889.13	238.62
889.43	240.24
889.74	240.05
890.05	240.05
890.35	239.57
890.66	239.33
890.97	239.10
891.28	239.24
891.58	239.19
891.89	239.71
892.20	239.62
892.50	239.29
892.81	239.29
893.12	239.24
893.42	237.71
893.73	237.86
894.04	237.67
894.34	238.00
894.65	237.62
894.95	237.33
895.26	237.52
895.57	238.81
895.87	236.29
896.18	237.00
896.48	236.95
896.79	237.10
897.10	237.43
897.40	237.62
897.71	238.10
898.01	237.71
898.32	237.81
898.63	237.90
898.93	238.14
899.24	237.86
899.54	237.86
899.85	237.81
900.15	237.71
900.46	237.95
900.76	237.90
901.07	237.90
901.38	237.76
901.68	238.33
901.99	236.67
902.29	237.10
902.60	236.71
902.90	237.00
903.21	236.81
903.51	236.43
903.82	236.95
904.12	236.95
904.43	237.43
904.73	237.29
905.03	237.19
905.34	239.10
905.64	239.29
905.95	239.38
906.25	239.67
906.56	239.76
906.86	239.81
907.17	239.81
907.47	240.00
907.77	239.81
908.08	239.00
908.38	239.43
908.69	239.95
908.99	240.48
909.30	240.24
909.60	240.48
909.90	240.62
910.21	240.00
910.51	239.52
910.81	239.29
911.12	239.48
911.42	239.86
911.73	237.52
912.03	237.76
912.33	238.24
912.64	238.19
912.94	237.90
913.24	237.29
913.55	237.43
913.85	237.62
914.15	238.48
914.46	239.00
914.76	238.38
915.06	238.19
915.37	237.76
915.67	237.76
915.97	237.76
916.27	237.33
916.58	237.38
916.88	237.19
917.18	237.24
917.49	238.81
917.79	238.67
918.09	239.33
918.39	239.90
918.70	239.52
919.00	239.67
919.30	240.81
919.60	240.76
919.91	240.14
920.21	240.10
920.51	239.43
920.81	239.05
921.12	239.57
921.42	239.38
921.72	239.71
922.02	239.62
922.32	240.10
922.63	240.19
922.93	241.24
923.23	241.57
923.53	241.29
923.83	239.62
924.13	239.71
924.44	239.38
924.74	239.71
925.04	240.43
925.34	240.43
925.64	239.52
925.94	239.71
926.24	241.67
926.55	241.67
926.85	241.81
927.15	242.10
927.45	241.76
927.75	241.76
928.05	241.05
928.35	241.24
928.65	241.71
928.95	242.00
929.26	241.29
929.56	241.76
929.86	242.24
930.16	241.76
930.46	241.38
930.76	241.71
931.06	240.67
931.36	239.86
931.66	240.10
931.96	240.43
932.26	240.29
932.56	239.00
932.86	239.10
933.16	238.95
933.46	238.90
933.76	238.76
934.06	239.33
934.36	240.52
934.66	240.43
934.96	239.86
935.26	239.81
935.56	239.86
935.86	239.05
936.16	238.76
936.46	238.76
936.76	238.90
937.06	238.57
937.36	238.67
937.66	238.90
937.96	238.81
938.26	238.24
938.56	238.29
938.86	238.43
939.16	238.81
939.46	239.33
939.76	239.24
940.06	239.57
940.35	238.76
940.65	237.76
940.95	237.76
941.25	237.14
941.55	237.10
941.85	237.19
942.15	237.95
942.45	238.76
942.75	238.76
943.04	238.76
943.34	239.10
943.64	238.81
943.94	238.38
944.24	238.48
944.54	238.62
944.84	238.48
945.13	237.81
945.43	237.57
945.73	237.38
946.03	237.38
946.33	236.95
946.62	236.76
946.92	236.62
947.22	236.90
947.52	236.86
947.82	237.29
948.11	236.95
948.41	236.48
948.71	235.52
949.01	236.14
949.31	236.00
949.60	235.95
949.90	236.29
950.20	236.19
950.50	235.67
950.79	235.52
951.09	235.86
951.39	236.05
951.69	235.76
951.98	236.33
952.28	236.57
952.58	236.48
952.87	236.52
953.17	237.00
953.47	236.71
953.76	237.19
954.06	236.76
954.36	236.76
954.66	236.76
954.95	237.62
955.25	237.19
955.55	237.19
955.84	237.05
956.14	237.19
956.44	237.57
956.73	237.71
957.03	237.81
957.32	237.86
957.62	237.81
957.92	238.48
958.21	238.14
958.51	241.00
958.81	241.24
959.10	241.71
959.40	241.86
959.69	242.19
959.99	242.14
960.29	241.90
960.58	241.57
960.88	242.57
961.17	242.10
961.47	242.57
961.76	242.48
962.06	242.57
962.36	242.43
962.65	242.38
962.95	242.71
963.24	242.48
963.54	242.33
963.83	242.76
964.13	242.24
964.42	241.52
964.72	239.33
965.01	239.48
965.31	239.00
965.60	238.76
965.90	240.05
966.19	239.43
966.49	239.52
966.78	239.62
967.08	239.10
967.37	238.81
967.67	238.33
967.96	239.14
968.26	238.86
968.55	239.19
968.85	239.19
969.14	238.95
969.43	239.14
969.73	239.33
970.02	238.90
970.32	238.81
970.61	238.90
970.91	237.95
971.20	237.71
971.49	238.10
971.79	238.57
972.08	236.81
972.38	237.38
972.67	237.52
972.96	237.81
973.26	237.57
973.55	238.57
973.85	238.52
974.14	238.05
974.43	238.71
974.73	238.10
975.02	237.95
975.31	238.00
975.61	237.71
975.90	237.57
976.19	237.67
976.49	238.10
976.78	238.29
977.07	238.19
977.37	238.62
977.66	238.57
977.95	237.86
978.24	238.38
978.54	238.90
978.83	238.62
979.12	238.81
979.42	238.52
979.71	237.86
980.00	237.86
980.29	237.90
980.59	237.33
980.88	237.95
981.17	237.76
981.46	237.71
981.76	237.76
982.05	238.38
982.34	238.29
982.63	238.24
982.93	238.14
983.22	239.00
983.51	238.90
983.80	239.33
984.09	239.71
984.39	239.33
984.68	238.62
984.97	238.57
985.26	237.81
985.55	238.33
985.85	238.00
986.14	238.43
986.43	238.76
986.72	238.86
987.01	238.19
987.30	238.19
987.59	238.00
987.89	238.29
988.18	237.62
988.47	237.33
988.76	236.81
989.05	236.86
989.34	236.62
989.63	237.14
989.92	236.76
990.22	236.57
990.51	236.67
990.80	236.57
991.09	236.81
991.38	237.43
991.67	237.24
991.96	237.14
992.25	237.14
992.54	236.57
992.83	236.48
993.12	236.48
993.41	237.05
993.70	238.14
993.99	238.38
994.28	238.76
994.58	239.14
994.87	238.81
995.16	238.76
995.45	238.48
995.74	237.67
996.03	238.19
996.32	238.62
996.61	238.95
996.90	239.00
997.19	239.05
997.48	238.90
997.77	238.43
998.06	238.43
998.34	238.19
998.63	238.57
998.92	238.24
999.21	238.62
999.50	238.57
999.79	237.76
1000.08	237.76
1000.37	237.67
1000.66	237.43
1000.95	238.24
1001.24	238.14
1001.53	238.71
1001.82	238.76
1002.11	238.05
1002.40	238.10
1002.68	238.48
1002.97	240.29
1003.26	240.00
1003.55	240.00
1003.84	240.48
1004.13	241.24
1004.42	241.10
1004.71	240.81
1004.99	240.86
1005.28	241.10
1005.57	240.76
1005.86	240.57
1006.15	240.29
1006.44	239.90
1006.72	240.48
1007.01	240.29
1007.30	240.57
1007.59	239.81
1007.88	239.62
1008.17	240.05
1008.45	239.33
1008.74	238.48
1009.03	237.43
1009.32	237.57
1009.60	237.29
1009.89	237.10
1010.18	236.14
1010.47	236.10
1010.76	236.14
1011.04	236.24
1011.33	236.00
1011.62	236.52
1011.91	236.71
1012.19	237.05
1012.48	236.95
1012.77	236.81
1013.05	237.81
1013.34	237.81
1013.63	238.19
1013.92	238.43
1014.20	238.29
1014.49	238.38
1014.78	238.76
1015.06	237.81
1015.35	237.57
1015.64	238.00
1015.92	238.19
1016.21	238.52
1016.50	238.52
1016.78	238.90
1017.07	239.10
1017.36	239.00
1017.64	238.52
1017.93	238.52
1018.22	238.19
1018.50	238.19
1018.79	237.76
1019.08	236.62
1019.36	236.86
1019.65	236.57
1019.93	237.00
1020.22	236.90
1020.51	238.57
1020.79	238.10
1021.08	234.00
1021.36	231.00
1021.65	232.00
1021.94	235.00
1022.22	244.00
1022.51	238.00
1022.79	245.00
1023.08	236.00
1023.36	271.00
1023.65	230.00
>>>>>End Processed Spectral Data<<<<<
