SpectraSuite Data File
++++++++++++++++++++++++++++++++++++
Date: Wed Nov 07 18:32:43 EST 2012
User: group
Dark Spectrum Present: No
Reference Spectrum Present: No
Number of Sampled Component Spectra: 1
Spectrometers: USB2E7196
Integration Time (usec): 1000000 (USB2E7196)
Spectra Averaged: 1 (USB2E7196)
Boxcar Smoothing: 10 (USB2E7196)
Correct for Electrical Dark: No (USB2E7196)
Strobe/Lamp Enabled: No (USB2E7196)
Correct for Detector Non-linearity: No (USB2E7196)
Correct for Stray Light: No (USB2E7196)
Number of Pixels in Processed Spectrum: 2048
>>>>>Begin Processed Spectral Data<<<<<
339.09	0.00
339.48	220.00
339.86	221.00
340.24	218.00
340.63	219.00
341.01	259.00
341.39	232.00
341.78	233.00
342.16	235.00
342.54	232.00
342.93	221.76
343.31	232.86
343.69	233.43
344.07	234.05
344.46	234.86
344.84	235.71
345.22	234.71
345.60	234.95
345.99	235.14
346.37	235.14
346.75	235.29
347.13	235.33
347.52	235.43
347.90	236.19
348.28	236.19
348.66	236.62
349.05	235.86
349.43	236.29
349.81	237.14
350.19	237.14
350.57	237.29
350.96	238.10
351.34	238.24
351.72	238.48
352.10	238.52
352.48	238.71
352.87	238.71
353.25	238.52
353.63	238.43
354.01	238.33
354.39	238.90
354.77	239.33
355.15	240.10
355.54	240.19
355.92	239.62
356.30	239.48
356.68	241.43
357.06	241.81
357.44	241.76
357.82	241.29
358.20	241.90
358.58	241.90
358.97	242.24
359.35	242.90
359.73	243.24
360.11	243.24
360.49	243.57
360.87	243.48
361.25	243.95
361.63	245.00
362.01	245.43
362.39	245.24
362.77	245.43
363.15	245.43
363.53	245.52
363.91	245.95
364.29	246.14
364.67	243.62
365.05	243.76
365.43	243.71
365.81	244.05
366.19	245.05
366.57	245.90
366.95	245.67
367.33	244.90
367.71	244.95
368.09	245.52
368.47	245.33
368.85	245.52
369.23	245.95
369.61	244.67
369.99	245.24
370.37	245.24
370.75	245.81
371.13	245.38
371.51	245.10
371.89	245.05
372.27	245.05
372.65	245.24
373.03	245.38
373.41	245.48
373.78	245.48
374.16	244.14
374.54	243.14
374.92	242.86
375.30	243.19
375.68	242.52
376.06	242.57
376.44	242.38
376.82	242.29
377.19	241.95
377.57	242.57
377.95	241.90
378.33	241.76
378.71	240.43
379.09	240.81
379.47	241.10
379.84	240.57
380.22	240.14
380.60	239.57
380.98	239.00
381.36	238.81
381.73	238.14
382.11	238.76
382.49	239.14
382.87	238.71
383.25	238.71
383.62	241.71
384.00	240.90
384.38	240.90
384.76	241.90
385.13	242.67
385.51	242.14
385.89	241.62
386.27	241.48
386.64	241.67
387.02	241.00
387.40	240.76
387.78	241.00
388.15	241.86
388.53	241.71
388.91	241.76
389.29	241.57
389.66	242.05
390.04	241.38
390.42	241.38
390.79	241.67
391.17	241.57
391.55	238.95
391.92	239.43
392.30	239.57
392.68	238.52
393.05	238.38
393.43	238.67
393.81	238.90
394.18	238.90
394.56	239.33
394.94	240.29
395.31	240.33
395.69	241.14
396.06	240.90
396.44	241.33
396.82	241.48
397.19	242.71
397.57	242.43
397.95	243.00
398.32	242.52
398.70	242.86
399.07	243.19
399.45	243.33
399.82	243.10
400.20	242.95
400.58	242.95
400.95	242.29
401.33	242.67
401.70	244.62
402.08	244.52
402.45	244.57
402.83	244.81
403.20	244.90
403.58	244.90
403.95	245.52
404.33	245.76
404.71	246.05
405.08	247.48
405.46	248.29
405.83	248.81
406.21	249.33
406.58	249.67
406.96	249.52
407.33	249.90
407.70	250.86
408.08	253.24
408.45	254.14
408.83	255.38
409.20	255.71
409.58	255.05
409.95	256.38
410.33	257.24
410.70	257.43
411.08	258.95
411.45	259.81
411.82	260.62
412.20	262.52
412.57	265.29
412.95	264.52
413.32	266.10
413.69	267.24
414.07	269.14
414.44	270.76
414.82	273.43
415.19	276.05
415.56	278.24
415.94	279.00
416.31	281.86
416.68	284.19
417.06	288.00
417.43	291.43
417.81	295.24
418.18	299.43
418.55	303.57
418.93	307.24
419.30	311.62
419.67	316.38
420.04	320.86
420.42	324.62
420.79	332.67
421.16	338.57
421.54	345.62
421.91	351.48
422.28	358.43
422.66	365.24
423.03	373.43
423.40	380.57
423.77	387.86
424.15	395.00
424.52	402.81
424.89	411.43
425.26	419.38
425.64	426.95
426.01	434.86
426.38	443.38
426.75	453.10
427.13	462.10
427.50	471.43
427.87	481.71
428.24	491.43
428.61	499.10
428.99	510.48
429.36	521.10
429.73	532.48
430.10	543.57
430.47	555.14
430.85	565.19
431.22	577.81
431.59	594.05
431.96	607.24
432.33	621.95
432.70	635.95
433.08	652.24
433.45	667.33
433.82	682.62
434.19	700.10
434.56	716.14
434.93	731.52
435.30	747.33
435.68	763.76
436.05	781.10
436.42	798.00
436.79	813.90
437.16	831.38
437.53	848.57
437.90	865.24
438.27	882.48
438.64	899.76
439.01	915.62
439.38	927.19
439.75	941.29
440.13	955.67
440.50	969.29
440.87	981.19
441.24	993.14
441.61	1006.57
441.98	1015.10
442.35	1026.43
442.72	1038.29
443.09	1049.33
443.46	1055.71
443.83	1059.24
444.20	1062.29
444.57	1065.90
444.94	1066.86
445.31	1069.10
445.68	1073.95
446.05	1072.81
446.42	1068.86
446.79	1066.10
447.16	1062.10
447.53	1059.24
447.90	1051.81
448.27	1044.00
448.64	1033.71
449.01	1026.38
449.37	1013.33
449.74	1002.10
450.11	990.90
450.48	975.05
450.85	958.57
451.22	945.00
451.59	933.19
451.96	920.33
452.33	903.86
452.70	888.71
453.07	871.52
453.43	851.10
453.80	835.52
454.17	821.14
454.54	806.33
454.91	791.24
455.28	775.43
455.65	761.00
456.02	751.24
456.38	738.52
456.75	723.71
457.12	711.43
457.49	698.95
457.86	683.81
458.23	674.71
458.59	663.95
458.96	653.14
459.33	641.95
459.70	632.14
460.07	624.71
460.43	616.00
460.80	607.76
461.17	599.67
461.54	591.57
461.91	583.81
462.27	575.48
462.64	568.57
463.01	561.86
463.38	556.14
463.74	544.95
464.11	538.62
464.48	532.67
464.85	527.19
465.21	523.10
465.58	518.86
465.95	512.43
466.32	508.62
466.68	503.67
467.05	500.00
467.42	496.05
467.78	490.86
468.15	486.95
468.52	483.86
468.88	480.43
469.25	476.00
469.62	473.71
469.98	470.43
470.35	467.52
470.72	463.81
471.08	459.67
471.45	457.19
471.82	455.33
472.18	452.95
472.55	450.29
472.92	446.81
473.28	443.95
473.65	441.29
474.02	438.71
474.38	436.90
474.75	434.71
475.11	432.05
475.48	430.57
475.85	428.38
476.21	425.81
476.58	424.71
476.94	423.76
477.31	422.10
477.67	420.86
478.04	419.43
478.41	419.10
478.77	421.57
479.14	420.52
479.50	419.29
479.87	418.81
480.23	419.10
480.60	419.24
480.96	419.38
481.33	420.81
481.69	421.29
482.06	422.52
482.42	423.24
482.79	424.95
483.15	426.33
483.52	427.76
483.88	429.14
484.25	429.86
484.61	431.19
484.98	432.52
485.34	434.90
485.71	437.00
486.07	438.62
486.44	436.90
486.80	438.43
487.17	440.19
487.53	442.62
487.90	444.52
488.26	446.86
488.62	448.76
488.99	449.76
489.35	451.19
489.72	452.14
490.08	453.81
490.44	455.00
490.81	456.71
491.17	458.33
491.54	460.57
491.90	463.76
492.26	466.10
492.63	468.33
492.99	470.24
493.36	472.71
493.72	475.14
494.08	478.24
494.45	481.48
494.81	485.10
495.17	487.67
495.54	491.05
495.90	494.19
496.26	497.48
496.63	501.00
496.99	504.86
497.35	509.10
497.72	513.48
498.08	517.43
498.44	522.10
498.80	526.62
499.17	530.90
499.53	534.57
499.89	539.05
500.26	543.62
500.62	547.86
500.98	553.33
501.34	557.57
501.71	563.14
502.07	567.71
502.43	572.86
502.79	577.24
503.16	581.29
503.52	586.00
503.88	590.90
504.24	596.62
504.60	602.10
504.97	607.52
505.33	613.10
505.69	619.71
506.05	624.67
506.41	629.86
506.78	635.10
507.14	640.43
507.50	645.86
507.86	651.48
508.22	657.24
508.59	661.33
508.95	667.81
509.31	673.62
509.67	679.52
510.03	684.05
510.39	689.57
510.75	695.62
511.12	700.76
511.48	706.05
511.84	710.71
512.20	715.14
512.56	719.52
512.92	724.05
513.28	727.76
513.64	731.57
514.00	737.05
514.37	742.14
514.73	746.05
515.09	751.00
515.45	755.38
515.81	759.43
516.17	763.33
516.53	766.76
516.89	769.95
517.25	773.71
517.61	777.95
517.97	781.57
518.33	785.52
518.69	790.29
519.05	794.24
519.41	798.67
519.77	804.00
520.13	807.76
520.49	810.10
520.85	813.14
521.21	817.62
521.57	820.90
521.93	823.05
522.29	826.52
522.65	828.67
523.01	830.90
523.37	833.90
523.73	836.76
524.09	839.33
524.45	841.62
524.81	843.19
525.17	845.90
525.53	848.24
525.89	849.81
526.25	851.62
526.61	852.71
526.97	854.00
527.33	854.52
527.68	858.57
528.04	861.24
528.40	862.86
528.76	864.67
529.12	864.67
529.48	866.90
529.84	868.43
530.20	870.05
530.56	871.52
530.91	872.52
531.27	874.57
531.63	876.10
531.99	876.52
532.35	878.10
532.71	878.14
533.07	879.95
533.42	883.90
533.78	884.38
534.14	885.29
534.50	885.86
534.86	887.95
535.21	887.10
535.57	888.38
535.93	889.00
536.29	891.33
536.65	894.00
537.00	894.81
537.36	896.43
537.72	899.00
538.08	901.86
538.44	904.00
538.79	905.95
539.15	907.90
539.51	910.38
539.87	912.43
540.22	915.76
540.58	917.62
540.94	917.38
541.29	919.81
541.65	922.67
542.01	925.29
542.37	926.38
542.72	927.05
543.08	927.29
543.44	928.90
543.79	927.62
544.15	927.29
544.51	927.48
544.87	925.86
545.22	924.05
545.58	920.90
545.94	918.81
546.29	916.43
546.65	913.81
547.01	910.67
547.36	908.57
547.72	905.52
548.07	902.62
548.43	899.24
548.79	895.05
549.14	891.14
549.50	887.57
549.86	883.29
550.21	880.71
550.57	877.67
550.92	874.76
551.28	872.24
551.64	869.38
551.99	866.86
552.35	865.10
552.70	862.33
553.06	861.33
553.41	860.14
553.77	860.14
554.13	858.33
554.48	857.81
554.84	855.86
555.19	853.81
555.55	853.57
555.90	852.24
556.26	851.52
556.61	850.43
556.97	848.29
557.32	846.95
557.68	845.24
558.03	844.05
558.39	842.29
558.74	840.43
559.10	838.43
559.45	837.52
559.81	835.76
560.16	834.52
560.52	832.67
560.87	830.38
561.23	826.86
561.58	827.10
561.94	824.71
562.29	823.71
562.64	822.14
563.00	819.10
563.35	817.29
563.71	815.33
564.06	813.57
564.42	812.29
564.77	810.19
565.12	808.71
565.48	809.71
565.83	808.81
566.19	807.19
566.54	805.76
566.89	803.62
567.25	803.52
567.60	803.76
567.96	805.48
568.31	805.90
568.66	806.43
569.02	803.14
569.37	801.76
569.72	800.62
570.08	799.33
570.43	797.29
570.78	795.38
571.14	793.62
571.49	792.24
571.84	790.24
572.20	789.05
572.55	787.52
572.90	784.05
573.26	782.43
573.61	781.05
573.96	780.10
574.31	779.38
574.67	776.76
575.02	773.76
575.37	769.81
575.72	767.33
576.08	765.10
576.43	764.81
576.78	763.67
577.13	761.86
577.49	760.38
577.84	760.33
578.19	759.43
578.54	758.95
578.90	757.48
579.25	756.95
579.60	756.19
579.95	754.81
580.30	753.29
580.66	751.71
581.01	750.29
581.36	748.62
581.71	746.38
582.06	746.52
582.42	745.71
582.77	743.48
583.12	742.29
583.47	740.38
583.82	738.81
584.17	737.67
584.53	737.00
584.88	734.19
585.23	732.86
585.58	730.43
585.93	727.86
586.28	726.10
586.63	724.38
586.98	722.24
587.34	720.57
587.69	717.81
588.04	716.05
588.39	713.43
588.74	711.19
589.09	709.86
589.44	705.76
589.79	702.38
590.14	699.48
590.49	695.14
590.84	691.57
591.19	687.57
591.54	684.57
591.89	679.52
592.25	679.33
592.60	674.71
592.95	671.67
593.30	669.38
593.65	666.19
594.00	661.90
594.35	665.81
594.70	662.24
595.05	660.10
595.40	656.71
595.75	653.33
596.10	650.33
596.45	646.14
596.80	644.00
597.15	641.05
597.50	638.10
597.85	637.29
598.19	635.29
598.54	632.71
598.89	629.33
599.24	627.76
599.59	623.29
599.94	621.05
600.29	618.95
600.64	615.76
600.99	613.90
601.34	612.48
601.69	602.76
602.04	600.57
602.39	597.57
602.74	595.71
603.08	594.19
603.43	592.81
603.78	591.05
604.13	588.71
604.48	587.62
604.83	587.19
605.18	585.33
605.53	584.90
605.87	586.38
606.22	589.76
606.57	594.24
606.92	598.90
607.27	605.24
607.62	610.52
607.96	616.24
608.31	620.00
608.66	623.76
609.01	627.81
609.36	631.29
609.70	635.48
610.05	637.62
610.40	640.71
610.75	642.00
611.10	643.86
611.44	644.95
611.79	645.00
612.14	645.43
612.49	643.71
612.83	642.00
613.18	638.67
613.53	633.14
613.88	625.48
614.22	618.05
614.57	608.57
614.92	600.33
615.27	591.76
615.61	584.62
615.96	577.81
616.31	570.62
616.65	564.29
617.00	557.29
617.35	551.38
617.70	545.10
618.04	540.19
618.39	535.14
618.74	530.86
619.08	526.76
619.43	521.90
619.78	518.67
620.12	515.05
620.47	511.48
620.82	508.48
621.16	505.71
621.51	504.62
621.85	502.52
622.20	501.10
622.55	498.95
622.89	496.33
623.24	494.14
623.59	492.05
623.93	490.24
624.28	488.38
624.62	489.24
624.97	488.48
625.32	486.14
625.66	484.05
626.01	481.62
626.35	480.19
626.70	478.57
627.04	478.05
627.39	476.52
627.73	475.71
628.08	474.10
628.43	472.38
628.77	469.52
629.12	467.62
629.46	465.29
629.81	463.33
630.15	461.33
630.50	459.00
630.84	457.10
631.19	454.19
631.53	452.33
631.88	446.95
632.22	443.19
632.57	441.38
632.91	439.14
633.26	437.43
633.60	434.62
633.95	432.33
634.29	428.81
634.64	426.52
634.98	423.29
635.32	421.81
635.67	419.71
636.01	417.10
636.36	414.52
636.70	412.71
637.05	410.81
637.39	409.10
637.73	408.00
638.08	407.43
638.42	405.62
638.77	403.81
639.11	402.24
639.45	400.86
639.80	399.00
640.14	397.86
640.49	396.19
640.83	394.81
641.17	393.33
641.52	392.05
641.86	390.76
642.20	391.05
642.55	388.81
642.89	387.52
643.23	386.81
643.58	386.67
643.92	384.81
644.26	383.67
644.61	383.14
644.95	381.57
645.29	379.29
645.64	379.29
645.98	377.67
646.32	377.67
646.66	376.67
647.01	375.67
647.35	375.43
647.69	374.81
648.04	374.05
648.38	373.62
648.72	372.76
649.06	371.71
649.41	369.67
649.75	368.86
650.09	368.76
650.43	367.52
650.78	365.67
651.12	364.71
651.46	363.24
651.80	361.67
652.14	360.14
652.49	359.57
652.83	357.43
653.17	356.57
653.51	354.90
653.85	353.71
654.20	352.57
654.54	350.00
654.88	348.10
655.22	346.48
655.56	344.90
655.90	343.81
656.25	342.62
656.59	341.62
656.93	340.67
657.27	339.62
657.61	338.38
657.95	338.00
658.29	337.05
658.64	336.76
658.98	335.90
659.32	335.33
659.66	334.29
660.00	334.00
660.34	333.52
660.68	332.57
661.02	332.52
661.36	331.81
661.70	331.86
662.05	331.76
662.39	332.24
662.73	332.19
663.07	333.10
663.41	332.76
663.75	332.00
664.09	332.29
664.43	331.05
664.77	330.29
665.11	329.00
665.45	328.14
665.79	328.33
666.13	327.71
666.47	327.05
666.81	326.29
667.15	325.43
667.49	324.43
667.83	324.90
668.17	323.67
668.51	322.90
668.85	322.10
669.19	322.24
669.53	320.86
669.87	319.86
670.21	317.57
670.55	316.81
670.89	317.48
671.23	316.00
671.57	315.43
671.91	315.57
672.25	315.43
672.58	316.00
672.92	314.57
673.26	314.38
673.60	313.90
673.94	313.81
674.28	313.76
674.62	313.76
674.96	312.81
675.30	312.90
675.64	312.33
675.97	311.90
676.31	310.57
676.65	310.29
676.99	310.29
677.33	309.81
677.67	309.67
678.01	307.67
678.34	307.38
678.68	307.10
679.02	306.05
679.36	305.33
679.70	304.24
680.04	303.57
680.37	302.62
680.71	301.67
681.05	301.14
681.39	300.38
681.73	300.05
682.06	299.29
682.40	298.24
682.74	298.52
683.08	299.24
683.42	298.67
683.75	298.71
684.09	297.57
684.43	297.29
684.77	296.29
685.10	296.14
685.44	295.86
685.78	295.48
686.12	295.33
686.45	295.10
686.79	294.52
687.13	294.38
687.46	294.24
687.80	294.95
688.14	294.10
688.48	293.67
688.81	292.95
689.15	293.10
689.49	292.90
689.82	292.52
690.16	290.43
690.50	290.05
690.83	288.86
691.17	287.76
691.51	287.43
691.84	287.38
692.18	286.71
692.52	285.81
692.85	285.52
693.19	286.00
693.52	285.76
693.86	285.00
694.20	284.71
694.53	284.38
694.87	283.14
695.21	282.81
695.54	282.38
695.88	281.57
696.21	280.43
696.55	280.10
696.88	279.33
697.22	279.38
697.56	279.38
697.89	279.14
698.23	279.43
698.56	278.52
698.90	277.95
699.23	277.90
699.57	277.90
699.90	277.14
700.24	276.10
700.58	275.76
700.91	276.10
701.25	277.76
701.58	278.29
701.92	279.14
702.25	279.67
702.59	279.86
702.92	280.48
703.26	280.90
703.59	281.62
703.93	283.81
704.26	284.48
704.60	284.62
704.93	284.81
705.26	285.48
705.60	286.52
705.93	286.52
706.27	287.33
706.60	288.43
706.94	289.90
707.27	290.19
707.61	290.62
707.94	290.95
708.27	289.38
708.61	288.71
708.94	288.24
709.28	287.76
709.61	287.14
709.94	286.90
710.28	286.14
710.61	285.43
710.95	282.71
711.28	283.38
711.61	282.62
711.95	282.57
712.28	281.19
712.61	280.10
712.95	281.05
713.28	281.00
713.61	279.43
713.95	277.57
714.28	276.62
714.61	275.29
714.95	274.38
715.28	273.05
715.61	272.14
715.95	271.29
716.28	270.38
716.61	270.38
716.95	269.48
717.28	269.24
717.61	268.43
717.94	267.95
718.28	265.71
718.61	265.19
718.94	264.05
719.27	263.67
719.61	263.95
719.94	262.52
720.27	260.90
720.60	260.67
720.94	260.43
721.27	260.19
721.60	260.67
721.93	259.95
722.27	260.57
722.60	260.90
722.93	260.62
723.26	260.38
723.59	259.48
723.93	259.43
724.26	259.52
724.59	258.95
724.92	258.95
725.25	259.57
725.59	259.33
725.92	259.95
726.25	260.00
726.58	259.67
726.91	259.57
727.24	259.67
727.57	259.24
727.91	259.14
728.24	259.43
728.57	258.86
728.90	259.00
729.23	257.90
729.56	258.48
729.89	258.62
730.22	258.48
730.55	258.19
730.89	258.14
731.22	257.71
731.55	258.00
731.88	258.24
732.21	257.57
732.54	257.43
732.87	256.76
733.20	257.10
733.53	256.95
733.86	257.33
734.19	257.29
734.52	257.67
734.85	259.10
735.18	258.71
735.51	259.29
735.84	259.38
736.17	260.38
736.50	259.10
736.83	261.71
737.16	261.76
737.49	262.29
737.82	262.00
738.15	262.48
738.48	262.19
738.81	261.71
739.14	261.52
739.47	261.52
739.80	261.52
740.13	261.43
740.46	261.05
740.79	260.19
741.12	259.67
741.45	259.33
741.78	257.81
742.11	257.86
742.44	257.14
742.77	257.24
743.10	256.52
743.43	256.33
743.75	253.81
744.08	257.00
744.41	256.57
744.74	256.43
745.07	255.52
745.40	256.05
745.73	256.95
746.06	256.81
746.39	257.05
746.71	256.81
747.04	256.43
747.37	256.19
747.70	256.52
748.03	256.95
748.36	257.10
748.68	257.38
749.01	257.10
749.34	257.10
749.67	257.33
750.00	257.29
750.33	259.00
750.65	259.00
750.98	255.90
751.31	256.00
751.64	255.95
751.97	257.62
752.29	257.05
752.62	255.81
752.95	255.57
753.28	254.95
753.60	255.00
753.93	255.38
754.26	255.33
754.59	254.62
754.91	254.05
755.24	253.71
755.57	253.24
755.90	252.86
756.22	252.76
756.55	252.05
756.88	251.95
757.20	250.24
757.53	249.33
757.86	249.24
758.19	249.24
758.51	249.00
758.84	247.48
759.17	247.43
759.49	247.90
759.82	249.19
760.15	249.38
760.47	248.90
760.80	248.19
761.13	248.62
761.45	248.52
761.78	248.62
762.11	249.00
762.43	248.81
762.76	248.86
763.08	248.90
763.41	249.00
763.74	248.90
764.06	249.05
764.39	249.38
764.71	248.90
765.04	248.57
765.37	248.81
765.69	248.62
766.02	248.24
766.34	247.38
766.67	246.38
767.00	247.14
767.32	248.76
767.65	250.29
767.97	250.05
768.30	250.10
768.62	250.19
768.95	249.52
769.27	249.38
769.60	249.48
769.92	249.05
770.25	248.67
770.57	248.24
770.90	247.86
771.22	247.48
771.55	247.90
771.87	248.14
772.20	247.76
772.52	249.71
772.85	252.71
773.17	253.05
773.50	252.62
773.82	251.90
774.15	250.38
774.47	248.48
774.80	248.48
775.12	248.52
775.45	247.81
775.77	247.95
776.09	248.29
776.42	248.14
776.74	249.14
777.07	249.33
777.39	249.43
777.72	249.48
778.04	249.81
778.36	249.67
778.69	249.62
779.01	249.76
779.33	247.67
779.66	245.00
779.98	244.76
780.31	245.00
780.63	246.14
780.95	246.33
781.28	246.62
781.60	246.19
781.92	245.86
782.25	246.29
782.57	246.29
782.89	245.95
783.22	246.00
783.54	245.10
783.86	244.86
784.19	244.76
784.51	245.43
784.83	245.00
785.16	244.33
785.48	244.38
785.80	244.24
786.12	244.24
786.45	243.95
786.77	244.24
787.09	244.52
787.42	243.19
787.74	243.48
788.06	243.81
788.38	243.76
788.71	243.86
789.03	243.95
789.35	244.29
789.67	243.95
789.99	244.29
790.32	244.00
790.64	244.29
790.96	246.33
791.28	245.33
791.61	245.29
791.93	245.90
792.25	245.33
792.57	247.33
792.89	247.33
793.21	247.52
793.54	247.05
793.86	246.43
794.18	246.71
794.50	246.19
794.82	245.76
795.14	246.00
795.47	246.29
795.79	246.14
796.11	245.43
796.43	245.33
796.75	245.14
797.07	245.48
797.39	245.67
797.71	243.81
798.04	244.00
798.36	244.19
798.68	244.10
799.00	244.48
799.32	243.00
799.64	243.19
799.96	243.29
800.28	243.95
800.60	243.90
800.92	243.71
801.24	243.67
801.56	243.86
801.89	243.86
802.21	244.14
802.53	244.00
802.85	244.76
803.17	245.95
803.49	245.29
803.81	245.10
804.13	244.76
804.45	244.48
804.77	244.95
805.09	244.71
805.41	244.33
805.73	243.86
806.05	243.38
806.37	243.43
806.69	243.38
807.01	243.29
807.33	243.57
807.65	242.95
807.97	244.24
808.28	244.19
808.60	244.14
808.92	243.71
809.24	245.00
809.56	244.14
809.88	243.29
810.20	243.48
810.52	244.10
810.84	243.52
811.16	243.43
811.48	242.90
811.80	244.14
812.12	244.24
812.43	244.90
812.75	244.76
813.07	244.43
813.39	244.19
813.71	243.67
814.03	243.38
814.35	243.76
814.67	242.62
814.98	242.38
815.30	242.29
815.62	241.76
815.94	240.38
816.26	241.38
816.58	241.00
816.89	241.14
817.21	240.62
817.53	240.81
817.85	240.57
818.17	240.71
818.48	239.33
818.80	239.76
819.12	239.48
819.44	239.19
819.76	238.95
820.07	239.52
820.39	239.48
820.71	239.52
821.03	239.38
821.34	239.05
821.66	239.43
821.98	239.71
822.30	239.76
822.61	240.76
822.93	240.10
823.25	240.00
823.57	239.62
823.88	239.95
824.20	240.14
824.52	240.95
824.83	240.76
825.15	240.67
825.47	240.86
825.79	240.95
826.10	241.10
826.42	241.05
826.74	240.76
827.05	240.76
827.37	240.81
827.69	241.05
828.00	241.38
828.32	241.71
828.64	241.52
828.95	243.00
829.27	242.81
829.58	242.48
829.90	243.19
830.22	244.00
830.53	243.10
830.85	242.90
831.17	242.43
831.48	242.62
831.80	243.00
832.11	242.33
832.43	241.95
832.75	241.90
833.06	243.48
833.38	242.95
833.69	242.90
834.01	243.38
834.32	242.86
834.64	242.76
834.96	242.19
835.27	242.10
835.59	241.10
835.90	240.52
836.22	240.95
836.53	240.29
836.85	239.90
837.16	242.57
837.48	242.62
837.79	243.05
838.11	242.86
838.42	242.81
838.74	243.62
839.05	243.52
839.37	243.71
839.68	242.38
840.00	242.19
840.31	242.76
840.63	242.38
840.94	242.29
841.26	242.05
841.57	241.95
841.88	242.19
842.20	242.05
842.51	241.90
842.83	241.62
843.14	243.76
843.46	243.81
843.77	242.43
844.08	242.33
844.40	241.57
844.71	241.38
845.03	240.86
845.34	239.86
845.65	239.76
845.97	239.24
846.28	239.24
846.60	239.43
846.91	239.05
847.22	239.05
847.54	239.95
847.85	240.33
848.16	240.38
848.48	239.90
848.79	240.71
849.10	241.00
849.42	241.33
849.73	239.38
850.04	238.95
850.36	238.38
850.67	238.86
850.98	239.10
851.30	239.48
851.61	239.71
851.92	240.10
852.23	241.14
852.55	241.71
852.86	241.57
853.17	241.81
853.49	242.38
853.80	242.86
854.11	243.05
854.42	243.24
854.74	242.86
855.05	242.86
855.36	241.86
855.67	241.90
855.99	241.67
856.30	244.24
856.61	244.14
856.92	244.00
857.23	243.81
857.55	243.38
857.86	243.29
858.17	243.71
858.48	243.52
858.79	242.90
859.11	243.19
859.42	242.95
859.73	242.52
860.04	242.00
860.35	241.10
860.66	240.14
860.98	239.76
861.29	240.24
861.60	240.29
861.91	241.05
862.22	240.86
862.53	240.57
862.84	238.10
863.16	239.10
863.47	238.62
863.78	238.48
864.09	239.19
864.40	239.19
864.71	239.14
865.02	239.24
865.33	238.62
865.64	238.00
865.95	238.10
866.27	239.76
866.58	239.81
866.89	240.19
867.20	240.24
867.51	240.05
867.82	239.86
868.13	240.38
868.44	239.52
868.75	239.86
869.06	240.19
869.37	240.33
869.68	239.48
869.99	240.19
870.30	240.10
870.61	240.10
870.92	239.71
871.23	239.52
871.54	240.24
871.85	241.05
872.16	241.52
872.47	241.38
872.78	239.95
873.09	240.19
873.40	239.90
873.71	239.71
874.02	240.00
874.33	239.86
874.64	239.19
874.95	239.67
875.26	239.00
875.56	238.86
875.87	238.38
876.18	238.33
876.49	240.52
876.80	240.81
877.11	240.33
877.42	240.86
877.73	241.05
878.04	240.14
878.35	240.29
878.66	240.19
878.96	240.43
879.27	240.67
879.58	240.48
879.89	240.29
880.20	241.29
880.51	241.19
880.82	241.10
881.12	241.38
881.43	240.71
881.74	240.67
882.05	240.62
882.36	240.81
882.67	241.29
882.97	238.86
883.28	238.43
883.59	238.43
883.90	238.19
884.21	238.38
884.51	238.62
884.82	238.29
885.13	238.24
885.44	238.19
885.74	237.86
886.05	237.57
886.36	237.90
886.67	237.00
886.98	238.19
887.28	238.52
887.59	238.43
887.90	238.62
888.20	238.62
888.51	239.29
888.82	239.05
889.13	238.76
889.43	240.81
889.74	240.71
890.05	240.90
890.35	240.81
890.66	240.19
890.97	240.10
891.28	240.00
891.58	240.10
891.89	240.14
892.20	240.24
892.50	240.05
892.81	240.14
893.12	240.33
893.42	239.24
893.73	239.43
894.04	239.62
894.34	240.29
894.65	240.43
894.95	239.86
895.26	240.29
895.57	241.67
895.87	239.14
896.18	239.24
896.48	239.10
896.79	239.29
897.10	239.81
897.40	239.29
897.71	239.14
898.01	238.71
898.32	239.00
898.63	239.00
898.93	239.43
899.24	239.48
899.54	239.48
899.85	239.19
900.15	238.90
900.46	238.71
900.76	238.71
901.07	238.38
901.38	238.43
901.68	238.48
901.99	237.10
902.29	237.38
902.60	237.71
902.90	237.71
903.21	237.62
903.51	237.29
903.82	238.29
904.12	238.43
904.43	238.81
904.73	238.38
905.03	238.52
905.34	240.76
905.64	240.14
905.95	239.95
906.25	240.10
906.56	239.81
906.86	240.00
907.17	239.52
907.47	239.81
907.77	239.62
908.08	238.90
908.38	239.00
908.69	239.24
908.99	239.43
909.30	239.62
909.60	239.62
909.90	239.90
910.21	239.24
910.51	238.76
910.81	238.57
911.12	238.76
911.42	238.67
911.73	236.10
912.03	236.48
912.33	237.10
912.64	236.86
912.94	237.00
913.24	236.52
913.55	236.33
913.85	236.62
914.15	237.14
914.46	237.71
914.76	237.24
915.06	237.29
915.37	237.10
915.67	236.67
915.97	236.62
916.27	236.00
916.58	235.86
916.88	236.10
917.18	236.10
917.49	237.76
917.79	237.57
918.09	238.10
918.39	238.52
918.70	238.33
919.00	238.52
919.30	239.71
919.60	239.86
919.91	239.62
920.21	239.29
920.51	238.38
920.81	238.19
921.12	239.00
921.42	238.67
921.72	238.71
922.02	238.86
922.32	239.19
922.63	239.62
922.93	241.10
923.23	241.29
923.53	241.05
923.83	239.24
924.13	239.62
924.44	239.48
924.74	240.33
925.04	240.95
925.34	240.86
925.64	239.52
925.94	239.38
926.24	240.86
926.55	240.62
926.85	241.14
927.15	241.33
927.45	241.24
927.75	241.43
928.05	241.38
928.35	241.38
928.65	241.90
928.95	242.14
929.26	241.10
929.56	241.33
929.86	241.62
930.16	241.81
930.46	241.62
930.76	241.76
931.06	240.19
931.36	239.43
931.66	239.62
931.96	240.19
932.26	240.33
932.56	239.33
932.86	239.76
933.16	239.76
933.46	239.24
933.76	239.05
934.06	239.62
934.36	240.43
934.66	240.43
934.96	239.76
935.26	239.67
935.56	239.76
935.86	239.57
936.16	239.33
936.46	239.33
936.76	239.24
937.06	239.05
937.36	239.29
937.66	239.19
937.96	239.19
938.26	238.71
938.56	238.62
938.86	238.95
939.16	239.48
939.46	239.90
939.76	240.10
940.06	239.86
940.35	239.19
940.65	237.90
940.95	237.90
941.25	237.57
941.55	237.10
941.85	237.52
942.15	237.57
942.45	238.38
942.75	238.14
943.04	238.48
943.34	238.48
943.64	238.62
943.94	238.38
944.24	238.48
944.54	238.62
944.84	238.57
945.13	238.05
945.43	237.67
945.73	237.71
946.03	237.71
946.33	237.48
946.62	237.24
946.92	237.33
947.22	237.62
947.52	238.14
947.82	238.57
948.11	237.95
948.41	237.57
948.71	236.90
949.01	236.95
949.31	236.05
949.60	236.24
949.90	236.33
950.20	236.33
950.50	236.19
950.79	235.95
951.09	236.29
951.39	236.62
951.69	236.24
951.98	236.43
952.28	236.81
952.58	237.00
952.87	237.33
953.17	237.95
953.47	237.90
953.76	237.48
954.06	237.33
954.36	237.14
954.66	237.00
954.95	237.67
955.25	237.90
955.55	238.71
955.84	238.24
956.14	238.48
956.44	238.43
956.73	238.29
957.03	238.62
957.32	238.43
957.62	238.10
957.92	238.33
958.21	237.95
958.51	240.57
958.81	240.81
959.10	240.95
959.40	241.24
959.69	241.43
959.99	242.05
960.29	241.86
960.58	241.76
960.88	243.05
961.17	242.67
961.47	243.14
961.76	243.19
962.06	243.38
962.36	243.33
962.65	243.67
962.95	243.67
963.24	243.43
963.54	243.81
963.83	244.05
964.13	243.76
964.42	243.00
964.72	240.90
965.01	241.00
965.31	240.86
965.60	239.90
965.90	241.00
966.19	240.48
966.49	240.90
966.78	241.00
967.08	240.43
967.37	240.33
967.67	239.43
967.96	239.67
968.26	239.71
968.55	239.90
968.85	240.00
969.14	240.10
969.43	240.24
969.73	239.81
970.02	239.62
970.32	239.90
970.61	240.00
970.91	239.19
971.20	238.86
971.49	238.29
971.79	238.95
972.08	237.43
972.38	237.29
972.67	237.14
972.96	237.57
973.26	237.38
973.55	238.24
973.85	238.29
974.14	237.81
974.43	238.00
974.73	237.33
975.02	237.24
975.31	237.43
975.61	237.24
975.90	237.10
976.19	236.95
976.49	237.05
976.78	237.67
977.07	237.62
977.37	237.52
977.66	238.05
977.95	237.71
978.24	238.10
978.54	238.57
978.83	238.14
979.12	238.14
979.42	238.19
979.71	237.71
980.00	237.62
980.29	237.48
980.59	236.90
980.88	237.71
981.17	237.71
981.46	237.38
981.76	237.43
982.05	238.19
982.34	238.71
982.63	238.86
982.93	238.71
983.22	239.33
983.51	239.62
983.80	240.19
984.09	240.38
984.39	240.05
984.68	239.67
984.97	239.81
985.26	239.10
985.55	238.90
985.85	238.33
986.14	238.62
986.43	239.00
986.72	239.38
987.01	238.43
987.30	237.81
987.59	237.62
987.89	237.71
988.18	236.95
988.47	236.71
988.76	236.57
989.05	236.05
989.34	236.10
989.63	236.76
989.92	236.14
990.22	235.86
990.51	235.76
990.80	235.76
991.09	236.00
991.38	236.71
991.67	237.05
991.96	237.05
992.25	237.67
992.54	237.48
992.83	237.10
993.12	237.19
993.41	238.00
993.70	239.10
993.99	239.43
994.28	239.62
994.58	239.57
994.87	239.24
995.16	239.14
995.45	238.76
995.74	237.71
996.03	238.14
996.32	238.52
996.61	239.14
996.90	239.29
997.19	239.10
997.48	238.71
997.77	238.14
998.06	238.33
998.34	237.95
998.63	238.00
998.92	238.29
999.21	238.67
999.50	238.52
999.79	237.48
1000.08	237.33
1000.37	237.62
1000.66	237.48
1000.95	238.05
1001.24	238.24
1001.53	238.62
1001.82	238.81
1002.11	237.90
1002.40	238.00
1002.68	238.38
1002.97	240.10
1003.26	240.19
1003.55	240.05
1003.84	240.24
1004.13	241.10
1004.42	240.90
1004.71	240.90
1004.99	240.52
1005.28	240.81
1005.57	240.76
1005.86	240.81
1006.15	240.76
1006.44	240.43
1006.72	241.05
1007.01	240.71
1007.30	241.00
1007.59	240.71
1007.88	240.62
1008.17	241.33
1008.45	240.76
1008.74	239.76
1009.03	238.67
1009.32	238.48
1009.60	238.43
1009.89	238.24
1010.18	237.00
1010.47	237.05
1010.76	236.95
1011.04	237.33
1011.33	237.19
1011.62	237.38
1011.91	237.57
1012.19	237.62
1012.48	237.52
1012.77	237.05
1013.05	237.90
1013.34	237.67
1013.63	237.48
1013.92	237.67
1014.20	237.38
1014.49	237.76
1014.78	238.14
1015.06	237.14
1015.35	237.00
1015.64	237.43
1015.92	238.10
1016.21	238.48
1016.50	238.19
1016.78	238.14
1017.07	238.14
1017.36	238.00
1017.64	237.43
1017.93	237.86
1018.22	237.67
1018.50	237.81
1018.79	237.95
1019.08	237.14
1019.36	237.24
1019.65	237.14
1019.93	237.67
1020.22	237.76
1020.51	239.19
1020.79	238.81
1021.08	236.00
1021.36	236.00
1021.65	241.00
1021.94	240.00
1022.22	234.00
1022.51	235.00
1022.79	248.00
1023.08	238.00
1023.36	272.00
1023.65	231.00
>>>>>End Processed Spectral Data<<<<<
