SpectraSuite Data File
++++++++++++++++++++++++++++++++++++
Date: Wed Nov 07 18:32:33 EST 2012
User: group
Dark Spectrum Present: No
Reference Spectrum Present: No
Number of Sampled Component Spectra: 1
Spectrometers: USB2E7196
Integration Time (usec): 1000000 (USB2E7196)
Spectra Averaged: 1 (USB2E7196)
Boxcar Smoothing: 10 (USB2E7196)
Correct for Electrical Dark: No (USB2E7196)
Strobe/Lamp Enabled: No (USB2E7196)
Correct for Detector Non-linearity: No (USB2E7196)
Correct for Stray Light: No (USB2E7196)
Number of Pixels in Processed Spectrum: 2048
>>>>>Begin Processed Spectral Data<<<<<
339.09	0.00
339.48	224.00
339.86	220.00
340.24	218.00
340.63	225.00
341.01	260.00
341.39	223.00
341.78	232.00
342.16	240.00
342.54	228.00
342.93	222.10
343.31	233.10
343.69	233.76
344.07	234.19
344.46	235.24
344.84	235.62
345.22	234.43
345.60	235.05
345.99	235.24
346.37	234.95
346.75	235.33
347.13	235.57
347.52	235.90
347.90	236.95
348.28	237.00
348.66	237.67
349.05	237.05
349.43	237.29
349.81	237.76
350.19	238.29
350.57	238.52
350.96	238.95
351.34	239.52
351.72	239.43
352.10	239.90
352.48	239.81
352.87	240.19
353.25	240.62
353.63	240.71
354.01	240.67
354.39	241.05
354.77	241.05
355.15	241.52
355.54	241.24
355.92	240.86
356.30	241.00
356.68	242.71
357.06	242.90
357.44	242.62
357.82	242.38
358.20	242.24
358.58	242.14
358.97	241.86
359.35	242.19
359.73	243.05
360.11	242.86
360.49	243.00
360.87	243.00
361.25	243.10
361.63	243.90
362.01	244.19
362.39	244.00
362.77	244.10
363.15	243.95
363.53	244.10
363.91	244.29
364.29	244.48
364.67	242.00
365.05	241.76
365.43	242.43
365.81	242.81
366.19	244.10
366.57	245.24
366.95	245.19
367.33	244.62
367.71	244.38
368.09	245.24
368.47	245.10
368.85	244.86
369.23	245.33
369.61	244.19
369.99	245.05
370.37	245.19
370.75	246.33
371.13	246.00
371.51	245.48
371.89	245.19
372.27	245.24
372.65	245.57
373.03	246.33
373.41	245.76
373.78	245.67
374.16	244.10
374.54	243.33
374.92	243.19
375.30	243.19
375.68	242.52
376.06	242.19
376.44	242.29
376.82	242.19
377.19	241.81
377.57	241.90
377.95	241.19
378.33	241.00
378.71	239.90
379.09	240.10
379.47	240.86
379.84	240.67
380.22	240.14
380.60	239.62
380.98	239.29
381.36	239.05
381.73	238.48
382.11	239.24
382.49	239.29
382.87	239.05
383.25	239.05
383.62	242.05
384.00	241.86
384.38	241.71
384.76	242.43
385.13	243.33
385.51	243.33
385.89	242.86
386.27	242.76
386.64	242.90
387.02	242.90
387.40	242.48
387.78	242.90
388.15	243.33
388.53	243.14
388.91	243.00
389.29	243.00
389.66	243.57
390.04	242.95
390.42	243.05
390.79	243.14
391.17	242.95
391.55	240.24
391.92	240.05
392.30	240.19
392.68	239.57
393.05	239.33
393.43	239.43
393.81	240.00
394.18	240.29
394.56	240.29
394.94	240.67
395.31	240.19
395.69	240.76
396.06	241.24
396.44	241.71
396.82	241.43
397.19	242.81
397.57	242.57
397.95	243.48
398.32	242.71
398.70	243.24
399.07	243.71
399.45	243.62
399.82	243.62
400.20	243.38
400.58	243.43
400.95	242.76
401.33	243.29
401.70	244.76
402.08	244.67
402.45	244.67
402.83	245.10
403.20	245.90
403.58	245.52
403.95	245.76
404.33	246.05
404.71	246.43
405.08	248.05
405.46	248.24
405.83	248.24
406.21	249.00
406.58	249.48
406.96	250.19
407.33	250.90
407.70	251.81
408.08	254.48
408.45	255.62
408.83	256.48
409.20	256.81
409.58	256.00
409.95	257.24
410.33	258.38
410.70	258.71
411.08	260.14
411.45	261.52
411.82	262.19
412.20	263.90
412.57	266.62
412.95	265.71
413.32	267.52
413.69	268.90
414.07	270.33
414.44	272.19
414.82	273.95
415.19	276.48
415.56	278.71
415.94	279.86
416.31	282.57
416.68	285.38
417.06	289.10
417.43	292.71
417.81	296.52
418.18	300.33
418.55	304.19
418.93	308.19
419.30	312.43
419.67	317.00
420.04	321.24
420.42	325.33
420.79	333.14
421.16	338.62
421.54	346.05
421.91	352.48
422.28	358.57
422.66	365.67
423.03	374.14
423.40	381.24
423.77	388.29
424.15	395.48
424.52	403.29
424.89	412.14
425.26	420.14
425.64	427.24
426.01	435.62
426.38	444.43
426.75	453.43
427.13	462.86
427.50	472.33
427.87	482.81
428.24	493.00
428.61	500.86
428.99	512.90
429.36	523.05
429.73	533.76
430.10	546.19
430.47	557.71
430.85	567.52
431.22	580.10
431.59	595.71
431.96	609.33
432.33	624.52
432.70	637.90
433.08	654.38
433.45	669.57
433.82	685.24
434.19	702.52
434.56	718.43
434.93	733.19
435.30	749.62
435.68	765.95
436.05	782.57
436.42	799.24
436.79	814.67
437.16	831.14
437.53	848.10
437.90	864.24
438.27	880.95
438.64	897.86
439.01	914.14
439.38	925.57
439.75	938.71
440.13	952.52
440.50	966.76
440.87	977.90
441.24	990.00
441.61	1002.38
441.98	1011.38
442.35	1022.48
442.72	1034.14
443.09	1045.29
443.46	1051.71
443.83	1055.33
444.20	1057.81
444.57	1062.00
444.94	1064.29
445.31	1065.62
445.68	1069.62
446.05	1069.76
446.42	1067.33
446.79	1064.52
447.16	1060.19
447.53	1057.86
447.90	1050.71
448.27	1042.48
448.64	1032.29
449.01	1025.38
449.37	1012.90
449.74	1000.86
450.11	989.05
450.48	973.76
450.85	956.67
451.22	943.10
451.59	930.76
451.96	919.33
452.33	902.90
452.70	887.62
453.07	871.57
453.43	852.43
453.80	835.24
454.17	818.95
454.54	803.00
454.91	788.76
455.28	772.05
455.65	757.57
456.02	748.00
456.38	735.86
456.75	720.48
457.12	708.38
457.49	696.19
457.86	681.81
458.23	672.29
458.59	662.05
458.96	651.33
459.33	641.24
459.70	631.29
460.07	623.71
460.43	614.62
460.80	606.52
461.17	598.86
461.54	591.38
461.91	584.67
462.27	577.43
462.64	570.38
463.01	563.81
463.38	557.57
463.74	546.38
464.11	539.67
464.48	534.29
464.85	528.43
465.21	524.62
465.58	520.52
465.95	514.14
466.32	509.48
466.68	504.19
467.05	499.38
467.42	494.43
467.78	489.33
468.15	485.05
468.52	482.38
468.88	477.90
469.25	473.43
469.62	469.81
469.98	466.24
470.35	463.48
470.72	460.48
471.08	456.10
471.45	454.05
471.82	452.10
472.18	449.10
472.55	446.57
472.92	443.38
473.28	440.48
473.65	437.86
474.02	435.71
474.38	434.52
474.75	432.81
475.11	431.10
475.48	429.86
475.85	428.24
476.21	426.00
476.58	424.71
476.94	424.05
477.31	422.95
477.67	421.81
478.04	420.10
478.41	419.67
478.77	421.76
479.14	420.24
479.50	419.76
479.87	420.14
480.23	419.67
480.60	419.14
480.96	420.05
481.33	421.38
481.69	421.43
482.06	421.38
482.42	422.05
482.79	423.14
483.15	423.05
483.52	424.67
483.88	425.48
484.25	425.81
484.61	427.14
484.98	428.29
485.34	430.52
485.71	432.81
486.07	433.62
486.44	433.29
486.80	435.38
487.17	436.90
487.53	438.43
487.90	440.43
488.26	443.05
488.62	444.71
488.99	446.00
489.35	447.86
489.72	449.95
490.08	451.62
490.44	453.14
490.81	456.43
491.17	458.10
491.54	460.48
491.90	463.43
492.26	465.33
492.63	467.90
492.99	469.38
493.36	472.29
493.72	475.86
494.08	478.43
494.45	480.67
494.81	484.05
495.17	487.00
495.54	490.71
495.90	494.10
496.26	497.67
496.63	501.71
496.99	505.43
497.35	508.81
497.72	512.81
498.08	516.48
498.44	520.14
498.80	524.48
499.17	528.10
499.53	532.00
499.89	536.62
500.26	541.05
500.62	545.90
500.98	551.05
501.34	555.24
501.71	560.52
502.07	565.95
502.43	570.67
502.79	575.00
503.16	580.10
503.52	584.24
503.88	588.57
504.24	593.48
504.60	598.90
504.97	604.67
505.33	609.95
505.69	616.76
506.05	621.90
506.41	626.90
506.78	632.62
507.14	638.24
507.50	644.24
507.86	650.05
508.22	655.86
508.59	660.38
508.95	666.19
509.31	672.24
509.67	677.38
510.03	682.05
510.39	687.81
510.75	693.10
511.12	698.71
511.48	703.95
511.84	708.33
512.20	712.76
512.56	717.33
512.92	722.10
513.28	726.67
513.64	731.48
514.00	736.67
514.37	741.14
514.73	745.71
515.09	749.52
515.45	753.81
515.81	758.10
516.17	761.86
516.53	765.38
516.89	768.33
517.25	772.00
517.61	777.33
517.97	781.33
518.33	784.71
518.69	789.05
519.05	793.24
519.41	797.14
519.77	801.90
520.13	805.86
520.49	809.00
520.85	811.48
521.21	816.05
521.57	820.00
521.93	822.90
522.29	825.29
522.65	827.67
523.01	830.43
523.37	832.19
523.73	835.10
524.09	838.29
524.45	840.29
524.81	842.38
525.17	843.90
525.53	846.10
525.89	847.86
526.25	849.48
526.61	850.76
526.97	852.57
527.33	853.57
527.68	857.14
528.04	859.14
528.40	860.76
528.76	861.14
529.12	861.67
529.48	863.81
529.84	865.19
530.20	867.71
530.56	869.33
530.91	871.19
531.27	872.29
531.63	873.19
531.99	874.48
532.35	876.10
532.71	876.86
533.07	877.81
533.42	881.19
533.78	881.57
534.14	882.81
534.50	883.57
534.86	886.19
535.21	885.43
535.57	887.14
535.93	887.00
536.29	889.52
536.65	890.33
537.00	891.43
537.36	893.48
537.72	894.38
538.08	896.86
538.44	897.95
538.79	901.57
539.15	903.48
539.51	905.90
539.87	907.90
540.22	910.29
540.58	912.81
540.94	912.81
541.29	915.76
541.65	917.52
542.01	920.76
542.37	920.95
542.72	921.48
543.08	921.38
543.44	922.67
543.79	920.33
544.15	920.90
544.51	920.95
544.87	920.52
545.22	920.10
545.58	918.29
545.94	916.90
546.29	913.71
546.65	911.10
547.01	908.48
547.36	906.52
547.72	904.57
548.07	901.62
548.43	898.48
548.79	894.90
549.14	892.05
549.50	888.81
549.86	884.14
550.21	881.19
550.57	879.81
550.92	877.86
551.28	877.10
551.64	874.43
551.99	871.95
552.35	869.00
552.70	866.05
553.06	863.57
553.41	861.95
553.77	860.76
554.13	860.24
554.48	858.29
554.84	855.90
555.19	853.05
555.55	853.10
555.90	851.67
556.26	849.62
556.61	847.10
556.97	843.90
557.32	843.52
557.68	842.33
558.03	839.71
558.39	837.90
558.74	835.62
559.10	834.00
559.45	831.95
559.81	830.33
560.16	828.71
560.52	826.95
560.87	825.71
561.23	823.67
561.58	822.90
561.94	821.48
562.29	819.86
562.64	818.76
563.00	814.62
563.35	812.81
563.71	810.90
564.06	809.76
564.42	808.05
564.77	806.33
565.12	805.19
565.48	806.14
565.83	804.81
566.19	803.95
566.54	802.52
566.89	800.90
567.25	800.67
567.60	801.52
567.96	801.81
568.31	801.62
568.66	800.95
569.02	797.67
569.37	795.76
569.72	795.00
570.08	793.62
570.43	792.52
570.78	790.71
571.14	789.86
571.49	788.71
571.84	787.90
572.20	786.95
572.55	785.19
572.90	781.38
573.26	779.43
573.61	778.00
573.96	777.00
574.31	776.48
574.67	774.38
575.02	771.57
575.37	768.43
575.72	765.33
576.08	763.14
576.43	762.05
576.78	761.10
577.13	758.57
577.49	757.43
577.84	756.62
578.19	755.62
578.54	754.38
578.90	753.05
579.25	752.33
579.60	750.86
579.95	749.43
580.30	748.19
580.66	747.57
581.01	745.57
581.36	743.52
581.71	741.10
582.06	740.90
582.42	739.24
582.77	737.86
583.12	736.67
583.47	735.29
583.82	733.86
584.17	732.00
584.53	732.81
584.88	731.05
585.23	729.43
585.58	727.00
585.93	724.48
586.28	722.81
586.63	720.90
586.98	718.71
587.34	717.00
587.69	714.71
588.04	712.33
588.39	709.00
588.74	705.95
589.09	705.00
589.44	700.62
589.79	697.62
590.14	694.43
590.49	690.95
590.84	687.57
591.19	684.33
591.54	681.67
591.89	676.48
592.25	674.95
592.60	671.57
592.95	669.90
593.30	667.48
593.65	663.19
594.00	658.71
594.35	662.00
594.70	658.38
595.05	655.57
595.40	652.14
595.75	649.86
596.10	647.95
596.45	644.52
596.80	641.86
597.15	639.43
597.50	637.05
597.85	635.48
598.19	632.67
598.54	630.48
598.89	627.19
599.24	625.10
599.59	620.57
599.94	617.24
600.29	614.33
600.64	611.90
600.99	611.14
601.34	609.62
601.69	601.10
602.04	598.71
602.39	596.33
602.74	594.62
603.08	593.00
603.43	591.38
603.78	589.10
604.13	587.14
604.48	585.38
604.83	583.95
605.18	582.00
605.53	582.33
605.87	583.62
606.22	587.81
606.57	592.38
606.92	596.86
607.27	602.71
607.62	608.24
607.96	614.00
608.31	617.90
608.66	622.05
609.01	625.10
609.36	628.57
609.70	631.95
610.05	634.24
610.40	636.38
610.75	637.95
611.10	640.10
611.44	641.95
611.79	642.67
612.14	643.38
612.49	642.90
612.83	640.48
613.18	636.14
613.53	630.05
613.88	622.67
614.22	615.10
614.57	606.57
614.92	597.95
615.27	589.71
615.61	582.29
615.96	575.67
616.31	569.67
616.65	564.00
617.00	557.52
617.35	551.48
617.70	545.76
618.04	540.33
618.39	535.29
618.74	531.00
619.08	526.29
619.43	521.52
619.78	518.19
620.12	515.00
620.47	512.19
620.82	509.24
621.16	506.62
621.51	505.71
621.85	503.29
622.20	500.90
622.55	497.95
622.89	495.10
623.24	492.57
623.59	489.57
623.93	487.00
624.28	484.81
624.62	485.48
624.97	485.05
625.32	482.43
625.66	480.10
626.01	477.29
626.35	476.38
626.70	474.86
627.04	473.81
627.39	472.57
627.73	471.76
628.08	470.19
628.43	467.95
628.77	464.81
629.12	462.52
629.46	461.19
629.81	459.43
630.15	457.81
630.50	455.43
630.84	453.90
631.19	451.71
631.53	449.43
631.88	444.33
632.22	440.57
632.57	439.10
632.91	436.71
633.26	435.38
633.60	432.14
633.95	429.48
634.29	425.86
634.64	422.52
634.98	419.48
635.32	417.71
635.67	416.62
636.01	414.00
636.36	412.57
636.70	411.00
637.05	408.62
637.39	406.43
637.73	404.95
638.08	404.05
638.42	402.14
638.77	400.81
639.11	399.52
639.45	397.81
639.80	396.10
640.14	394.52
640.49	392.86
640.83	391.24
641.17	389.86
641.52	388.62
641.86	388.33
642.20	388.57
642.55	386.62
642.89	384.81
643.23	384.43
643.58	384.00
643.92	381.52
644.26	380.81
644.61	380.57
644.95	379.24
645.29	377.38
645.64	377.38
645.98	375.95
646.32	375.62
646.66	375.19
647.01	374.33
647.35	373.95
647.69	373.10
648.04	372.71
648.38	372.33
648.72	371.43
649.06	369.86
649.41	367.29
649.75	366.71
650.09	366.24
650.43	364.71
650.78	362.95
651.12	362.43
651.46	361.19
651.80	359.71
652.14	358.29
652.49	358.24
652.83	356.48
653.17	355.24
653.51	353.43
653.85	352.29
654.20	351.48
654.54	349.81
654.88	348.10
655.22	346.76
655.56	345.38
655.90	344.43
656.25	343.81
656.59	343.19
656.93	342.29
657.27	341.52
657.61	340.95
657.95	340.57
658.29	339.57
658.64	339.71
658.98	339.05
659.32	338.33
659.66	336.57
660.00	336.05
660.34	335.71
660.68	335.33
661.02	334.57
661.36	333.43
661.70	332.71
662.05	332.19
662.39	332.33
662.73	332.10
663.07	332.95
663.41	332.05
663.75	331.24
664.09	330.62
664.43	329.67
664.77	329.19
665.11	328.14
665.45	327.81
665.79	326.90
666.13	325.95
666.47	325.38
666.81	324.57
667.15	323.29
667.49	323.00
667.83	322.71
668.17	321.71
668.51	320.76
668.85	320.38
669.19	320.76
669.53	319.24
669.87	318.67
670.21	316.90
670.55	316.05
670.89	316.38
671.23	315.76
671.57	314.81
671.91	314.10
672.25	313.52
672.58	313.67
672.92	312.19
673.26	311.67
673.60	311.76
673.94	311.52
674.28	311.48
674.62	311.43
674.96	310.48
675.30	310.14
675.64	309.90
675.97	309.43
676.31	307.86
676.65	307.24
676.99	307.19
677.33	305.90
677.67	305.62
678.01	303.86
678.34	303.10
678.68	303.00
679.02	301.90
679.36	301.14
679.70	299.67
680.04	299.76
680.37	299.29
680.71	298.38
681.05	297.81
681.39	297.48
681.73	296.24
682.06	295.76
682.40	295.05
682.74	295.00
683.08	295.14
683.42	294.33
683.75	294.62
684.09	293.48
684.43	293.57
684.77	293.33
685.10	293.19
685.44	292.62
685.78	292.43
686.12	292.48
686.45	292.33
686.79	291.81
687.13	291.62
687.46	291.10
687.80	291.14
688.14	290.67
688.48	289.81
688.81	289.86
689.15	290.29
689.49	290.33
689.82	289.95
690.16	288.86
690.50	289.10
690.83	288.19
691.17	287.00
691.51	287.05
691.84	287.05
692.18	286.67
692.52	286.90
692.85	286.29
693.19	286.67
693.52	286.10
693.86	285.57
694.20	285.19
694.53	284.86
694.87	284.10
695.21	283.90
695.54	283.86
695.88	282.90
696.21	281.48
696.55	280.67
696.88	279.67
697.22	279.48
697.56	279.33
697.89	278.81
698.23	279.10
698.56	278.10
698.90	277.67
699.23	277.29
699.57	277.05
699.90	276.62
700.24	275.86
700.58	276.29
700.91	277.00
701.25	278.81
701.58	279.29
701.92	280.05
702.25	280.33
702.59	280.57
702.92	281.24
703.26	281.90
703.59	282.57
703.93	285.57
704.26	286.10
704.60	286.29
704.93	286.81
705.26	287.19
705.60	288.10
705.93	288.10
706.27	289.19
706.60	289.71
706.94	290.95
707.27	291.19
707.61	291.14
707.94	290.95
708.27	289.19
708.61	288.48
708.94	287.90
709.28	287.52
709.61	286.43
709.94	285.90
710.28	285.48
710.61	284.76
710.95	281.62
711.28	282.67
711.61	281.86
711.95	281.43
712.28	280.38
712.61	279.67
712.95	280.48
713.28	280.33
713.61	278.95
713.95	277.24
714.28	276.14
714.61	274.95
714.95	273.90
715.28	272.67
715.61	272.10
715.95	271.62
716.28	270.62
716.61	270.76
716.95	269.95
717.28	269.19
717.61	268.86
717.94	268.48
718.28	265.81
718.61	265.00
718.94	263.95
719.27	263.76
719.61	263.29
719.94	261.90
720.27	260.10
720.60	259.57
720.94	259.67
721.27	259.71
721.60	259.95
721.93	259.90
722.27	260.14
722.60	260.24
722.93	259.38
723.26	259.48
723.59	258.76
723.93	259.00
724.26	259.24
724.59	259.05
724.92	259.48
725.25	260.29
725.59	260.86
725.92	261.62
726.25	261.38
726.58	261.24
726.91	261.19
727.24	261.57
727.57	261.62
727.91	260.90
728.24	261.10
728.57	260.57
728.90	260.86
729.23	260.29
729.56	261.52
729.89	262.05
730.22	261.62
730.55	261.86
730.89	262.05
731.22	261.90
731.55	261.52
731.88	261.14
732.21	260.52
732.54	260.14
732.87	259.81
733.20	260.05
733.53	260.29
733.86	260.29
734.19	259.71
734.52	260.29
734.85	262.10
735.18	261.43
735.51	262.38
735.84	262.24
736.17	263.33
736.50	261.57
736.83	264.48
737.16	264.76
737.49	264.38
737.82	263.76
738.15	263.57
738.48	263.57
738.81	263.05
739.14	262.76
739.47	262.57
739.80	262.48
740.13	262.43
740.46	261.71
740.79	261.14
741.12	261.24
741.45	260.57
741.78	259.05
742.11	260.05
742.44	259.33
742.77	259.33
743.10	258.48
743.43	258.24
743.75	255.33
744.08	258.52
744.41	259.00
744.74	258.71
745.07	258.33
745.40	258.48
745.73	259.48
746.06	259.57
746.39	259.67
746.71	259.38
747.04	258.71
747.37	258.95
747.70	259.38
748.03	259.48
748.36	259.62
748.68	259.29
749.01	258.10
749.34	257.90
749.67	257.71
750.00	257.90
750.33	259.81
750.65	259.95
750.98	256.71
751.31	256.24
751.64	256.05
751.97	257.05
752.29	256.86
752.62	256.00
752.95	255.14
753.28	254.43
753.60	254.19
753.93	254.90
754.26	254.57
754.59	253.76
754.91	253.33
755.24	253.14
755.57	253.24
755.90	253.05
756.22	253.00
756.55	252.81
756.88	252.05
757.20	250.24
757.53	249.14
757.86	248.90
758.19	248.90
758.51	249.10
758.84	247.76
759.17	247.48
759.49	247.62
759.82	249.24
760.15	249.48
760.47	249.38
760.80	248.76
761.13	249.43
761.45	249.10
761.78	248.86
762.11	248.71
762.43	248.48
762.76	248.57
763.08	248.67
763.41	248.76
763.74	249.05
764.06	249.05
764.39	249.43
764.71	249.33
765.04	249.05
765.37	248.71
765.69	248.86
766.02	248.71
766.34	248.10
766.67	247.10
767.00	247.52
767.32	248.76
767.65	250.19
767.97	250.00
768.30	250.19
768.62	250.67
768.95	250.05
769.27	249.62
769.60	249.52
769.92	249.05
770.25	248.19
770.57	247.76
770.90	247.57
771.22	246.90
771.55	246.81
771.87	246.86
772.20	247.05
772.52	248.95
772.85	251.90
773.17	252.00
773.50	251.67
773.82	251.14
774.15	250.24
774.47	248.48
774.80	247.76
775.12	247.81
775.45	247.57
775.77	247.81
776.09	248.10
776.42	248.29
776.74	248.81
777.07	248.81
777.39	248.86
777.72	248.86
778.04	249.19
778.36	248.62
778.69	248.33
779.01	248.29
779.33	246.05
779.66	243.33
779.98	242.95
780.31	243.05
780.63	244.19
780.95	244.14
781.28	244.19
781.60	244.05
781.92	244.00
782.25	243.86
782.57	243.86
782.89	243.76
783.22	243.52
783.54	242.90
783.86	243.43
784.19	243.24
784.51	243.81
784.83	243.52
785.16	243.71
785.48	244.38
785.80	244.38
786.12	244.48
786.45	244.29
786.77	244.62
787.09	244.48
787.42	243.52
787.74	243.81
788.06	244.10
788.38	244.29
788.71	244.19
789.03	244.24
789.35	244.67
789.67	244.52
789.99	244.90
790.32	244.95
790.64	245.05
790.96	247.14
791.28	246.24
791.61	246.14
791.93	246.43
792.25	245.90
792.57	247.52
792.89	247.38
793.21	247.52
793.54	247.48
793.86	247.38
794.18	247.86
794.50	246.95
794.82	246.71
795.14	247.10
795.47	247.24
795.79	247.81
796.11	247.14
796.43	246.86
796.75	246.48
797.07	246.43
797.39	246.24
797.71	244.52
798.04	244.90
798.36	245.48
798.68	245.05
799.00	245.48
799.32	244.10
799.64	244.38
799.96	244.43
800.28	245.05
800.60	245.05
800.92	244.86
801.24	245.14
801.56	245.57
801.89	245.00
802.21	245.05
802.53	243.81
802.85	244.43
803.17	245.71
803.49	245.24
803.81	245.00
804.13	244.71
804.45	244.38
804.77	244.43
805.09	244.14
805.41	244.19
805.73	243.52
806.05	242.95
806.37	243.14
806.69	242.90
807.01	242.62
807.33	242.57
807.65	241.76
807.97	242.71
808.28	242.29
808.60	242.48
808.92	242.24
809.24	244.05
809.56	243.67
809.88	242.90
810.20	243.29
810.52	243.90
810.84	243.57
811.16	243.10
811.48	242.86
811.80	243.48
812.12	243.67
812.43	244.38
812.75	244.67
813.07	244.24
813.39	244.14
813.71	243.67
814.03	244.05
814.35	244.05
814.67	243.24
814.98	242.81
815.30	242.67
815.62	242.57
815.94	241.14
816.26	242.24
816.58	241.71
816.89	241.48
817.21	240.86
817.53	241.38
817.85	241.57
818.17	241.57
818.48	240.86
818.80	241.33
819.12	240.71
819.44	240.38
819.76	239.95
820.07	240.38
820.39	240.33
820.71	240.10
821.03	240.24
821.34	240.00
821.66	240.76
821.98	240.81
822.30	240.71
822.61	242.24
822.93	240.71
823.25	240.71
823.57	240.67
823.88	241.24
824.20	240.86
824.52	241.48
824.83	241.62
825.15	241.38
825.47	241.05
825.79	241.48
826.10	241.52
826.42	241.38
826.74	241.24
827.05	241.10
827.37	240.90
827.69	241.00
828.00	241.00
828.32	240.81
828.64	240.48
828.95	241.48
829.27	240.57
829.58	240.81
829.90	241.05
830.22	241.52
830.53	241.05
830.85	241.10
831.17	240.33
831.48	240.38
831.80	240.38
832.11	240.24
832.43	239.81
832.75	239.86
833.06	241.67
833.38	241.24
833.69	241.48
834.01	241.71
834.32	241.33
834.64	241.29
834.96	241.24
835.27	241.33
835.59	241.00
835.90	240.67
836.22	240.76
836.53	240.33
836.85	239.71
837.16	241.95
837.48	242.52
837.79	243.57
838.11	243.43
838.42	243.52
838.74	243.81
839.05	243.52
839.37	243.24
839.68	241.81
840.00	241.81
840.31	242.14
840.63	242.24
840.94	242.33
841.26	242.24
841.57	242.38
841.88	243.00
842.20	242.48
842.51	242.38
842.83	242.19
843.14	244.81
843.46	244.95
843.77	243.48
844.08	242.86
844.40	241.90
844.71	241.81
845.03	241.71
845.34	241.48
845.65	241.67
845.97	241.81
846.28	242.14
846.60	242.05
846.91	241.71
847.22	241.29
847.54	241.90
847.85	241.81
848.16	241.29
848.48	240.76
848.79	241.71
849.10	241.76
849.42	242.05
849.73	239.38
850.04	239.52
850.36	238.90
850.67	239.24
850.98	239.24
851.30	239.52
851.61	239.33
851.92	239.24
852.23	239.90
852.55	240.00
852.86	239.86
853.17	240.10
853.49	240.05
853.80	240.52
854.11	240.62
854.42	241.05
854.74	240.95
855.05	240.86
855.36	239.76
855.67	239.81
855.99	239.62
856.30	242.90
856.61	242.81
856.92	242.95
857.23	242.52
857.55	242.57
857.86	242.38
858.17	242.62
858.48	242.19
858.79	241.43
859.11	241.62
859.42	241.48
859.73	241.62
860.04	241.81
860.35	241.14
860.66	240.38
860.98	240.57
861.29	240.90
861.60	240.71
861.91	241.14
862.22	240.76
862.53	240.33
862.84	237.19
863.16	237.95
863.47	237.57
863.78	237.81
864.09	238.00
864.40	238.05
864.71	238.24
865.02	238.62
865.33	238.43
865.64	237.90
865.95	237.76
866.27	239.05
866.58	238.86
866.89	239.19
867.20	239.38
867.51	238.81
867.82	238.90
868.13	239.76
868.44	239.24
868.75	239.71
869.06	240.19
869.37	240.62
869.68	239.95
869.99	240.33
870.30	240.57
870.61	240.71
870.92	240.48
871.23	240.24
871.54	240.67
871.85	241.52
872.16	242.00
872.47	242.00
872.78	240.62
873.09	241.10
873.40	241.19
873.71	241.10
874.02	241.10
874.33	240.67
874.64	239.86
874.95	240.33
875.26	240.05
875.56	239.90
875.87	239.90
876.18	239.29
876.49	241.76
876.80	241.62
877.11	240.95
877.42	240.86
877.73	241.24
878.04	241.00
878.35	240.76
878.66	240.67
878.96	240.57
879.27	240.43
879.58	239.95
879.89	239.57
880.20	240.48
880.51	240.43
880.82	240.57
881.12	241.00
881.43	240.57
881.74	240.29
882.05	240.00
882.36	240.05
882.67	240.57
882.97	237.95
883.28	237.57
883.59	237.57
883.90	237.67
884.21	237.57
884.51	237.24
884.82	237.00
885.13	236.81
885.44	236.90
885.74	236.81
886.05	236.81
886.36	237.05
886.67	236.24
886.98	237.29
887.28	237.43
887.59	237.29
887.90	237.19
888.20	237.38
888.51	238.52
888.82	238.19
889.13	238.43
889.43	240.38
889.74	240.43
890.05	240.90
890.35	240.95
890.66	240.57
890.97	240.29
891.28	240.00
891.58	240.43
891.89	240.48
892.20	240.19
892.50	240.10
892.81	239.90
893.12	239.67
893.42	238.95
893.73	238.90
894.04	238.76
894.34	239.33
894.65	239.05
894.95	238.24
895.26	238.14
895.57	239.43
895.87	237.24
896.18	237.57
896.48	237.48
896.79	237.57
897.10	238.05
897.40	238.19
897.71	238.43
898.01	238.24
898.32	238.29
898.63	238.57
898.93	238.52
899.24	238.48
899.54	238.14
899.85	238.00
900.15	238.10
900.46	238.29
900.76	238.33
901.07	238.48
901.38	238.52
901.68	238.67
901.99	237.29
902.29	237.57
902.60	237.62
902.90	237.57
903.21	237.33
903.51	237.05
903.82	237.33
904.12	237.38
904.43	237.43
904.73	237.43
905.03	237.62
905.34	239.95
905.64	239.86
905.95	240.10
906.25	240.05
906.56	240.05
906.86	239.86
907.17	239.29
907.47	239.52
907.77	239.19
908.08	238.86
908.38	239.05
908.69	238.67
908.99	238.90
909.30	239.05
909.60	239.38
909.90	239.90
910.21	239.43
910.51	239.29
910.81	239.38
911.12	239.76
911.42	239.62
911.73	237.33
912.03	237.71
912.33	238.48
912.64	238.52
912.94	238.29
913.24	238.29
913.55	238.57
913.85	238.14
914.15	238.76
914.46	239.10
914.76	238.57
915.06	238.62
915.37	238.24
915.67	237.86
915.97	237.86
916.27	237.00
916.58	237.62
916.88	237.48
917.18	237.43
917.49	238.71
917.79	238.62
918.09	239.29
918.39	239.62
918.70	239.19
919.00	239.00
919.30	240.24
919.60	240.33
919.91	240.14
920.21	240.00
920.51	239.38
920.81	239.29
921.12	239.71
921.42	239.71
921.72	239.71
922.02	239.81
922.32	240.10
922.63	240.57
922.93	241.81
923.23	242.05
923.53	241.76
923.83	240.24
924.13	240.67
924.44	240.10
924.74	240.62
925.04	241.48
925.34	241.48
925.64	240.67
925.94	240.38
926.24	241.67
926.55	242.00
926.85	242.62
927.15	242.71
927.45	243.00
927.75	243.24
928.05	243.43
928.35	243.38
928.65	243.76
928.95	243.67
929.26	242.43
929.56	242.86
929.86	242.86
930.16	242.67
930.46	242.10
930.76	242.48
931.06	241.29
931.36	240.33
931.66	240.95
931.96	240.81
932.26	241.14
932.56	240.10
932.86	240.14
933.16	239.90
933.46	239.71
933.76	239.14
934.06	239.52
934.36	240.19
934.66	240.24
934.96	239.86
935.26	240.14
935.56	240.90
935.86	240.14
936.16	239.86
936.46	239.52
936.76	239.43
937.06	238.86
937.36	239.10
937.66	239.52
937.96	239.38
938.26	239.05
938.56	238.90
938.86	239.00
939.16	239.48
939.46	239.67
939.76	239.57
940.06	239.57
940.35	239.00
940.65	237.67
940.95	237.76
941.25	237.05
941.55	236.38
941.85	235.76
942.15	236.38
942.45	237.29
942.75	237.38
943.04	237.90
943.34	238.67
943.64	238.62
943.94	238.19
944.24	237.48
944.54	237.52
944.84	237.00
945.13	236.71
945.43	236.57
945.73	236.57
946.03	236.71
946.33	236.52
946.62	236.62
946.92	236.71
947.22	236.90
947.52	237.29
947.82	237.71
948.11	237.38
948.41	236.81
948.71	236.05
949.01	236.29
949.31	235.90
949.60	235.71
949.90	236.10
950.20	235.90
950.50	236.48
950.79	236.57
951.09	237.05
951.39	237.00
951.69	236.33
951.98	236.71
952.28	236.57
952.58	236.52
952.87	236.71
953.17	237.24
953.47	237.00
953.76	236.95
954.06	236.86
954.36	236.67
954.66	236.67
954.95	237.67
955.25	237.86
955.55	238.10
955.84	237.52
956.14	237.57
956.44	237.62
956.73	237.10
957.03	237.05
957.32	237.10
957.62	236.86
957.92	237.48
958.21	237.05
958.51	240.14
958.81	240.52
959.10	240.48
959.40	240.95
959.69	241.10
959.99	241.43
960.29	241.24
960.58	241.48
960.88	242.62
961.17	242.10
961.47	242.52
961.76	242.19
962.06	242.38
962.36	242.14
962.65	242.29
962.95	242.38
963.24	242.00
963.54	242.19
963.83	242.48
964.13	242.43
964.42	241.90
964.72	239.57
965.01	239.38
965.31	239.24
965.60	238.33
965.90	239.71
966.19	238.86
966.49	239.19
966.78	238.81
967.08	238.14
967.37	238.05
967.67	237.29
967.96	237.67
968.26	237.71
968.55	237.86
968.85	237.67
969.14	237.86
969.43	238.10
969.73	237.71
970.02	237.76
970.32	237.67
970.61	237.86
970.91	237.19
971.20	237.00
971.49	236.86
971.79	237.33
972.08	235.67
972.38	236.14
972.67	235.95
972.96	236.52
973.26	236.19
973.55	236.90
973.85	236.86
974.14	236.86
974.43	237.19
974.73	236.71
975.02	236.67
975.31	236.86
975.61	236.90
975.90	236.76
976.19	236.29
976.49	236.29
976.78	236.48
977.07	236.38
977.37	236.43
977.66	236.62
977.95	236.33
978.24	236.57
978.54	237.14
978.83	236.67
979.12	236.43
979.42	236.62
979.71	236.14
980.00	236.05
980.29	235.90
980.59	235.33
980.88	235.90
981.17	235.81
981.46	235.57
981.76	235.24
982.05	236.14
982.34	236.10
982.63	236.10
982.93	235.86
983.22	236.67
983.51	236.86
983.80	237.19
984.09	237.52
984.39	237.19
984.68	237.10
984.97	237.29
985.26	237.10
985.55	236.95
985.85	236.52
986.14	236.95
986.43	237.43
986.72	237.24
987.01	237.05
987.30	237.05
987.59	236.57
987.89	236.76
988.18	236.10
988.47	236.10
988.76	235.86
989.05	235.90
989.34	235.76
989.63	236.48
989.92	236.29
990.22	235.81
990.51	236.14
990.80	235.57
991.09	235.52
991.38	235.81
991.67	235.76
991.96	235.81
992.25	235.81
992.54	235.57
992.83	235.95
993.12	235.48
993.41	235.90
993.70	237.05
993.99	237.95
994.28	238.48
994.58	239.05
994.87	238.81
995.16	238.95
995.45	238.48
995.74	237.71
996.03	237.86
996.32	238.48
996.61	239.24
996.90	239.33
997.19	239.86
997.48	239.95
997.77	239.81
998.06	240.00
998.34	240.14
998.63	239.90
998.92	239.86
999.21	240.43
999.50	240.57
999.79	240.05
1000.08	239.67
1000.37	239.57
1000.66	239.71
1000.95	240.62
1001.24	240.67
1001.53	241.14
1001.82	241.14
1002.11	240.48
1002.40	240.90
1002.68	241.14
1002.97	243.00
1003.26	242.52
1003.55	242.19
1003.84	242.76
1004.13	243.48
1004.42	242.81
1004.71	242.90
1004.99	242.90
1005.28	243.19
1005.57	243.10
1005.86	242.86
1006.15	242.62
1006.44	241.95
1006.72	241.95
1007.01	241.71
1007.30	241.38
1007.59	241.38
1007.88	241.62
1008.17	241.90
1008.45	241.33
1008.74	240.38
1009.03	239.05
1009.32	239.05
1009.60	238.90
1009.89	238.24
1010.18	236.95
1010.47	237.14
1010.76	237.14
1011.04	236.95
1011.33	236.81
1011.62	236.86
1011.91	236.81
1012.19	236.90
1012.48	237.29
1012.77	236.95
1013.05	238.00
1013.34	238.19
1013.63	238.05
1013.92	238.00
1014.20	237.95
1014.49	237.67
1014.78	237.71
1015.06	237.24
1015.35	237.24
1015.64	237.90
1015.92	238.43
1016.21	238.81
1016.50	238.86
1016.78	239.14
1017.07	239.24
1017.36	238.76
1017.64	238.48
1017.93	238.86
1018.22	238.71
1018.50	238.48
1018.79	238.76
1019.08	237.33
1019.36	237.38
1019.65	237.00
1019.93	237.38
1020.22	237.81
1020.51	239.24
1020.79	238.90
1021.08	236.00
1021.36	232.00
1021.65	242.00
1021.94	235.00
1022.22	237.00
1022.51	235.00
1022.79	247.00
1023.08	244.00
1023.36	267.00
1023.65	230.00
>>>>>End Processed Spectral Data<<<<<
