SpectraSuite Data File
++++++++++++++++++++++++++++++++++++
Date: Wed Nov 07 18:32:25 EST 2012
User: group
Dark Spectrum Present: No
Reference Spectrum Present: No
Number of Sampled Component Spectra: 1
Spectrometers: USB2E7196
Integration Time (usec): 1000000 (USB2E7196)
Spectra Averaged: 1 (USB2E7196)
Boxcar Smoothing: 10 (USB2E7196)
Correct for Electrical Dark: No (USB2E7196)
Strobe/Lamp Enabled: No (USB2E7196)
Correct for Detector Non-linearity: No (USB2E7196)
Correct for Stray Light: No (USB2E7196)
Number of Pixels in Processed Spectrum: 2048
>>>>>Begin Processed Spectral Data<<<<<
339.09	0.00
339.48	217.00
339.86	222.00
340.24	227.00
340.63	222.00
341.01	264.00
341.39	236.00
341.78	233.00
342.16	243.00
342.54	232.00
342.93	224.43
343.31	235.43
343.69	236.05
344.07	236.67
344.46	237.05
344.84	238.29
345.22	237.05
345.60	237.24
345.99	237.52
346.37	237.05
346.75	237.05
347.13	237.14
347.52	237.38
347.90	238.38
348.28	238.14
348.66	238.76
349.05	238.10
349.43	238.48
349.81	238.24
350.19	238.52
350.57	238.86
350.96	239.14
351.34	239.62
351.72	239.81
352.10	239.57
352.48	239.33
352.87	238.24
353.25	238.33
353.63	238.29
354.01	238.00
354.39	238.38
354.77	238.38
355.15	239.00
355.54	238.76
355.92	237.71
356.30	238.00
356.68	239.38
357.06	239.67
357.44	239.24
357.82	239.33
358.20	239.10
358.58	238.67
358.97	238.62
359.35	238.71
359.73	239.10
360.11	239.24
360.49	239.76
360.87	240.29
361.25	240.33
361.63	240.90
362.01	240.95
362.39	240.71
362.77	240.86
363.15	241.05
363.53	241.14
363.91	240.95
364.29	240.57
364.67	238.19
365.05	238.05
365.43	238.33
365.81	238.57
366.19	239.90
366.57	240.95
366.95	240.76
367.33	240.62
367.71	240.57
368.09	240.95
368.47	240.81
368.85	240.33
369.23	240.76
369.61	239.76
369.99	240.71
370.37	240.81
370.75	242.38
371.13	241.43
371.51	240.95
371.89	241.24
372.27	241.38
372.65	241.43
373.03	241.38
373.41	241.33
373.78	240.76
374.16	239.43
374.54	238.86
374.92	238.52
375.30	238.10
375.68	237.86
376.06	237.95
376.44	237.57
376.82	238.10
377.19	237.76
377.57	238.14
377.95	237.24
378.33	237.29
378.71	235.71
379.09	236.19
379.47	236.52
379.84	236.48
380.22	236.38
380.60	235.81
380.98	236.00
381.36	235.71
381.73	235.95
382.11	236.38
382.49	236.57
382.87	236.57
383.25	236.86
383.62	239.95
384.00	239.29
384.38	239.57
384.76	240.29
385.13	241.57
385.51	241.14
385.89	241.14
386.27	241.33
386.64	241.57
387.02	241.43
387.40	241.24
387.78	241.38
388.15	241.48
388.53	241.62
388.91	241.67
389.29	241.71
389.66	241.52
390.04	241.38
390.42	241.43
390.79	241.62
391.17	241.62
391.55	238.19
391.92	238.48
392.30	238.81
392.68	238.14
393.05	237.62
393.43	238.29
393.81	238.62
394.18	238.14
394.56	237.90
394.94	238.67
395.31	238.33
395.69	239.05
396.06	239.43
396.44	239.90
396.82	239.86
397.19	241.38
397.57	241.05
397.95	241.29
398.32	240.71
398.70	241.14
399.07	241.81
399.45	242.10
399.82	242.29
400.20	242.00
400.58	241.95
400.95	241.10
401.33	241.24
401.70	242.86
402.08	243.14
402.45	243.71
402.83	244.05
403.20	244.48
403.58	244.38
403.95	244.90
404.33	245.19
404.71	245.62
405.08	246.90
405.46	247.95
405.83	248.33
406.21	248.76
406.58	249.24
406.96	249.52
407.33	250.29
407.70	250.90
408.08	253.38
408.45	254.48
408.83	255.76
409.20	256.29
409.58	255.62
409.95	256.95
410.33	257.81
410.70	257.81
411.08	259.43
411.45	260.52
411.82	261.19
412.20	263.10
412.57	265.62
412.95	264.86
413.32	266.81
413.69	268.48
414.07	270.10
414.44	272.14
414.82	274.10
415.19	276.52
415.56	278.76
415.94	280.05
416.31	282.76
416.68	285.52
417.06	288.86
417.43	292.48
417.81	296.00
418.18	299.86
418.55	303.71
418.93	307.57
419.30	311.62
419.67	316.67
420.04	320.52
420.42	324.48
420.79	332.38
421.16	337.62
421.54	344.48
421.91	351.29
422.28	357.29
422.66	363.95
423.03	372.43
423.40	379.71
423.77	386.90
424.15	394.24
424.52	402.57
424.89	411.43
425.26	419.29
425.64	426.95
426.01	434.71
426.38	443.43
426.75	452.76
427.13	462.29
427.50	471.71
427.87	481.90
428.24	491.95
428.61	499.81
428.99	511.43
429.36	522.05
429.73	533.43
430.10	545.67
430.47	558.29
430.85	568.76
431.22	581.52
431.59	597.43
431.96	610.67
432.33	624.90
432.70	638.95
433.08	655.00
433.45	670.90
433.82	686.14
434.19	703.81
434.56	719.86
434.93	735.48
435.30	751.00
435.68	768.67
436.05	784.86
436.42	801.10
436.79	816.19
437.16	832.71
437.53	849.90
437.90	865.43
438.27	881.52
438.64	898.57
439.01	915.05
439.38	926.76
439.75	940.33
440.13	954.71
440.50	967.95
440.87	979.10
441.24	989.24
441.61	1001.71
441.98	1011.48
442.35	1022.19
442.72	1033.86
443.09	1045.48
443.46	1051.00
443.83	1055.19
444.20	1058.62
444.57	1063.00
444.94	1064.05
445.31	1065.86
445.68	1071.29
446.05	1070.48
446.42	1067.19
446.79	1063.86
447.16	1060.24
447.53	1057.14
447.90	1049.24
448.27	1041.71
448.64	1032.14
449.01	1025.71
449.37	1014.10
449.74	1001.14
450.11	990.24
450.48	973.57
450.85	957.52
451.22	944.24
451.59	931.86
451.96	919.43
452.33	904.10
452.70	889.71
453.07	872.38
453.43	852.33
453.80	836.10
454.17	820.48
454.54	805.33
454.91	789.76
455.28	773.95
455.65	759.71
456.02	749.76
456.38	737.52
456.75	722.33
457.12	709.38
457.49	697.38
457.86	683.10
458.23	674.19
458.59	662.95
458.96	652.14
459.33	642.29
459.70	632.67
460.07	624.43
460.43	615.57
460.80	607.71
461.17	599.76
461.54	591.90
461.91	584.19
462.27	576.29
462.64	569.19
463.01	562.76
463.38	557.29
463.74	545.86
464.11	539.67
464.48	534.76
464.85	529.71
465.21	525.67
465.58	521.48
465.95	515.10
466.32	510.48
466.68	505.52
467.05	501.29
467.42	496.86
467.78	491.52
468.15	487.10
468.52	484.05
468.88	479.67
469.25	476.00
469.62	473.67
469.98	469.81
470.35	466.67
470.72	463.19
471.08	458.29
471.45	456.24
471.82	453.62
472.18	450.43
472.55	448.62
472.92	444.81
473.28	441.29
473.65	438.57
474.02	435.76
474.38	433.71
474.75	431.71
475.11	429.52
475.48	428.05
475.85	426.48
476.21	424.57
476.58	424.00
476.94	423.05
477.31	421.90
477.67	421.00
478.04	420.38
478.41	420.14
478.77	422.71
479.14	421.71
479.50	421.38
479.87	421.52
480.23	421.05
480.60	421.62
480.96	422.10
481.33	424.29
481.69	424.81
482.06	425.43
482.42	425.90
482.79	426.52
483.15	427.81
483.52	429.00
483.88	429.14
484.25	429.52
484.61	430.10
484.98	430.62
485.34	432.81
485.71	434.29
486.07	435.76
486.44	434.62
486.80	435.86
487.17	436.67
487.53	438.81
487.90	440.62
488.26	443.38
488.62	445.62
488.99	446.05
489.35	447.95
489.72	449.90
490.08	451.67
490.44	453.62
490.81	455.38
491.17	457.29
491.54	460.19
491.90	462.71
492.26	465.29
492.63	468.33
492.99	469.67
493.36	472.10
493.72	474.81
494.08	477.67
494.45	481.86
494.81	486.05
495.17	488.52
495.54	492.00
495.90	494.71
496.26	498.29
496.63	502.81
496.99	506.29
497.35	510.29
497.72	514.95
498.08	519.19
498.44	524.10
498.80	528.67
499.17	532.14
499.53	535.95
499.89	540.52
500.26	544.33
500.62	549.81
500.98	554.95
501.34	559.19
501.71	564.29
502.07	568.48
502.43	572.71
502.79	577.43
503.16	582.48
503.52	587.48
503.88	591.52
504.24	595.81
504.60	601.81
504.97	606.52
505.33	611.10
505.69	616.81
506.05	621.29
506.41	626.33
506.78	632.24
507.14	637.71
507.50	643.38
507.86	649.14
508.22	654.14
508.59	659.29
508.95	664.71
509.31	671.29
509.67	676.43
510.03	681.52
510.39	686.67
510.75	691.05
511.12	695.62
511.48	701.48
511.84	706.43
512.20	710.86
512.56	716.24
512.92	721.14
513.28	725.38
513.64	729.43
514.00	734.81
514.37	739.43
514.73	744.14
515.09	748.48
515.45	753.19
515.81	758.00
516.17	762.05
516.53	766.38
516.89	769.00
517.25	773.10
517.61	778.52
517.97	782.57
518.33	787.43
518.69	792.19
519.05	796.14
519.41	799.71
519.77	805.29
520.13	808.48
520.49	811.48
520.85	814.90
521.21	819.67
521.57	822.29
521.93	824.48
522.29	829.00
522.65	831.86
523.01	834.29
523.37	836.43
523.73	838.62
524.09	840.86
524.45	842.95
524.81	844.57
525.17	845.67
525.53	848.86
525.89	849.95
526.25	851.10
526.61	852.90
526.97	854.76
527.33	854.86
527.68	858.52
528.04	860.19
528.40	861.81
528.76	863.38
529.12	864.81
529.48	866.86
529.84	866.43
530.20	866.86
530.56	868.81
530.91	869.86
531.27	871.48
531.63	872.24
531.99	873.38
532.35	874.95
532.71	874.81
533.07	874.57
533.42	878.24
533.78	878.95
534.14	879.86
534.50	880.62
534.86	883.00
535.21	881.19
535.57	883.29
535.93	883.81
536.29	885.19
536.65	886.62
537.00	888.00
537.36	890.38
537.72	893.10
538.08	895.62
538.44	897.62
538.79	900.10
539.15	902.81
539.51	905.62
539.87	907.95
540.22	911.00
540.58	913.86
540.94	913.95
541.29	917.43
541.65	918.81
542.01	921.81
542.37	922.38
542.72	924.00
543.08	923.90
543.44	925.29
543.79	924.38
544.15	925.00
544.51	924.86
544.87	923.52
545.22	922.24
545.58	919.52
545.94	918.00
546.29	915.38
546.65	912.86
547.01	909.95
547.36	907.14
547.72	904.29
548.07	900.86
548.43	897.38
548.79	892.76
549.14	889.10
549.50	885.95
549.86	882.71
550.21	880.52
550.57	878.67
550.92	875.38
551.28	873.14
551.64	870.10
551.99	868.10
552.35	865.81
552.70	862.38
553.06	860.14
553.41	857.52
553.77	857.19
554.13	855.67
554.48	854.29
554.84	852.76
555.19	851.43
555.55	851.95
555.90	850.33
556.26	847.90
556.61	846.43
556.97	843.38
557.32	840.62
557.68	838.05
558.03	835.86
558.39	833.76
558.74	831.95
559.10	829.95
559.45	827.81
559.81	826.05
560.16	825.67
560.52	824.38
560.87	822.95
561.23	819.38
561.58	819.67
561.94	817.00
562.29	815.10
562.64	813.71
563.00	809.76
563.35	808.57
563.71	808.05
564.06	806.52
564.42	805.24
564.77	804.00
565.12	803.52
565.48	804.43
565.83	804.71
566.19	802.90
566.54	801.38
566.89	799.52
567.25	799.24
567.60	799.14
567.96	799.57
568.31	800.62
568.66	800.76
569.02	796.95
569.37	795.81
569.72	795.52
570.08	793.76
570.43	791.95
570.78	790.14
571.14	788.62
571.49	787.29
571.84	786.76
572.20	785.57
572.55	784.48
572.90	780.14
573.26	777.86
573.61	776.76
573.96	775.48
574.31	774.29
574.67	771.57
575.02	769.67
575.37	766.38
575.72	763.71
576.08	761.95
576.43	760.52
576.78	759.38
577.13	756.71
577.49	755.19
577.84	754.33
578.19	753.29
578.54	751.95
578.90	751.38
579.25	749.90
579.60	748.10
579.95	746.90
580.30	746.43
580.66	745.33
581.01	743.95
581.36	742.00
581.71	740.71
582.06	740.48
582.42	739.00
582.77	737.10
583.12	734.57
583.47	733.14
583.82	732.00
584.17	730.57
584.53	730.33
584.88	729.10
585.23	728.14
585.58	725.62
585.93	723.62
586.28	721.52
586.63	720.05
586.98	719.00
587.34	716.86
587.69	713.90
588.04	710.95
588.39	708.67
588.74	706.90
589.09	705.33
589.44	701.90
589.79	698.57
590.14	695.57
590.49	693.19
590.84	689.14
591.19	686.19
591.54	683.38
591.89	679.52
592.25	678.52
592.60	674.71
592.95	672.10
593.30	669.81
593.65	665.81
594.00	661.86
594.35	665.00
594.70	660.52
595.05	657.52
595.40	654.67
595.75	651.48
596.10	649.10
596.45	645.57
596.80	643.00
597.15	640.43
597.50	637.71
597.85	635.71
598.19	633.43
598.54	630.81
598.89	627.29
599.24	625.00
599.59	620.52
599.94	617.48
600.29	614.67
600.64	611.90
600.99	610.90
601.34	609.00
601.69	600.10
602.04	597.67
602.39	595.24
602.74	593.05
603.08	591.19
603.43	589.05
603.78	587.33
604.13	585.24
604.48	583.14
604.83	582.57
605.18	581.48
605.53	582.00
605.87	583.52
606.22	587.62
606.57	591.86
606.92	596.10
607.27	602.24
607.62	608.67
607.96	614.33
608.31	618.48
608.66	622.38
609.01	626.29
609.36	630.76
609.70	634.29
610.05	637.10
610.40	639.71
610.75	641.24
611.10	642.86
611.44	644.57
611.79	645.10
612.14	645.24
612.49	643.48
612.83	641.10
613.18	637.33
613.53	632.33
613.88	625.76
614.22	618.67
614.57	610.33
614.92	601.43
615.27	593.19
615.61	585.33
615.96	578.00
616.31	571.38
616.65	565.10
617.00	558.67
617.35	553.00
617.70	547.24
618.04	542.38
618.39	536.76
618.74	532.38
619.08	527.95
619.43	523.43
619.78	519.90
620.12	516.67
620.47	513.76
620.82	509.67
621.16	506.57
621.51	505.05
621.85	501.86
622.20	500.10
622.55	497.52
622.89	495.57
623.24	493.29
623.59	490.57
623.93	488.05
624.28	485.86
624.62	486.24
624.97	485.19
625.32	482.52
625.66	480.81
626.01	478.52
626.35	477.05
626.70	475.76
627.04	475.05
627.39	473.29
627.73	472.33
628.08	470.52
628.43	467.95
628.77	464.76
629.12	463.14
629.46	460.62
629.81	458.76
630.15	456.33
630.50	454.05
630.84	452.19
631.19	450.05
631.53	448.00
631.88	442.81
632.22	439.29
632.57	438.05
632.91	435.33
633.26	432.95
633.60	430.24
633.95	427.14
634.29	423.76
634.64	420.95
634.98	417.52
635.32	416.19
635.67	414.38
636.01	412.19
636.36	410.38
636.70	409.14
637.05	406.86
637.39	404.86
637.73	403.43
638.08	402.10
638.42	400.10
638.77	399.19
639.11	397.86
639.45	396.52
639.80	394.10
640.14	392.95
640.49	391.33
640.83	390.19
641.17	389.10
641.52	387.71
641.86	387.48
642.20	387.38
642.55	385.52
642.89	385.05
643.23	384.14
643.58	384.05
643.92	382.33
644.26	381.52
644.61	381.48
644.95	380.62
645.29	379.19
645.64	379.48
645.98	378.29
646.32	378.05
646.66	377.10
647.01	376.33
647.35	375.90
647.69	375.43
648.04	374.86
648.38	374.14
648.72	373.33
649.06	371.19
649.41	369.38
649.75	368.38
650.09	366.86
650.43	365.95
650.78	363.52
651.12	362.19
651.46	361.10
651.80	359.29
652.14	357.71
652.49	357.05
652.83	355.10
653.17	353.14
653.51	351.48
653.85	350.38
654.20	349.48
654.54	347.62
654.88	345.76
655.22	344.19
655.56	342.90
655.90	342.24
656.25	341.95
656.59	341.10
656.93	340.62
657.27	340.71
657.61	339.24
657.95	339.19
658.29	338.86
658.64	338.43
658.98	337.33
659.32	336.81
659.66	335.76
660.00	335.52
660.34	335.76
660.68	334.90
661.02	334.00
661.36	333.29
661.70	332.38
662.05	331.71
662.39	331.90
662.73	332.00
663.07	332.43
663.41	331.67
663.75	330.62
664.09	329.86
664.43	328.19
664.77	328.00
665.11	326.90
665.45	325.76
665.79	325.33
666.13	324.62
666.47	323.90
666.81	323.62
667.15	322.24
667.49	321.67
667.83	321.81
668.17	321.00
668.51	320.05
668.85	320.33
669.19	320.86
669.53	319.19
669.87	318.14
670.21	316.43
670.55	315.76
670.89	316.24
671.23	315.33
671.57	314.76
671.91	313.86
672.25	313.48
672.58	313.90
672.92	312.43
673.26	311.95
673.60	311.38
673.94	310.62
674.28	310.14
674.62	309.76
674.96	308.67
675.30	308.57
675.64	308.24
675.97	307.48
676.31	306.19
676.65	305.86
676.99	305.76
677.33	304.67
677.67	304.24
678.01	302.67
678.34	302.43
678.68	302.33
679.02	301.67
679.36	301.10
679.70	299.67
680.04	299.38
680.37	298.86
680.71	298.33
681.05	297.95
681.39	297.48
681.73	296.62
682.06	295.86
682.40	295.19
682.74	295.24
683.08	295.86
683.42	295.86
683.75	296.29
684.09	295.71
684.43	295.76
684.77	294.95
685.10	294.76
685.44	294.43
685.78	294.19
686.12	294.24
686.45	293.62
686.79	293.62
687.13	294.00
687.46	293.81
687.80	293.95
688.14	293.05
688.48	293.10
688.81	292.90
689.15	293.38
689.49	292.86
689.82	292.24
690.16	290.48
690.50	289.76
690.83	288.90
691.17	288.14
691.51	287.67
691.84	287.86
692.18	287.43
692.52	286.86
692.85	286.48
693.19	287.10
693.52	287.00
693.86	285.90
694.20	285.24
694.53	285.05
694.87	284.29
695.21	284.19
695.54	284.10
695.88	282.86
696.21	281.62
696.55	281.29
696.88	280.52
697.22	280.38
697.56	280.62
697.89	280.05
698.23	280.00
698.56	279.43
698.90	279.24
699.23	278.76
699.57	278.71
699.90	278.14
700.24	276.86
700.58	276.71
700.91	277.62
701.25	279.29
701.58	280.05
701.92	280.81
702.25	281.19
702.59	281.00
702.92	282.10
703.26	282.52
703.59	283.24
703.93	285.81
704.26	286.24
704.60	286.05
704.93	286.33
705.26	286.14
705.60	287.33
705.93	287.19
706.27	288.24
706.60	289.00
706.94	290.24
707.27	290.71
707.61	291.19
707.94	290.71
708.27	288.57
708.61	287.95
708.94	287.29
709.28	286.62
709.61	285.90
709.94	285.43
710.28	284.95
710.61	284.52
710.95	281.81
711.28	283.05
711.61	282.38
711.95	282.38
712.28	281.67
712.61	280.43
712.95	281.14
713.28	281.38
713.61	279.86
713.95	277.95
714.28	277.48
714.61	276.48
714.95	275.76
715.28	274.95
715.61	273.76
715.95	273.52
716.28	272.95
716.61	272.90
716.95	271.67
717.28	271.48
717.61	270.48
717.94	270.14
718.28	267.67
718.61	267.10
718.94	266.10
719.27	265.76
719.61	265.57
719.94	264.24
720.27	262.48
720.60	262.24
720.94	262.00
721.27	261.76
721.60	261.71
721.93	261.29
722.27	261.76
722.60	261.86
722.93	261.10
723.26	260.86
723.59	260.24
723.93	260.57
724.26	260.52
724.59	260.29
724.92	260.00
725.25	260.76
725.59	260.67
725.92	260.76
726.25	260.52
726.58	260.57
726.91	260.10
727.24	260.48
727.57	260.29
727.91	260.05
728.24	259.81
728.57	259.29
728.90	259.48
729.23	258.71
729.56	259.71
729.89	259.57
730.22	259.24
730.55	258.76
730.89	258.71
731.22	258.24
731.55	258.14
731.88	258.33
732.21	257.57
732.54	257.38
732.87	257.29
733.20	257.24
733.53	256.90
733.86	257.33
734.19	256.67
734.52	256.90
734.85	258.48
735.18	258.14
735.51	259.05
735.84	259.10
736.17	259.76
736.50	258.48
736.83	261.10
737.16	261.33
737.49	261.86
737.82	261.62
738.15	262.14
738.48	262.05
738.81	261.43
739.14	260.95
739.47	260.62
739.80	260.19
740.13	260.24
740.46	259.71
740.79	259.24
741.12	259.33
741.45	258.81
741.78	257.38
742.11	257.67
742.44	256.90
742.77	257.10
743.10	256.52
743.43	256.14
743.75	253.71
744.08	256.67
744.41	256.52
744.74	256.10
745.07	255.19
745.40	255.52
745.73	256.71
746.06	257.10
746.39	257.38
746.71	257.19
747.04	257.24
747.37	257.29
747.70	258.00
748.03	257.86
748.36	258.33
748.68	258.43
749.01	257.76
749.34	257.52
749.67	257.48
750.00	257.76
750.33	259.48
750.65	259.71
750.98	256.71
751.31	256.33
751.64	256.71
751.97	258.00
752.29	257.95
752.62	256.71
752.95	256.24
753.28	255.90
753.60	255.86
753.93	256.24
754.26	256.38
754.59	255.38
754.91	255.05
755.24	254.43
755.57	253.76
755.90	253.95
756.22	254.10
756.55	253.43
756.88	252.86
757.20	251.24
757.53	250.24
757.86	250.38
758.19	250.48
758.51	250.29
758.84	248.76
759.17	248.24
759.49	248.43
759.82	249.57
760.15	249.81
760.47	249.86
760.80	249.05
761.13	249.10
761.45	248.81
761.78	248.76
762.11	248.86
762.43	249.05
762.76	248.67
763.08	248.33
763.41	248.67
763.74	248.81
764.06	248.90
764.39	249.14
764.71	248.71
765.04	248.38
765.37	248.10
765.69	248.43
766.02	247.95
766.34	247.62
766.67	246.29
767.00	246.19
767.32	247.86
767.65	249.48
767.97	249.14
768.30	249.33
768.62	249.62
768.95	249.57
769.27	249.33
769.60	249.57
769.92	249.38
770.25	248.95
770.57	248.29
770.90	248.10
771.22	247.62
771.55	247.52
771.87	248.05
772.20	248.00
772.52	249.95
772.85	253.43
773.17	253.52
773.50	253.81
773.82	253.95
774.15	252.14
774.47	250.48
774.80	250.24
775.12	250.24
775.45	250.19
775.77	250.05
776.09	250.29
776.42	250.76
776.74	251.67
777.07	251.33
777.39	251.62
777.72	251.14
778.04	251.90
778.36	251.62
778.69	251.29
779.01	251.57
779.33	249.48
779.66	246.33
779.98	245.86
780.31	245.81
780.63	246.29
780.95	246.95
781.28	246.67
781.60	246.67
781.92	246.33
782.25	246.05
782.57	246.29
782.89	245.76
783.22	245.05
783.54	244.24
783.86	244.71
784.19	244.48
784.51	245.38
784.83	244.86
785.16	244.90
785.48	244.81
785.80	244.67
786.12	244.81
786.45	244.81
786.77	245.14
787.09	245.00
787.42	244.43
787.74	244.19
788.06	244.62
788.38	244.52
788.71	244.52
789.03	244.71
789.35	244.48
789.67	244.33
789.99	244.43
790.32	244.33
790.64	244.52
790.96	246.57
791.28	245.86
791.61	245.67
791.93	245.90
792.25	245.81
792.57	247.52
792.89	247.00
793.21	247.14
793.54	246.67
793.86	246.71
794.18	246.90
794.50	246.38
794.82	246.05
795.14	246.67
795.47	247.33
795.79	247.33
796.11	247.10
796.43	247.10
796.75	247.38
797.07	247.19
797.39	246.71
797.71	244.95
798.04	245.10
798.36	245.33
798.68	245.33
799.00	245.67
799.32	244.10
799.64	244.52
799.96	244.57
800.28	245.48
800.60	245.05
800.92	245.00
801.24	245.00
801.56	245.24
801.89	244.67
802.21	244.29
802.53	244.00
802.85	244.52
803.17	245.48
803.49	244.95
803.81	245.33
804.13	245.29
804.45	244.95
804.77	245.10
805.09	244.71
805.41	244.43
805.73	243.90
806.05	243.57
806.37	243.43
806.69	243.29
807.01	242.90
807.33	243.14
807.65	242.38
807.97	243.43
808.28	243.29
808.60	243.29
808.92	243.24
809.24	244.95
809.56	244.38
809.88	243.86
810.20	243.86
810.52	243.90
810.84	243.52
811.16	243.38
811.48	243.29
811.80	244.38
812.12	244.43
812.43	244.81
812.75	245.05
813.07	244.86
813.39	244.95
813.71	244.62
814.03	244.48
814.35	244.57
814.67	243.71
814.98	243.71
815.30	243.71
815.62	243.29
815.94	241.19
816.26	242.33
816.58	241.71
816.89	242.05
817.21	241.57
817.53	241.76
817.85	242.05
818.17	241.62
818.48	240.52
818.80	240.67
819.12	240.19
819.44	239.86
819.76	239.76
820.07	239.71
820.39	239.67
820.71	239.57
821.03	239.48
821.34	239.10
821.66	239.62
821.98	239.71
822.30	239.81
822.61	241.86
822.93	240.81
823.25	241.10
823.57	240.52
823.88	241.05
824.20	241.05
824.52	241.24
824.83	241.38
825.15	241.48
825.47	241.71
825.79	241.86
826.10	241.71
826.42	241.38
826.74	241.62
827.05	241.67
827.37	242.10
827.69	242.33
828.00	242.81
828.32	242.38
828.64	242.33
828.95	243.67
829.27	242.43
829.58	242.38
829.90	242.62
830.22	242.57
830.53	242.05
830.85	241.86
831.17	241.33
831.48	241.38
831.80	241.67
832.11	241.48
832.43	241.33
832.75	241.24
833.06	242.90
833.38	242.38
833.69	242.52
834.01	242.38
834.32	242.19
834.64	241.62
834.96	241.38
835.27	241.62
835.59	240.48
835.90	239.90
836.22	239.86
836.53	239.43
836.85	239.67
837.16	242.14
837.48	242.29
837.79	242.81
838.11	242.67
838.42	242.24
838.74	242.38
839.05	242.24
839.37	242.38
839.68	241.05
840.00	240.86
840.31	241.14
840.63	241.14
840.94	240.95
841.26	240.86
841.57	241.00
841.88	241.14
842.20	240.90
842.51	240.71
842.83	240.57
843.14	242.90
843.46	242.86
843.77	241.19
844.08	241.00
844.40	240.62
844.71	240.43
845.03	240.24
845.34	239.81
845.65	239.71
845.97	239.19
846.28	239.00
846.60	239.24
846.91	238.86
847.22	238.57
847.54	238.95
847.85	239.14
848.16	239.24
848.48	238.71
848.79	239.62
849.10	240.19
849.42	240.86
849.73	238.29
850.04	238.10
850.36	237.57
850.67	237.90
850.98	237.81
851.30	238.14
851.61	238.38
851.92	238.86
852.23	239.67
852.55	240.38
852.86	240.67
853.17	240.71
853.49	241.48
853.80	242.00
854.11	242.19
854.42	242.52
854.74	242.14
855.05	242.29
855.36	241.24
855.67	240.95
855.99	240.71
856.30	243.76
856.61	244.05
856.92	243.76
857.23	243.52
857.55	243.33
857.86	243.10
858.17	243.76
858.48	243.05
858.79	242.71
859.11	242.86
859.42	242.76
859.73	242.48
860.04	241.81
860.35	241.05
860.66	240.52
860.98	240.38
861.29	240.43
861.60	240.05
861.91	240.48
862.22	240.00
862.53	239.86
862.84	237.00
863.16	237.62
863.47	237.24
863.78	237.14
864.09	237.19
864.40	237.67
864.71	237.33
865.02	237.48
865.33	237.00
865.64	236.48
865.95	236.52
866.27	238.29
866.58	238.29
866.89	238.71
867.20	238.95
867.51	238.76
867.82	238.71
868.13	239.86
868.44	239.48
868.75	240.29
869.06	240.19
869.37	240.62
869.68	239.52
869.99	240.10
870.30	240.24
870.61	240.43
870.92	240.10
871.23	239.90
871.54	240.48
871.85	241.24
872.16	241.19
872.47	241.10
872.78	239.62
873.09	239.81
873.40	239.62
873.71	239.33
874.02	239.57
874.33	239.52
874.64	238.67
874.95	239.24
875.26	238.71
875.56	238.76
875.87	238.62
876.18	238.71
876.49	241.33
876.80	241.05
877.11	240.90
877.42	240.71
877.73	240.48
878.04	239.95
878.35	239.71
878.66	239.81
878.96	239.67
879.27	239.52
879.58	239.43
879.89	239.29
880.20	240.24
880.51	239.90
880.82	240.00
881.12	240.00
881.43	239.67
881.74	239.48
882.05	239.43
882.36	239.57
882.67	239.86
882.97	237.24
883.28	237.52
883.59	237.71
883.90	237.95
884.21	238.29
884.51	238.05
884.82	237.62
885.13	237.86
885.44	237.86
885.74	237.90
886.05	237.57
886.36	237.57
886.67	236.57
886.98	238.14
887.28	238.24
887.59	238.38
887.90	238.33
888.20	238.38
888.51	238.90
888.82	238.57
889.13	238.95
889.43	240.95
889.74	240.86
890.05	240.90
890.35	240.67
890.66	240.76
890.97	240.90
891.28	241.00
891.58	241.19
891.89	241.43
892.20	241.24
892.50	241.43
892.81	241.33
893.12	241.43
893.42	239.81
893.73	240.19
894.04	240.24
894.34	240.14
894.65	239.95
894.95	239.71
895.26	239.62
895.57	240.52
895.87	238.29
896.18	238.71
896.48	238.29
896.79	238.52
897.10	238.86
897.40	238.95
897.71	239.38
898.01	238.95
898.32	239.00
898.63	239.19
898.93	239.24
899.24	239.33
899.54	239.00
899.85	239.05
900.15	238.71
900.46	238.52
900.76	238.86
901.07	238.86
901.38	238.48
901.68	238.95
901.99	237.67
902.29	237.62
902.60	237.33
902.90	237.43
903.21	237.10
903.51	236.71
903.82	237.14
904.12	237.14
904.43	237.52
904.73	237.33
905.03	237.19
905.34	239.57
905.64	239.67
905.95	240.00
906.25	240.24
906.56	240.14
906.86	240.48
907.17	240.33
907.47	240.81
907.77	240.81
908.08	240.05
908.38	240.24
908.69	240.48
908.99	240.81
909.30	240.86
909.60	241.10
909.90	241.33
910.21	240.81
910.51	240.29
910.81	240.19
911.12	240.24
911.42	240.48
911.73	237.71
912.03	237.95
912.33	238.10
912.64	237.90
912.94	237.71
913.24	237.29
913.55	237.33
913.85	237.05
914.15	237.43
914.46	238.33
914.76	238.00
915.06	237.90
915.37	237.62
915.67	237.33
915.97	237.43
916.27	236.76
916.58	236.57
916.88	236.57
917.18	236.19
917.49	238.05
917.79	237.71
918.09	238.33
918.39	238.67
918.70	238.48
919.00	238.67
919.30	239.76
919.60	239.67
919.91	239.24
920.21	239.29
920.51	238.71
920.81	238.33
921.12	238.67
921.42	238.71
921.72	238.95
922.02	239.19
922.32	239.52
922.63	239.95
922.93	241.33
923.23	241.33
923.53	241.43
923.83	239.71
924.13	240.10
924.44	239.90
924.74	240.19
925.04	240.81
925.34	240.62
925.64	240.00
925.94	240.10
926.24	241.52
926.55	241.14
926.85	241.62
927.15	241.43
927.45	241.67
927.75	241.43
928.05	241.52
928.35	241.52
928.65	242.05
928.95	241.81
929.26	241.10
929.56	241.90
929.86	242.29
930.16	242.19
930.46	242.00
930.76	241.90
931.06	240.86
931.36	240.38
931.66	240.95
931.96	240.81
932.26	240.95
932.56	240.05
932.86	240.43
933.16	240.29
933.46	240.19
933.76	239.62
934.06	240.29
934.36	241.10
934.66	240.95
934.96	240.19
935.26	240.48
935.56	240.57
935.86	239.67
936.16	239.14
936.46	238.57
936.76	238.43
937.06	238.24
937.36	238.57
937.66	238.67
937.96	238.38
938.26	238.00
938.56	237.67
938.86	237.48
939.16	237.95
939.46	238.05
939.76	238.14
940.06	238.00
940.35	237.29
940.65	236.00
940.95	236.33
941.25	236.14
941.55	235.48
941.85	235.14
942.15	235.86
942.45	236.52
942.75	236.81
943.04	236.76
943.34	237.38
943.64	237.05
943.94	236.71
944.24	236.76
944.54	236.81
944.84	236.81
945.13	236.81
945.43	236.52
945.73	236.76
946.03	236.62
946.33	236.95
946.62	237.14
946.92	237.00
947.22	237.19
947.52	237.14
947.82	237.71
948.11	237.48
948.41	236.71
948.71	236.10
949.01	236.38
949.31	236.57
949.60	236.29
949.90	236.62
950.20	236.52
950.50	236.62
950.79	236.76
951.09	237.14
951.39	237.19
951.69	236.76
951.98	237.19
952.28	237.24
952.58	236.86
952.87	236.86
953.17	237.57
953.47	237.33
953.76	237.29
954.06	236.95
954.36	237.14
954.66	237.48
954.95	238.19
955.25	238.33
955.55	238.52
955.84	238.38
956.14	238.71
956.44	239.19
956.73	238.67
957.03	238.95
957.32	239.19
957.62	239.00
957.92	239.86
958.21	239.57
958.51	242.52
958.81	242.90
959.10	243.33
959.40	243.67
959.69	243.76
959.99	244.43
960.29	244.33
960.58	244.24
960.88	245.29
961.17	245.14
961.47	245.48
961.76	245.33
962.06	246.10
962.36	245.81
962.65	246.00
962.95	246.43
963.24	246.10
963.54	246.05
963.83	246.52
964.13	246.24
964.42	245.67
964.72	243.62
965.01	243.57
965.31	243.43
965.60	242.67
965.90	244.24
966.19	243.57
966.49	243.86
966.78	243.81
967.08	243.52
967.37	243.38
967.67	242.76
967.96	243.43
968.26	242.86
968.55	243.05
968.85	242.57
969.14	242.48
969.43	242.48
969.73	242.05
970.02	241.57
970.32	241.52
970.61	241.38
970.91	240.48
971.20	240.24
971.49	239.76
971.79	240.00
972.08	238.38
972.38	238.62
972.67	238.76
972.96	239.19
973.26	238.52
973.55	239.43
973.85	239.33
974.14	238.90
974.43	239.14
974.73	238.81
975.02	238.57
975.31	238.29
975.61	238.33
975.90	238.19
976.19	238.00
976.49	237.90
976.78	238.29
977.07	238.38
977.37	238.76
977.66	238.95
977.95	238.71
978.24	238.62
978.54	239.10
978.83	238.71
979.12	238.48
979.42	238.43
979.71	238.19
980.00	238.33
980.29	238.19
980.59	237.81
980.88	238.52
981.17	238.33
981.46	238.57
981.76	238.33
982.05	239.48
982.34	239.76
982.63	239.90
982.93	239.52
983.22	240.05
983.51	239.67
983.80	240.29
984.09	240.48
984.39	240.33
984.68	239.71
984.97	239.86
985.26	239.57
985.55	239.81
985.85	238.81
986.14	239.00
986.43	239.00
986.72	238.67
987.01	237.62
987.30	238.05
987.59	237.62
987.89	237.86
988.18	236.81
988.47	236.33
988.76	236.00
989.05	235.81
989.34	235.33
989.63	236.33
989.92	235.33
990.22	235.19
990.51	235.19
990.80	235.48
991.09	235.43
991.38	235.71
991.67	235.43
991.96	235.33
992.25	235.29
992.54	235.10
992.83	235.33
993.12	235.67
993.41	236.05
993.70	237.29
993.99	237.52
994.28	238.00
994.58	238.57
994.87	238.43
995.16	238.52
995.45	238.76
995.74	237.95
996.03	238.76
996.32	239.14
996.61	239.86
996.90	239.52
997.19	239.76
997.48	239.81
997.77	239.90
998.06	240.24
998.34	240.14
998.63	240.14
998.92	240.00
999.21	240.33
999.50	240.38
999.79	239.33
1000.08	239.43
1000.37	239.57
1000.66	239.43
1000.95	240.29
1001.24	240.48
1001.53	241.10
1001.82	241.00
1002.11	240.24
1002.40	240.62
1002.68	241.19
1002.97	242.95
1003.26	242.48
1003.55	242.19
1003.84	242.33
1004.13	243.10
1004.42	242.86
1004.71	243.10
1004.99	243.10
1005.28	243.43
1005.57	243.14
1005.86	242.95
1006.15	242.71
1006.44	242.10
1006.72	242.48
1007.01	241.67
1007.30	241.67
1007.59	240.90
1007.88	240.86
1008.17	241.33
1008.45	240.67
1008.74	239.29
1009.03	238.24
1009.32	238.43
1009.60	238.52
1009.89	238.14
1010.18	237.10
1010.47	237.10
1010.76	236.95
1011.04	236.81
1011.33	236.52
1011.62	236.62
1011.91	237.00
1012.19	237.05
1012.48	236.86
1012.77	236.52
1013.05	237.81
1013.34	238.00
1013.63	237.71
1013.92	237.81
1014.20	237.29
1014.49	237.29
1014.78	237.95
1015.06	237.00
1015.35	237.00
1015.64	237.05
1015.92	237.33
1016.21	237.38
1016.50	237.71
1016.78	238.05
1017.07	238.19
1017.36	238.05
1017.64	237.71
1017.93	237.57
1018.22	237.43
1018.50	237.57
1018.79	237.43
1019.08	236.38
1019.36	236.33
1019.65	236.76
1019.93	237.67
1020.22	238.19
1020.51	239.81
1020.79	239.19
1021.08	236.00
1021.36	233.00
1021.65	236.00
1021.94	238.00
1022.22	238.00
1022.51	241.00
1022.79	255.00
1023.08	240.00
1023.36	274.00
1023.65	230.00
>>>>>End Processed Spectral Data<<<<<
